"Time (s)","Linear Acceleration x (m/s^2)","Linear Acceleration y (m/s^2)","Linear Acceleration z (m/s^2)","Absolute acceleration (m/s^2)"
5.865416751E-4,4.387867570E-2,-5.405205910E0,-1.787658716E0,5.693320644E0
1.062054167E-2,4.122124775E-1,-5.592896855E0,-2.770119000E0,6.254915957E0
2.065454167E-2,5.271187435E-1,-6.021590733E0,-2.613294922E0,6.585341257E0
3.068854166E-2,1.108833378E0,-5.898450125E0,-3.053214869E0,6.733746831E0
4.072254167E-2,2.003614955E0,-5.382450886E0,-3.649522108E0,6.804723510E0
5.075754167E-2,1.845103956E0,-5.309268889E0,-3.553596781E0,6.649871790E0
6.079154166E-2,2.218023729E0,-4.973794831E0,-4.354282333E0,6.972663689E0
7.082554167E-2,2.251869459E0,-4.884243554E0,-5.743831033E0,7.868821137E0
8.085954167E-2,2.167587985E0,-4.827341375E0,-6.645561733E0,8.495007544E0
9.089354167E-2,2.067266137E0,-4.921855184E0,-7.124050500E0,8.902266187E0
1.009275417E-1,1.865635723E0,-5.170018033E0,-7.239282163E0,9.089383332E0
1.109611250E-1,1.611561046E0,-5.455898931E0,-7.216555206E0,9.189267174E0
1.209951250E-1,1.228073162E0,-5.816199682E0,-7.073384376E0,9.239540517E0
1.310301250E-1,8.110630439E-1,-6.037938963E0,-6.791046306E0,9.123203391E0
1.410641250E-1,4.430641414E-1,-6.077053328E0,-6.363367504E0,8.810183254E0
1.510981250E-1,2.003363525E-1,-5.977303337E0,-6.016845717E0,8.483555989E0
1.611321250E-1,-8.862602837E-2,-5.779703116E0,-5.675108122E0,8.100597193E0
1.711661250E-1,-2.995671105E-1,-5.448118041E0,-5.249957657E0,7.571907688E0
1.812001250E-1,-3.197610544E-1,-5.140170920E0,-4.748729069E0,7.005286004E0
1.912341250E-1,-2.689271888E-1,-4.624652907E0,-4.146048950E0,6.216868845E0
2.012681250E-1,-1.984379809E-1,-3.714990458E0,-3.502070532E0,5.109308147E0
2.113031250E-1,-4.681584176E-1,-2.633647910E0,-2.796410421E0,3.869778399E0
2.213371250E-1,-5.614177796E-1,-1.051431116E0,-2.039453856E0,2.362217040E0
2.313711250E-1,-1.444357868E0,8.377042741E-1,-6.455033720E-1,1.790137622E0
2.414051250E-1,-2.706297226E0,2.724047034E0,1.407772132E0,4.089779859E0
2.514391250E-1,-3.755612234E0,4.705007098E0,3.738212090E0,7.086320955E0
2.614731250E-1,-4.763182801E0,6.605770846E0,5.823504024E0,1.001185887E1
2.715071250E-1,-5.633733224E0,8.278275082E0,8.415244939E0,1.307995167E1
2.815411250E-1,-5.455473254E0,1.023688650E1,1.080878162E1,1.585515039E1
2.915761250E-1,-4.213803561E0,1.238569616E1,1.211650321E1,1.783174865E1
3.016101250E-1,-3.278573870E0,1.368251737E1,1.282968577E1,1.904103897E1
3.116441250E-1,-2.734573776E0,1.393699287E1,1.245468161E1,1.889012329E1
3.216781250E-1,-2.010831735E0,1.451104678E1,1.208904469E1,1.899365484E1
3.317121250E-1,-1.757714102E0,1.471131508E1,1.121044791E1,1.857919516E1
3.417461250E-1,-1.836163563E0,1.458322715E1,9.995735636E0,1.777517205E1
3.517801250E-1,-2.169543002E0,1.404293039E1,9.368265077E0,1.701984728E1
3.618141250E-1,-2.970420050E0,1.297866697E1,9.531211190E0,1.637416191E1
3.718491250E-1,-3.982817201E0,1.132379502E1,9.922744843E0,1.557408205E1
3.818831250E-1,-4.602038215E0,9.205887313E0,9.914852271E0,1.429095562E1
3.919171250E-1,-4.524011216E0,6.886429596E0,9.351246171E0,1.246336211E1
4.019511250E-1,-3.820658416E0,4.446087127E0,8.047362104E0,9.956161826E0
4.119851250E-1,-2.969372521E0,1.858263845E0,6.086289589E0,7.022338546E0
4.220191250E-1,-1.756477562E0,-5.049380618E-1,4.260407040E0,4.635864969E0
4.320531250E-1,-4.233269381E-1,-2.632970803E0,2.263657154E0,3.497982941E0
4.420881250E-1,9.906397343E-1,-4.704822326E0,-7.681838036E-2,4.808598680E0
4.521221250E-1,2.166636936E0,-6.627282168E0,-2.233548086E0,7.321469907E0
4.621561250E-1,2.827193087E0,-8.413300155E0,-4.183852076E0,9.812301384E0
4.721901250E-1,3.227555451E0,-9.967391843E0,-5.852966389E0,1.200096787E1
4.822241250E-1,3.502175489E0,-1.120434809E1,-6.962894220E0,1.364860965E1
4.922581250E-1,3.456900206E0,-1.234142338E1,-7.546049316E0,1.487292003E1
5.022921250E-1,3.017767002E0,-1.351146760E1,-7.645649618E0,1.581526581E1
5.123261250E-1,2.131606559E0,-1.475469792E1,-7.414094031E0,1.664973415E1
5.223611250E-1,1.334607677E0,-1.600114420E1,-7.076443055E0,1.754690399E1
5.323951250E-1,2.445319473E0,-1.697114582E1,-7.283384203E0,1.862919921E1
5.424291250E-1,4.192098989E0,-1.868422798E1,-9.075661050E0,2.119060388E1
5.524631250E-1,6.341581364E0,-1.928348572E1,-1.038397672E1,2.280121594E1
5.624971250E-1,8.001502392E0,-1.875650307E1,-1.035102649E1,2.286862911E1
5.725311250E-1,7.969890005E0,-1.827059127E1,-9.410028230E0,2.204273765E1
5.825651250E-1,6.029172817E0,-1.800442133E1,-7.641662986E0,2.046717190E1
5.925991250E-1,3.486548513E0,-1.754376131E1,-5.629008674E0,1.875167513E1
6.026341250E-1,1.402902717E0,-1.637423866E1,-3.656611272E0,1.683611100E1
6.126681250E-1,2.804489080E-2,-1.480926179E1,-1.959715376E0,1.493839033E1
6.227021250E-1,-6.236700149E-1,-1.280612733E1,-7.320942038E-1,1.284218920E1
6.327361250E-1,-8.524532177E-1,-1.058643773E1,1.119811964E-1,1.062129371E1
6.427701250E-1,-8.855181259E-1,-7.989743641E0,9.927069443E-1,8.099729185E0
6.528041250E-1,-9.210591837E-1,-5.151061360E0,2.077798142E0,5.630189008E0
6.628381250E-1,-9.625101686E-1,-2.248819259E0,3.468694625E0,4.244461837E0
6.728721250E-1,-7.369202033E-1,8.560896742E-1,5.014339424E0,5.139994239E0
6.829071250E-1,-2.219120301E-1,3.884488961E0,6.572917680E0,7.638176894E0
6.929411250E-1,2.117357370E-1,6.679727599E0,7.928381206E0,1.036932116E1
7.029751250E-1,3.179482714E-1,9.133742028E0,9.033021399E0,1.284997316E1
7.130091250E-1,6.068408512E-1,1.116322346E1,9.823194827E0,1.488223674E1
7.230431250E-1,1.636180455E0,1.306466782E1,1.002820873E1,1.655075836E1
7.330771250E-1,3.737504285E0,1.506140543E1,9.253718122E0,1.806782142E1
7.431111250E-1,6.077801186E0,1.686116671E1,7.807036278E0,1.954964004E1
7.531461250E-1,7.665844731E0,1.795618765E1,5.249644246E0,2.021753237E1
7.631801250E-1,8.846684085E0,1.858222915E1,1.950276216E0,2.067284781E1
7.732141250E-1,9.636512527E0,1.890504223E1,-1.008699372E0,2.124336296E1
7.832481250E-1,9.939284277E0,1.907136745E1,-2.644550921E0,2.166795048E1
7.932821250E-1,8.721663598E0,1.814213729E1,-2.590873774E0,2.029574311E1
8.033161250E-1,6.391793743E0,1.625746976E1,-8.508295190E-1,1.748954720E1
8.133501250E-1,3.180727148E0,1.328180534E1,1.471192203E0,1.373636724E1
8.233841250E-1,-1.060174238E0,9.318342719E0,4.132725484E0,1.024865359E1
8.334191250E-1,-4.248133734E0,5.684601662E0,6.749500085E0,9.793726955E0
8.434531250E-1,-5.717196965E0,2.505449461E0,8.443205155E0,1.050006340E1
8.534871250E-1,-5.700353476E0,-1.391830283E-1,8.907032613E0,1.057585134E1
8.635211250E-1,-4.750252853E0,-1.972091593E0,8.636704724E0,1.005219956E1
8.735551250E-1,-3.772928764E0,-3.728097576E0,7.599084147E0,9.267134555E0
8.835891250E-1,-2.858076911E0,-5.153863930E0,5.854003100E0,8.306640075E0
8.936231250E-1,-2.248322246E0,-6.358112027E0,4.223622791E0,7.957357033E0
9.036571250E-1,-2.011659993E0,-7.296021205E0,2.744642097E0,8.050575234E0
9.136921250E-1,-2.058128693E0,-8.276713291E0,1.068490952E0,8.595437716E0
9.237261250E-1,-1.988869155E0,-9.150286725E0,-7.543785274E-1,9.394276695E0
9.337601250E-1,-1.747043518E0,-9.912999873E0,-2.853286872E0,1.046235984E1
9.437941250E-1,-1.357825508E0,-1.057730438E1,-4.953679240E0,1.175848613E1
9.538281250E-1,-7.373376945E-1,-1.084214349E1,-6.881048988E0,1.286252609E1
9.638621250E-1,-1.918351588E-1,-1.097216686E1,-8.471306874E0,1.386319900E1
9.738961250E-1,1.548642375E-1,-1.102210442E1,-9.644767626E0,1.464692156E1
9.839301250E-1,4.195826004E-1,-1.076424922E1,-1.021632185E1,1.484649261E1
9.939651250E-1,5.804587989E-1,-1.038264590E1,-1.032604953E1,1.465481378E1
1.003999125E0,5.419670168E-1,-1.012479655E1,-1.002219312E1,1.425656299E1
1.014033125E0,5.758669804E-1,-9.886425447E0,-9.532275383E0,1.374544670E1
1.024067125E0,9.298248178E-1,-9.629606965E0,-8.891853241E0,1.313997559E1
1.034101125E0,1.281504726E0,-9.501994407E0,-8.257949576E0,1.265400661E1
1.044135125E0,1.824165223E0,-9.139048376E0,-7.586705006E0,1.201698285E1
1.054169125E0,2.485357551E0,-8.663432931E0,-6.944529285E0,1.137798573E1
1.064204125E0,2.983604060E0,-8.101783310E0,-6.321968633E0,1.070084452E1
1.074238125E0,3.530822168E0,-7.109821885E0,-5.593021985E0,9.710724347E0
1.084272125E0,3.723106978E0,-6.221683622E0,-4.642314422E0,8.609410889E0
1.094306125E0,3.533220404E0,-5.285472475E0,-3.437257070E0,7.227350958E0
1.104340125E0,3.345102028E0,-3.936539705E0,-2.012368383E0,5.543976816E0
1.114374375E0,3.153996017E0,-2.111996167E0,-5.414393055E-1,3.834237239E0
1.124408375E0,2.868779947E0,7.468356192E-2,1.362206535E0,3.176646449E0
1.134442375E0,2.371504661E0,2.421491631E0,3.477234483E0,4.855802274E0
1.144477375E0,1.825314785E0,4.564717777E0,5.622085571E0,7.468351131E0
1.154511375E0,1.452930471E0,6.500885831E0,7.781486285E0,1.024324423E1
1.164545375E0,1.310264256E0,8.406298115E0,9.510033159E0,1.276022614E1
1.174579375E0,1.726111363E0,1.104319883E1,1.059466827E1,1.540060702E1
1.184613375E0,2.070547448E0,1.343282255E1,1.051403985E1,1.718350728E1
1.194647375E0,1.458068127E0,1.433478948E1,9.411954303E0,1.721037582E1
1.204681375E0,1.150369878E0,1.463903531E1,7.651814922E0,1.655822990E1
1.214716375E0,1.974837153E0,1.519340047E1,6.183167428E0,1.652183280E1
1.224750375E0,2.084545683E0,1.428804099E1,5.679564870E0,1.551614975E1
1.234784375E0,1.258100953E0,1.210257514E1,5.337157184E0,1.328685026E1
1.244818375E0,1.021823959E0,1.004102583E1,5.120423704E0,1.131746716E1
1.254852375E0,2.641681400E-1,6.892513039E0,4.466647691E0,8.217509501E0
1.264886375E0,-9.294296922E-1,2.997588553E0,3.580233772E0,4.761034609E0
1.274920375E0,-1.632501680E0,-4.707318503E-1,3.328630421E0,3.737168807E0
1.284954375E0,-1.636650425E0,-2.935490538E0,3.825073648E0,5.091848164E0
1.294989375E0,-1.288008730E0,-4.131519789E0,4.656923105E0,6.357307218E0
1.305023375E0,-8.301713061E-1,-4.251091256E0,5.289688902E0,6.836795298E0
1.315057375E0,-1.180571844E0,-3.741055299E0,5.668508370E0,6.893564518E0
1.325091375E0,-2.387388476E0,-3.269520041E0,5.359899344E0,6.716986379E0
1.335125375E0,-3.906801935E0,-3.822250320E0,3.666567326E0,6.581520708E0
1.345159375E0,-5.080526982E0,-4.400080065E0,1.486780879E0,6.883529354E0
1.355193375E0,-5.401292369E0,-4.226532365E0,-5.252138668E-1,6.878472555E0
1.365227375E0,-5.035397587E0,-4.468977222E0,-3.021076818E0,7.379288001E0
1.375262375E0,-3.853889896E0,-4.615224856E0,-6.028303337E0,8.514294388E0
1.385296375E0,-2.379115397E0,-4.374932359E0,-8.859883005E0,1.016355007E1
1.395330375E0,-1.296919156E0,-4.258440621E0,-1.127801366E1,1.212476424E1
1.405364375E0,-1.106676194E-1,-3.881505126E0,-1.290562239E1,1.347714430E1
1.415398375E0,6.498177400E-1,-3.888630543E0,-1.389888306E1,1.444723714E1
1.425432375E0,1.155134701E0,-3.695868893E0,-1.383545247E1,1.436709880E1
1.435466375E0,1.591813245E0,-3.464773482E0,-1.294010809E1,1.349017873E1
1.445500375E0,1.820850436E0,-3.286169111E0,-1.163661287E1,1.222804820E1
1.455535375E0,2.010596385E0,-3.217147408E0,-1.055010314E1,1.121147677E1
1.465569375E0,2.011622571E0,-3.367708533E0,-9.693470839E0,1.045712499E1
1.475603375E0,2.043248114E0,-3.326450579E0,-8.800541368E0,9.627547178E0
1.485637375E0,2.326907947E0,-2.994863166E0,-7.770853708E0,8.646957461E0
1.495671375E0,2.534844584E0,-2.571171581E0,-6.762014295E0,7.665585281E0
1.505705375E0,2.429574529E0,-2.172648751E0,-5.856748953E0,6.702592281E0
1.515739375E0,1.955629195E0,-1.993337451E0,-4.877467800E0,5.620282189E0
1.525773375E0,1.039249319E0,-1.790792824E0,-3.516799668E0,4.081036387E0
1.535808375E0,-3.225470334E-3,-1.307264927E0,-1.612822875E0,2.076089984E0
1.545842375E0,-9.018938380E-1,-6.660165739E-1,4.178835458E-1,1.196502081E0
1.555876375E0,-1.720697280E0,-1.656779319E-1,2.517467828E0,3.053832440E0
1.565910375E0,-2.262579804E0,3.973533869E-1,4.878336697E0,5.392154116E0
1.575944375E0,-1.831744530E0,1.537121313E0,7.094624972E0,7.486770562E0
1.585978375E0,-8.994469245E-1,3.455598031E0,8.791371764E0,9.488855569E0
1.596012375E0,-1.879733652E-2,5.670281830E0,9.517249793E0,1.107837953E1
1.606046375E0,9.185351600E-1,8.260680810E0,9.284701349E0,1.246146995E1
1.616081375E0,8.407407331E-1,1.034004425E1,9.279088606E0,1.391850730E1
1.626115375E0,-9.311939433E-1,1.077188686E1,9.916512880E0,1.467098825E1
1.636149375E0,-2.214557353E0,1.118850682E1,1.074128604E1,1.566723252E1
1.646183375E0,-2.608078036E0,1.168795025E1,1.119326762E1,1.639205576E1
1.656217375E0,-3.628525341E0,1.065478935E1,1.083293530E1,1.562188271E1
1.666251375E0,-4.459684534E0,9.021350357E0,9.531841519E0,1.386108045E1
1.676285375E0,-5.024007211E0,7.069366754E0,8.016032723E0,1.180988465E1
1.686319375E0,-5.568204648E0,5.005085621E0,6.451463410E0,9.883175866E0
1.696354375E0,-5.812665625E0,3.033144302E0,5.483721737E0,8.547411895E0
1.706388375E0,-5.330563279E0,1.483610519E0,5.169774204E0,7.572487726E0
1.716422375E0,-4.051233132E0,2.195237714E-1,4.948603857E0,6.399168751E0
1.726456375E0,-2.154576469E0,-6.647155684E-1,4.338790135E0,4.889697985E0
1.736490375E0,-1.213218310E-1,-1.186035190E0,3.511430755E0,3.708307485E0
1.746524375E0,1.642462119E0,-1.547771432E0,2.465515902E0,3.342461201E0
1.756558375E0,2.740804569E0,-2.111089849E0,1.130390162E0,3.639573046E0
1.766593375E0,2.828773590E0,-2.959030259E0,-4.088414115E-1,4.113997009E0
1.776627375E0,2.498545361E0,-3.619566822E0,-1.779575526E0,4.744563410E0
1.786661375E0,2.356149873E0,-4.088487205E0,-3.340200307E0,5.781358658E0
1.796695375E0,2.319805627E0,-4.552383660E0,-5.159732196E0,7.261441418E0
1.806729375E0,2.416815905E0,-5.203424345E0,-6.792929109E0,8.891597715E0
1.816763375E0,2.984608904E0,-5.669834518E0,-8.202130301E0,1.040816291E1
1.826797375E0,3.801191573E0,-5.964782109E0,-9.387000141E0,1.175344437E1
1.836831375E0,4.484277046E0,-6.144350102E0,-1.026205175E1,1.277385944E1
1.846866375E0,4.933259593E0,-6.238762169E0,-1.065495891E1,1.329614053E1
1.856900375E0,5.231711420E0,-6.175583004E0,-1.057569523E1,1.331743066E1
1.866934375E0,5.272474115E0,-5.974829380E0,-1.007090393E1,1.284214450E1
1.876968375E0,5.037132456E0,-5.708041980E0,-9.336669062E0,1.204690150E1
1.887002375E0,4.453244703E0,-5.407533687E0,-8.361256428E0,1.090795205E1
1.897036375E0,3.368090648E0,-5.052106006E0,-7.182313326E0,9.404968603E0
1.907070375E0,2.346540851E0,-4.389503036E0,-6.156340402E0,7.916723945E0
1.917104375E0,1.993357331E0,-3.545953885E0,-5.214227661E0,6.613276987E0
1.927139375E0,2.185560572E0,-2.709043078E0,-4.502892827E0,5.691364795E0
1.937173375E0,2.560066841E0,-2.042914823E0,-3.994635593E0,5.165709702E0
1.947207375E0,2.664676160E0,-1.591550120E0,-3.477189460E0,4.660941682E0
1.957241375E0,2.921624158E0,-1.018972052E0,-3.010701519E0,4.317234694E0
1.967275375E0,2.940876408E0,-1.871062231E-1,-2.208075568E0,3.682303695E0
1.977309375E0,2.360976457E0,4.799710357E-1,-1.050235068E0,2.628226726E0
1.987343375E0,1.230673419E0,9.177351147E-1,3.964704573E-1,1.585554675E0
1.997377375E0,-3.185434449E-1,1.390676628E0,2.221593454E0,2.640251671E0
2.007412375E0,-1.467199724E0,2.385814260E0,3.958819935E0,4.849437080E0
2.017446375E0,-2.134816681E0,3.863785139E0,5.252338643E0,6.861001318E0
2.027480375E0,-2.823103545E0,5.584545277E0,6.154305571E0,8.776818139E0
2.037514375E0,-3.862276558E0,7.054437643E0,6.907664344E0,1.060179689E1
2.047548375E0,-5.832380682E0,7.192436026E0,7.296345141E0,1.178916676E1
2.057582375E0,-6.884378393E0,6.883030025E0,7.211921287E0,1.211538595E1
2.067616375E0,-5.435813745E0,7.468112948E0,6.730669127E0,1.142902835E1
2.077650375E0,-2.908341331E0,8.758465388E0,5.685738945E0,1.083959375E1
2.087685375E0,-2.081096849E0,8.358739201E0,3.806727717E0,9.417571929E0
2.097719375E0,-2.002962552E0,6.763000721E0,1.221893824E0,7.158425962E0
2.107753167E0,-1.738373705E0,5.079601368E0,-8.327908587E-1,5.433031733E0
2.117787167E0,-1.803787676E0,3.470842892E0,-1.622669294E0,4.234791140E0
2.127821167E0,-2.230822699E0,1.772787493E0,-1.203086548E0,3.093018372E0
2.137855167E0,-2.578860084E0,3.098538977E-1,-4.931544605E-1,2.643809769E0
2.147889167E0,-2.725227879E0,-1.094464284E0,-2.747086233E-1,2.949607413E0
2.157923167E0,-2.445683901E0,-2.079171653E0,-3.845292735E-1,3.232984266E0
2.167958167E0,-1.914485993E0,-2.569624407E0,-4.889710701E-1,3.241499486E0
2.177992167E0,-1.416434782E0,-2.966849155E0,-6.480241066E-1,3.350882965E0
2.188026167E0,-5.859027028E-1,-2.964886245E0,-8.561306047E-1,3.141145020E0
2.198060167E0,2.800807527E-1,-2.477005681E0,-6.805527520E-1,2.584019044E0
2.208094167E0,5.703950098E-1,-2.173540451E0,-2.076831597E-1,2.256714615E0
2.218128167E0,4.351667458E-1,-2.209136546E0,8.687383711E-2,2.253264618E0
2.228162167E0,2.554370776E-1,-2.207634981E0,1.618784112E-1,2.228251541E0
2.238197167E0,1.164888149E-1,-2.033414267E0,1.534397095E-1,2.042519760E0
2.248231167E0,-2.942494333E-2,-1.938960684E0,-4.403421164E-2,1.939683833E0
2.258265167E0,8.999537319E-2,-1.925907944E0,-4.966461253E-1,1.990949008E0
2.268299167E0,4.184735298E-1,-1.848531740E0,-8.876120138E-1,2.092855651E0
2.278333167E0,6.613674527E-1,-1.733881874E0,-1.264200184E0,2.245429884E0
2.288367167E0,6.892858610E-1,-1.936453983E0,-1.852805470E0,2.767283349E0
2.298401167E0,4.360619545E-1,-2.431549426E0,-2.726563091E0,3.679229393E0
2.308435167E0,2.174889404E-1,-2.776469076E0,-3.502383358E0,4.474681123E0
2.318470167E0,6.600103140E-2,-3.091773164E0,-3.996829761E0,5.053520116E0
2.328504167E0,1.530277732E-1,-3.464515620E0,-4.340594001E0,5.555811575E0
2.338538167E0,4.844587737E-1,-3.782415286E0,-4.580485379E0,5.960051342E0
2.348572167E0,8.782965222E-1,-4.113087611E0,-4.694345285E0,6.302838419E0
2.358606167E0,1.032684650E0,-4.575909932E0,-4.713675596E0,6.650122323E0
2.368640167E0,8.688380662E-1,-5.037852833E0,-4.568269376E0,6.855940915E0
2.378674167E0,5.005127428E-1,-5.400939197E0,-4.320155059E0,6.934291380E0
2.388708167E0,3.529719968E-1,-5.439472348E0,-4.017839391E0,6.771667596E0
2.398743167E0,5.767585346E-1,-5.178169051E0,-3.559257470E0,6.309865202E0
2.408777167E0,1.565467007E0,-4.748146101E0,-3.175823380E0,5.922958086E0
2.418811167E0,3.208368983E0,-3.615484881E0,-2.984684917E0,5.680995204E0
2.428845167E0,4.605963744E0,-1.454302520E0,-2.966912890E0,5.668550955E0
2.438879167E0,4.942322778E0,1.567664829E0,-3.287163137E0,6.139183084E0
2.448913167E0,3.767963893E0,5.005704841E0,-4.228540591E0,7.558782203E0
2.458947167E0,2.562998343E-1,6.994538181E0,-5.421885678E0,8.853592394E0
2.468981167E0,-5.628353786E0,7.324870198E0,-5.363310610E0,1.068162864E1
2.479016167E0,-1.030013817E1,7.856293808E0,-5.078588045E0,1.391424649E1
2.489050167E0,-1.135999630E1,9.106662987E0,-4.620898994E0,1.527525889E1
2.499084167E0,-1.037688639E1,9.113995981E0,-3.925300772E0,1.435801797E1
2.509118167E0,-9.082205254E0,7.329331623E0,-3.038251260E0,1.205970667E1
2.519152167E0,-8.724305370E0,4.623393416E0,-1.981940643E0,1.007061863E1
2.529186167E0,-9.159364527E0,1.395577179E0,-2.994043386E-1,9.269910310E0
2.539220167E0,-9.313741545E0,-1.624178168E0,1.938543777E0,9.650994160E0
2.549254167E0,-8.258955882E0,-3.849464723E0,4.337848148E0,1.009186095E1
2.559289167E0,-5.883641467E0,-4.852006685E0,6.402292419E0,9.957336692E0
2.569323167E0,-2.877765363E0,-4.399808169E0,7.874825388E0,9.468512043E0
2.579357167E0,-2.296435475E-1,-3.006564321E0,8.550930163E0,9.067004568E0
2.589391167E0,1.578335413E0,-1.718678236E0,8.173581271E0,8.500142842E0
2.599425167E0,3.311810905E0,-4.674302199E-1,7.334233344E0,8.060866035E0
2.609459167E0,4.924522099E0,5.963059227E-1,6.332999405E0,8.044462699E0
2.619493167E0,6.206444024E0,1.675631035E0,5.146704599E0,8.235062539E0
2.629527167E0,6.709679376E0,2.585408089E0,3.963131087E0,8.210392216E0
2.639562167E0,5.931369365E0,2.940745431E0,2.748614110E0,7.168263790E0
2.649596167E0,4.180507761E0,2.814803714E0,1.700496027E0,5.318970937E0
2.659630167E0,1.871254020E0,2.478888192E0,1.106751623E0,3.297177191E0
2.669664167E0,-6.731465225E-1,2.162802332E0,8.276470631E-1,2.411605239E0
2.679698167E0,-2.809666936E0,2.077570539E0,1.050537661E0,3.648856946E0
2.689732167E0,-3.652592481E0,2.239666028E0,1.137500961E0,4.432994945E0
2.699766167E0,-2.846947905E0,2.551395712E0,5.844736433E-1,3.867343002E0
2.709801167E0,-1.250639029E0,2.260200280E0,-7.317001015E-1,2.684769697E0
2.719835167E0,1.411153778E-1,1.222765352E0,-2.620464778E0,2.895151863E0
2.729869167E0,1.484308823E0,1.713071926E-1,-4.389846268E0,4.637161749E0
2.739903167E0,2.373506748E0,-5.554311079E-1,-5.391485419E0,5.916937807E0
2.749937167E0,2.767911384E0,-9.915339929E-1,-5.772304049E0,6.477960105E0
2.759971167E0,2.777946960E0,-1.277002370E0,-5.661519778E0,6.434324406E0
2.770005167E0,2.177107252E0,-1.627010852E0,-4.890923998E0,5.595363961E0
2.780039167E0,1.613611372E0,-1.767987221E0,-3.704640301E0,4.410655307E0
2.790074167E0,1.090426928E0,-1.826461132E0,-2.401903458E0,3.208446879E0
2.800108167E0,7.758120811E-1,-1.646048509E0,-9.498433453E-1,2.052696388E0
2.810142167E0,1.121837878E0,-1.110035419E0,6.567674482E-1,1.709398239E0
2.820176167E0,2.089648548E0,-5.021746677E-1,2.217661786E0,3.088176525E0
2.830210167E0,3.359819177E0,2.165715122E-1,3.141122494E0,4.604556292E0
2.840244167E0,4.654278994E0,9.459631330E-1,3.202129419E0,5.728070532E0
2.850278167E0,4.984292922E0,1.325193660E0,2.866948891E0,5.900738099E0
2.860312167E0,4.030718468E0,1.456954232E0,2.925114069E0,5.188997911E0
2.870347167E0,3.102708334E0,1.945130081E0,3.508689580E0,5.071610455E0
2.880381167E0,2.925431865E0,2.846306466E0,4.097262121E0,5.783352746E0
2.890415167E0,2.953939088E0,3.371065419E0,4.437918566E0,6.307531958E0
2.900449167E0,2.422096525E0,3.325355980E0,4.589777189E0,6.163651403E0
2.910483167E0,1.171982357E0,2.661783543E0,4.795328454E0,5.608369572E0
2.920517167E0,-1.182440029E-1,1.270964828E0,4.861069869E0,5.025866443E0
2.930551167E0,-4.806579374E-1,3.489062816E-1,4.888235448E0,4.924186577E0
2.940585167E0,-2.073704799E-1,2.521605903E-1,4.196159003E0,4.208840441E0
2.950620167E0,3.051191148E-1,1.475550717E-1,2.645129503E0,2.666754631E0
2.960654167E0,5.110485484E-1,-1.679133224E-1,1.170456453E0,1.288151315E0
2.970688167E0,5.939149962E-1,-5.603392607E-1,-8.609908104E-2,8.210530809E-1
2.980722167E0,7.598155609E-1,-1.218858535E0,-1.144254495E0,1.836369833E0
2.990756167E0,8.502474287E-1,-1.944619035E0,-1.325725172E0,2.502401069E0
3.000790167E0,5.873028186E-1,-2.547845868E0,-8.006937379E-1,2.734511589E0
3.010824167E0,-3.985929966E-2,-3.167822050E0,-3.523836207E-1,3.187610315E0
3.020859167E0,-4.848066831E-1,-3.704548500E0,1.893500921E-1,3.740931778E0
3.030893167E0,-3.281507125E-1,-3.989603772E0,4.852300215E-1,4.032377626E0
3.040927167E0,1.396698090E-1,-4.085589325E0,1.821431065E-1,4.092031757E0
3.050961167E0,1.043295300E0,-4.245255150E0,-6.766234231E-1,4.423626976E0
3.060995167E0,1.210707224E0,-3.897890779E0,-1.723811215E0,4.430675976E0
3.071029167E0,1.602603697E0,-3.949890652E0,-2.368107136E0,4.876259446E0
3.081063167E0,1.653587909E0,-4.585972406E0,-2.789142331E0,5.616476727E0
3.091097167E0,1.533864414E0,-5.090560804E0,-3.052964609E0,6.130835362E0
3.101132167E0,1.897308628E0,-5.379150133E0,-2.933120661E0,6.413909338E0
3.111167042E0,2.007759023E0,-5.123688204E0,-2.718298051E0,6.137786360E0
3.121201042E0,2.029467981E0,-4.995200318E0,-2.648748930E0,6.007215444E0
3.131235042E0,2.122006016E0,-4.883289873E0,-2.613938116E0,5.931450243E0
3.141269042E0,2.217774637E0,-4.440568525E0,-2.395561714E0,5.511432581E0
3.151303042E0,2.300489935E0,-4.073963306E0,-2.233308935E0,5.184312853E0
3.161337042E0,2.664891922E0,-4.221465168E0,-2.239511077E0,5.471547038E0
3.171371042E0,2.152943634E0,-3.885515732E0,-2.405104663E0,5.051428237E0
3.181406042E0,1.655996377E0,-3.758515377E0,-2.527920311E0,4.822773366E0
3.191440042E0,1.715922151E0,-4.292242790E0,-2.620578214E0,5.313677368E0
3.201474042E0,1.667682622E0,-4.112651408E0,-2.894720242E0,5.298534912E0
3.211508042E0,2.639816138E0,-3.458840897E0,-3.115091275E0,5.351261837E0
3.221542042E0,3.676598225E0,-2.685382905E0,-3.180830351E0,5.553947927E0
3.231576042E0,4.432218116E0,-1.681991343E0,-3.242573440E0,5.743512411E0
3.241610042E0,4.725219169E0,-7.629563928E-1,-3.217515197E0,5.767339308E0
3.251644042E0,4.113733728E0,-4.003723043E-1,-3.057214365E0,5.140978782E0
3.261679042E0,2.413773891E0,-8.024905872E-1,-2.597966154E0,3.635893793E0
3.271713042E0,-3.532957864E-1,-1.113770036E0,-1.336694256E0,1.775402247E0
3.281747042E0,-2.479721128E0,-3.330661744E-1,2.990140370E-1,2.519793512E0
3.291781042E0,-3.455051901E0,1.008302638E0,9.738373947E-1,3.728594524E0
3.301815042E0,-5.634254211E0,2.487855189E0,8.426217824E-1,6.216450388E0
3.311849042E0,-8.189478680E0,3.311809736E0,7.204883578E-1,8.863111658E0
3.321883042E0,-1.036297118E1,4.039230260E0,1.134196115E-1,1.112292304E1
3.331918042E0,-1.142721238E1,3.984461730E0,-1.585404696E0,1.220535236E1
3.341952042E0,-1.047752282E1,7.926204872E-1,-2.568839126E0,1.081691574E1
3.351986042E0,-8.045068241E0,-3.531663875E0,-2.451838095E0,9.121802606E0
3.362020042E0,-6.391919459E0,-6.494979558E0,-1.364874035E0,9.214351575E0
3.372054042E0,-4.346018463E0,-7.403098927E0,-1.088049889E-2,8.584513299E0
3.382088042E0,-2.094358626E0,-6.007493681E0,1.324157533E0,6.498439163E0
3.392122042E0,5.749625623E-2,-2.995474784E0,3.219191594E0,4.397655003E0
3.402156042E0,1.699917153E0,6.960164447E-1,4.894649259E0,5.227977485E0
3.412191042E0,2.266681919E0,4.112402317E0,5.850063246E0,7.501529159E0
3.422225042E0,2.439911529E0,6.219870400E0,5.893138515E0,8.908930218E0
3.432259042E0,2.790287801E0,7.249977890E0,5.578161871E0,9.563669551E0
3.442293042E0,2.866180567E0,7.612142149E0,5.818233343E0,1.000057690E1
3.452327042E0,1.790022746E0,6.522779560E0,6.619352759E0,9.463966693E0
3.462361042E0,6.618931174E-2,4.521751267E0,6.467314627E0,7.891563471E0
3.472395042E0,-9.788367641E-1,3.366039445E0,5.524196749E0,6.542560101E0
3.482429042E0,-1.341529026E0,2.957779832E0,4.981228981E0,5.946495087E0
3.492464042E0,-1.171724714E0,2.856138559E0,4.898853992E0,5.790443567E0
3.502498042E0,-4.425283903E-1,2.806916405E0,4.481313093E0,5.306296083E0
3.512532042E0,5.374953586E-1,2.774990608E0,3.629124681E0,4.600002183E0
3.522566042E0,1.390070856E0,2.386268004E0,2.364836789E0,3.635797713E0
3.532600042E0,2.089881998E0,1.620271351E0,1.066075467E0,2.851210781E0
3.542634042E0,2.670957824E0,8.928796242E-1,-7.204354405E-3,2.816256669E0
3.552668042E0,3.214098669E0,3.293700032E-1,-1.032449884E0,3.391882607E0
3.562702042E0,3.566334940E0,5.564648956E-3,-1.887543193E0,4.035045870E0
3.572737042E0,3.511736564E0,-1.351819248E-1,-2.355711039E0,4.230832347E0
3.582771042E0,3.118609545E0,-2.276329824E-1,-2.489133391E0,3.996664522E0
3.592805042E0,2.368896511E0,-3.832247597E-1,-2.562810062E0,3.510915452E0
3.602839042E0,1.261701084E0,-6.646337074E-1,-1.817905778E0,2.310499731E0
3.612873042E0,2.113856167E-1,-8.210975969E-1,-6.108328915E-1,1.044988978E0
3.622907042E0,-3.866781253E-1,-3.946677607E-1,4.068597901E-1,6.861614261E-1
3.632941042E0,-6.887663358E-1,5.413936973E-1,1.559020305E0,1.788309401E0
3.642976042E0,-1.178834344E0,1.329143454E0,3.201323088E0,3.661248727E0
3.653010042E0,-2.229315287E0,1.506293915E0,4.808302841E0,5.509858820E0
3.663044042E0,-4.276823682E0,8.020391822E-1,5.786366018E0,7.239925369E0
3.673078042E0,-6.531022965E0,-8.049984580E-1,5.999495859E0,8.904843292E0
3.683112042E0,-7.403219379E0,-2.302329469E0,5.633544944E0,9.583590496E0
3.693146042E0,-6.149112074E0,-2.969923329E0,4.513468101E0,8.185561568E0
3.703180042E0,-3.798829005E0,-2.641840152E0,2.828116947E0,5.422975813E0
3.713214042E0,-1.811273866E0,-1.974105374E0,8.586881769E-1,2.813387714E0
3.723249042E0,-6.087425119E-1,-1.949325458E0,-1.193645926E0,2.365423384E0
3.733283042E0,3.032032746E-1,-2.534713606E0,-3.052904967E0,3.979564553E0
3.743317042E0,1.718576202E0,-3.686141465E0,-4.508140118E0,6.071611845E0
3.753351042E0,2.412338399E0,-4.761052953E0,-5.348056979E0,7.555707460E0
3.763385042E0,2.381411306E0,-5.383445497E0,-5.575944023E0,8.108252399E0
3.773419042E0,2.851087149E0,-5.448440807E0,-5.427744588E0,8.202110489E0
3.783453042E0,3.973727412E0,-5.135797788E0,-5.237296681E0,8.342433996E0
3.793487042E0,4.656668167E0,-5.388005741E0,-5.096420299E0,8.757206412E0
3.803522042E0,4.903959780E0,-4.385627209E0,-5.328337829E0,8.466033992E0
3.813556042E0,5.183722737E0,-3.977726615E0,-5.883066101E0,8.792255523E0
3.823590042E0,5.588624294E0,-3.957677974E0,-6.413471711E0,9.382353427E0
3.833624042E0,5.468942900E0,-3.908248537E0,-6.242038364E0,9.173155728E0
3.843658042E0,5.043203620E0,-3.815633026E0,-5.842667103E0,8.609861614E0
3.853692042E0,4.228064336E0,-4.378425778E0,-4.980724951E0,7.864779804E0
3.863726042E0,4.986853418E0,-5.385215449E0,-3.576834201E0,8.164740985E0
3.873761042E0,6.330121406E0,-5.897569535E0,-2.353432964E0,8.966069939E0
3.883795042E0,7.410536585E0,-6.286138065E0,-1.747873676E0,9.873532632E0
3.893829042E0,8.599710560E0,-6.192956836E0,-1.176484348E0,1.066263811E1
3.903863042E0,9.606918014E0,-4.640266142E0,5.723839402E-2,1.066903088E1
3.913897042E0,9.085534074E0,-1.694591216E0,1.318410890E0,9.335779350E0
3.923931042E0,6.032878198E0,7.527265428E-1,2.201082006E0,6.465831625E0
3.933965042E0,2.945836017E0,1.588975737E0,1.993913401E0,3.895957441E0
3.943999042E0,-9.024329513E-1,3.417994880E0,-4.157019496E-1,3.559477819E0
3.954034042E0,-5.444647719E0,5.059810882E0,-5.190585029E-1,7.450858787E0
3.964068042E0,-8.197617420E0,5.213307309E0,1.156113818E0,9.783460718E0
3.974102042E0,-9.253703504E0,4.209423412E0,1.694609635E0,1.030640460E1
3.984136042E0,-8.843395026E0,3.665822683E0,2.724938149E0,9.953350162E0
3.994170042E0,-8.114491648E0,3.969953619E0,5.061469152E0,1.035490108E1
4.004204042E0,-8.154499467E0,4.486354854E0,7.663518709E0,1.205623326E1
4.014238042E0,-8.921485176E0,5.072574769E0,9.695814988E0,1.411852474E1
4.024272042E0,-1.071705284E1,5.361450026E0,1.105111128E1,1.630114807E1
4.034307042E0,-1.276898231E1,4.944519576E0,1.126079711E1,1.772852884E1
4.044341042E0,-1.336990651E1,4.445111226E0,1.035448337E1,1.748510051E1
4.054375042E0,-1.126329271E1,4.462211993E0,9.428698974E0,1.535165994E1
4.064409042E0,-9.810176586E0,3.549462215E0,8.599898840E0,1.352022584E1
4.074443042E0,-8.110307381E0,3.061642461E0,6.788750104E0,1.101080689E1
4.084477042E0,-7.034250131E0,2.407981639E0,5.098593709E0,9.015248654E0
4.094511042E0,-6.202297763E0,2.170435872E0,3.859508486E0,7.620701750E0
4.104545042E0,-5.609055051E0,2.611229393E0,2.772869530E0,6.780031190E0
4.114579375E0,-5.496526555E0,3.117941793E0,2.239246198E0,6.704296289E0
4.124613375E0,-5.472993851E0,2.909581818E0,1.976561204E0,6.505852922E0
4.134647375E0,-5.019574437E0,2.122017710E0,1.386687073E0,5.623343109E0
4.144681375E0,-4.670273468E0,1.111134988E0,7.695345104E-1,4.861919229E0
4.154715375E0,-3.670857428E0,-2.978317299E-1,7.078580797E-2,3.683599955E0
4.164749375E0,-2.449349520E0,-1.199401048E0,-9.837858474E-1,2.899260343E0
4.174783375E0,-1.333615989E0,-1.721544249E0,-1.951524011E0,2.924156661E0
4.184818375E0,-7.883420795E-1,-1.764735585E0,-2.579104498E0,3.222972995E0
4.194852375E0,-4.688373524E-1,-1.656947134E0,-3.110696508E0,3.555518954E0
4.204886375E0,7.319953859E-2,-2.059102839E0,-3.389612203E0,3.966703110E0
4.214920375E0,5.378941387E-1,-3.075427857E0,-3.425654440E0,4.634942821E0
4.224954375E0,7.687691098E-1,-4.359529624E0,-3.565350854E0,5.684033005E0
4.234988375E0,1.128258267E0,-5.399798405E0,-3.668483459E0,6.624844181E0
4.245022375E0,2.366860510E0,-5.590397755E0,-3.331649339E0,6.924916104E0
4.255056375E0,4.215332608E0,-5.343552284E0,-2.814415752E0,7.365019758E0
4.265091375E0,5.947691283E0,-5.287413751E0,-2.541150806E0,8.353994445E0
4.275125375E0,7.116738557E0,-5.263685750E0,-2.339100269E0,9.155640088E0
4.285159375E0,7.673218655E0,-5.403541793E0,-2.238666739E0,9.648221453E0
4.295193375E0,7.702826616E0,-5.843091611E0,-2.327072839E0,9.944371546E0
4.305227375E0,7.409679968E0,-6.393446167E0,-2.506409574E0,1.010255414E1
4.315261375E0,7.039861119E0,-6.896500255E0,-2.782538194E0,1.024030659E1
4.325295375E0,6.724565218E0,-7.214182405E0,-3.201793789E0,1.036897722E1
4.335329375E0,6.724232512E0,-7.627739596E0,-3.436779060E0,1.073355321E1
4.345364375E0,6.751508603E0,-7.660322621E0,-3.476214144E0,1.078644871E1
4.355398375E0,6.962759149E0,-7.402716519E0,-3.080398575E0,1.061927880E1
4.365432375E0,7.008266859E0,-6.856400051E0,-2.651999689E0,1.015672823E1
4.375466375E0,6.298237123E0,-5.173667280E0,-2.789260445E0,8.614789482E0
4.385500375E0,5.125041250E0,-2.813750923E0,-2.944252006E0,6.546133358E0
4.395534375E0,3.309271460E0,-1.228084856E0,-2.513572121E0,4.333302991E0
4.405568375E0,1.574391173E0,5.072038579E-1,-1.390049222E0,2.160601805E0
4.415603375E0,-5.485004032E-1,3.643186065E0,3.915780920E-1,3.704995384E0
4.425637375E0,-3.264511608E0,7.664441400E0,2.885558532E0,8.816300021E0
4.435671375E0,-5.564620889E0,1.209980473E1,6.206489632E0,1.469322272E1
4.445705375E0,-7.241593568E0,1.600292409E1,9.117281531E0,1.979037846E1
4.455739375E0,-8.358211198E0,1.683115997E1,1.011276766E1,2.134047118E1
4.465773375E0,-9.483930019E0,1.462284203E1,1.000134545E1,2.009475923E1
4.475807375E0,-8.759090456E0,1.348586615E1,1.136795085E1,1.969316018E1
4.485841375E0,-6.917502869E0,1.377081384E1,1.357134660E1,2.053457105E1
4.495876375E0,-6.219048867E0,1.323102345E1,1.457608185E1,2.064458070E1
4.505910375E0,-6.820197015E0,1.065441278E1,1.393835995E1,1.882311019E1
4.515944375E0,-7.227400621E0,7.124385545E0,1.256539630E1,1.615182260E1
4.525978375E0,-6.269910872E0,4.192431988E0,1.102534027E1,1.335838300E1
4.536012375E0,-4.065743875E0,2.445616658E0,9.036708069E0,1.020653745E1
4.546046375E0,-1.465493068E0,1.240936452E0,6.658639031E0,6.930012046E0
4.556080375E0,6.341454479E-1,-5.508112228E-1,4.077772767E0,4.163383743E0
4.566115375E0,2.292233520E0,-2.078953552E0,2.339390876E0,3.879321081E0
4.576149375E0,3.542294990E0,-2.946907811E0,9.410339302E-1,4.702942090E0
4.586183375E0,3.919876894E0,-3.992134447E0,-8.591433826E-1,5.660450482E0
4.596217375E0,3.329752502E0,-5.315944070E0,-2.723904654E0,6.838579505E0
4.606251375E0,2.776211799E0,-7.220409105E0,-4.328140893E0,8.864223778E0
4.616285375E0,2.127657057E0,-9.306115606E0,-5.423631656E0,1.097936667E1
4.626319375E0,1.276832070E0,-1.059840581E1,-5.789479660E0,1.214391126E1
4.636353375E0,7.466308205E-1,-1.177117601E1,-6.061723098E0,1.326131702E1
4.646388375E0,7.501933828E-2,-1.255613314E1,-6.440853637E0,1.411193477E1
4.656422375E0,-9.186924501E-1,-1.346058981E1,-6.242452347E0,1.486605816E1
4.666456375E0,-2.433104055E0,-1.447430288E1,-5.445714836E0,1.565507104E1
4.676490375E0,-4.073852209E0,-1.508000893E1,-4.576811573E0,1.627728925E1
4.686524375E0,-4.441857836E0,-1.498018526E1,-4.097733992E0,1.615324969E1
4.696558375E0,-3.609752271E0,-1.356728512E1,-3.870042245E0,1.456292430E1
4.706592375E0,-2.122347493E0,-1.174461211E1,-3.753765684E0,1.251123612E1
4.716627375E0,-3.082216474E-1,-1.009393378E1,-4.074277886E0,1.088954728E1
4.726661375E0,1.374043053E0,-8.590114110E0,-4.694836451E0,9.885319622E0
4.736695375E0,3.383344865E0,-7.362968901E0,-4.922762672E0,9.481240733E0
4.746729375E0,5.198450119E0,-6.137463251E0,-4.753585181E0,9.342853465E0
4.756763375E0,5.932282115E0,-4.563117394E0,-4.154470110E0,8.560001947E0
4.766797375E0,5.677533547E0,-3.337204193E0,-3.226733333E0,7.333698045E0
4.776831375E0,4.534282435E0,-2.891603091E0,-2.335979025E0,5.863265612E0
4.786865375E0,3.053593184E0,-2.703376542E0,-1.323051240E0,4.287556489E0
4.796900375E0,1.432340378E0,-2.527705718E0,-1.591208643E-1,2.909676031E0
4.806934375E0,2.480199576E-1,-2.263248433E0,7.884116614E-1,2.409439835E0
4.816968375E0,-2.485456588E-1,-1.700440478E0,1.383552965E0,2.206239237E0
4.827002375E0,-2.642962306E-1,-1.040606750E0,1.839067436E0,2.129526694E0
4.837036375E0,8.501157202E-3,-7.357551455E-2,2.182825829E0,2.184082010E0
4.847070375E0,5.968052018E-2,7.957195115E-1,2.169576623E0,2.311664775E0
4.857104375E0,-7.560486384E-3,1.847686232E0,2.289270297E0,2.941897359E0
4.867139375E0,9.536351915E-2,3.209357747E0,2.381683787E0,3.997685456E0
4.877173375E0,3.651073813E-1,4.370363930E0,2.294538639E0,4.949574915E0
4.887207375E0,9.129420058E-1,5.312160922E0,1.846820844E0,5.697654254E0
4.897241375E0,2.029883572E0,6.170871903E0,1.073996691E0,6.584341747E0
4.907275375E0,3.254523687E0,6.849650025E0,1.397718430E-1,7.584798353E0
4.917309375E0,4.113461248E0,7.322826596E0,-6.136594355E-1,8.421456566E0
4.927343375E0,4.677471098E0,7.607624590E0,-9.027505282E-1,8.976059619E0
4.937377375E0,4.654238064E0,7.492137403E0,-7.130573507E-1,8.848870301E0
4.947412375E0,2.982870234E0,6.810260841E0,-1.035448337E-1,7.435582633E0
4.957446375E0,7.220422554E-1,6.334679310E0,5.855122550E-1,6.402525407E0
4.967480375E0,-1.154373175E0,6.169222988E0,1.224742661E0,6.394676246E0
4.977514375E0,-3.308260476E0,5.687273839E0,1.174271761E0,6.683456087E0
4.987548375E0,-4.683761533E0,4.523807148E0,3.621439393E-1,6.521779009E0
4.997582375E0,-5.334749300E0,2.806079961E0,-5.477085440E-1,6.052571313E0
5.007616375E0,-5.367497216E0,5.930696350E-1,-1.819358811E0,5.698405430E0
5.017651375E0,-4.366351863E0,-1.311705887E0,-2.253389151E0,5.085603562E0
5.027685375E0,-2.526129017E0,-1.405558376E0,-1.509618934E0,3.261268386E0
5.037719375E0,-1.272208676E0,-1.102449827E0,-2.557823557E0,3.062086198E0
5.047753375E0,-1.734887303E0,-1.861697915E0,-3.732202907E0,4.517199533E0
5.057787375E0,-2.686478673E0,-2.343473986E0,-4.798346786E0,5.977722800E0
5.067821375E0,-3.291548841E0,-2.527267762E0,-5.351013916E0,6.771611776E0
5.077855375E0,-3.433509005E0,-2.991403953E0,-5.430359462E0,7.087050556E0
5.087889375E0,-2.790586594E0,-3.468872380E0,-5.040649556E0,6.725220968E0
5.097924375E0,-1.505477205E0,-3.870979553E0,-4.284391733E0,5.967156512E0
5.107958375E0,-1.473550969E-1,-4.488516862E0,-3.433400831E0,5.653029136E0
5.117991917E0,8.969807151E-1,-5.200701882E0,-2.937884388E0,6.040119133E0
5.128025917E0,1.724935488E0,-5.738718227E0,-2.788491536E0,6.609385325E0
5.138059917E0,2.276979011E0,-6.193072026E0,-2.742240061E0,7.145533926E0
5.148093917E0,2.477136074E0,-6.514281217E0,-2.511390817E0,7.408046081E0
5.158127917E0,2.248929772E0,-6.686226779E0,-2.126538777E0,7.367868134E0
5.168162917E0,1.867230843E0,-6.676363111E0,-1.876456872E0,7.182023796E0
5.178196917E0,1.884674403E0,-6.341691291E0,-1.820195548E0,6.861643963E0
5.188230917E0,2.328316980E0,-5.910163268E0,-1.511602895E0,6.529627334E0
5.198264917E0,3.033604478E0,-5.214028856E0,-8.553149182E-1,6.092652677E0
5.208298917E0,3.540365117E0,-4.011405700E0,-1.390415988E-1,5.352092433E0
5.218332917E0,3.410024832E0,-2.581849181E0,3.842619096E-1,4.294400047E0
5.228366917E0,3.154674586E0,-8.824150085E-1,1.077276832E0,3.448355168E0
5.238400917E0,3.253571468E0,1.461902146E0,1.460687533E0,3.854412180E0
5.248435917E0,4.059918294E0,4.418974757E0,1.420619634E0,6.166719923E0
5.258469917E0,4.582580144E0,6.493696679E0,1.623970007E0,8.112053742E0
5.268503917E0,5.244995125E0,8.586471294E0,2.407527895E0,1.034570702E1
5.278537917E0,6.023747186E0,1.125911312E1,4.188116743E0,1.343850736E1
5.288571917E0,6.614364499E0,1.451287696E1,6.101311086E0,1.707628216E1
5.298605917E0,6.691553008E0,1.702041446E1,7.344625016E0,1.970824464E1
5.308639917E0,5.632570213E0,1.846702497E1,7.745931705E0,2.080279588E1
5.318674917E0,3.146302543E0,1.851786885E1,8.294868895E0,2.053327875E1
5.328708917E0,-1.765575245E0,1.519484824E1,8.350592276E0,1.742793908E1
5.338742917E0,-5.693971825E0,1.267326456E1,7.442983954E0,1.576169280E1
5.348776917E0,-7.109106771E0,1.059110615E1,6.070206238E0,1.412651168E1
5.358810917E0,-6.801025164E0,7.873411531E0,4.091255862E0,1.117957633E1
5.368844917E0,-4.620811578E0,5.535282485E0,2.306745286E0,7.570490449E0
5.378878917E0,-1.669558847E0,3.361043876E0,7.758247988E-1,3.832224785E0
5.388913917E0,2.901241861E-1,6.649646598E-1,-3.064445324E-1,7.875647869E-1
5.398947917E0,1.751388876E0,-1.638644180E0,-7.775897808E-1,2.521341629E0
5.408981917E0,2.186216484E0,-4.001636757E0,-7.908148670E-1,4.627961473E0
5.419015917E0,2.092199249E0,-6.190176485E0,-8.276382923E-1,6.586392621E0
5.429049917E0,1.901124667E0,-7.994043099E0,-1.230751187E0,8.308655038E0
5.439083917E0,1.407501114E0,-9.545383086E0,-1.780901966E0,9.811575279E0
5.449117917E0,1.117394287E0,-1.056920482E1,-2.137600540E0,1.084094076E1
5.459151917E0,7.557840519E-1,-1.145045857E1,-2.363917022E0,1.171632684E1
5.469186917E0,1.327017552E-1,-1.202191982E1,-2.453113958E0,1.227036813E1
5.479220917E0,-2.572922164E-1,-1.233373546E1,-2.254347071E0,1.254070614E1
5.489254917E0,-2.134433249E-1,-1.276199606E1,-1.939441764E0,1.291028798E1
5.499288917E0,-3.841848725E-1,-1.313239729E1,-1.649768361E0,1.324119301E1
5.509322917E0,-5.158018962E-1,-1.339322053E1,-1.759049167E0,1.351808647E1
5.519356917E0,-4.447750367E-1,-1.386558551E1,-1.910473634E0,1.400364937E1
5.529390917E0,-3.565591174E-1,-1.438668118E1,-1.981105660E0,1.452682035E1
5.539425917E0,-2.457263142E-1,-1.455002432E1,-1.895586623E0,1.467504132E1
5.549459917E0,-9.045262545E-2,-1.452124900E1,-1.591163034E0,1.460844461E1
5.559493917E0,-1.186341584E-2,-1.384292755E1,-8.985720348E-1,1.387206601E1
5.569527917E0,5.312838614E-1,-1.154009171E1,1.756497735E-1,1.155365016E1
5.579561917E0,1.989404760E0,-8.492679616E0,1.298849614E0,8.818749837E0
5.589595917E0,2.236054203E0,-6.794810159E0,1.936428255E0,7.410744759E0
5.599629917E0,1.476627774E0,-4.730406234E0,2.406671863E0,5.509014628E0
5.609664917E0,5.337125024E-1,-2.100235662E0,3.026398369E0,3.722220569E0
5.619698917E0,-5.845069724E-1,8.161058289E-1,3.887951097E0,4.015450268E0
5.629732917E0,-2.278556736E0,3.580896261E0,4.773318365E0,6.387425698E0
5.639766917E0,-3.977452673E0,5.135753349E0,4.614514419E0,7.968050926E0
5.649800917E0,-5.075854472E0,6.168837656E0,3.860843990E0,8.872709449E0
5.659834917E0,-5.521752613E0,7.939418410E0,3.268819252E0,1.020829545E1
5.669868917E0,-5.849451628E0,1.008658266E1,2.756511360E0,1.198138510E1
5.679902917E0,-6.421504616E0,1.207496810E1,2.604674957E0,1.392210141E1
5.689937917E0,-6.760505129E0,1.387361841E1,3.217832701E0,1.576502980E1
5.699971917E0,-6.239352738E0,1.570919974E1,3.824462614E0,1.733017580E1
5.710005917E0,-5.199363454E0,1.700301315E1,4.253917215E0,1.828200339E1
5.720039917E0,-3.492541032E0,1.689407016E1,3.253649236E0,1.755544596E1
5.730073917E0,-2.791434148E0,1.472938766E1,1.631044554E0,1.508002890E1
5.740107917E0,-2.992823072E0,1.238312104E1,3.943058181E-1,1.274575042E1
5.750141917E0,-1.764024125E0,1.186036476E1,1.239937162E-1,1.199147229E1
5.760176917E0,-1.173323489E0,1.095059765E1,2.604145199E-1,1.101635568E1
5.770210917E0,-7.478751080E-1,9.690098750E0,6.646407241E-1,9.741615793E0
5.780244917E0,-5.140427613E-1,7.688486320E0,5.158670926E-1,7.722899760E0
5.790278917E0,-3.519727077E-1,5.435602661E0,-2.565582812E-1,5.453025144E0
5.800312917E0,-7.868656576E-2,3.231970099E0,-1.183628476E0,3.442789373E0
5.810346917E0,1.652326664E-1,1.262910288E0,-2.117077982E0,2.470680759E0
5.820380917E0,1.856651768E-1,-5.800274205E-1,-2.967546144E0,3.029394903E0
5.830415917E0,5.896273792E-2,-2.151625087E0,-3.713123442E0,4.291882199E0
5.840449917E0,7.198083267E-2,-3.214373488E0,-4.271492191E0,5.346309353E0
5.850483917E0,-3.001393336E-1,-4.768688539E0,-4.774488977E0,6.754718277E0
5.860517917E0,-6.238239428E-1,-5.892061458E0,-5.156354844E0,7.854523525E0
5.870551917E0,-6.484642558E-1,-6.581674470E0,-5.301428357E0,8.476089154E0
5.880585917E0,-4.902160884E-1,-7.209149122E0,-5.364880587E0,8.999671472E0
5.890619917E0,-2.089865041E-1,-7.591398566E0,-5.293805927E0,9.257288412E0
5.900653917E0,1.534774241E-1,-7.919104598E0,-5.133434343E0,9.438639792E0
5.910688917E0,5.570756373E-1,-8.187369005E0,-4.817083020E0,9.515652017E0
5.920722917E0,9.430535585E-1,-8.326826853E0,-4.482953237E0,9.503802669E0
5.930756917E0,1.400393823E0,-8.201621593E0,-4.268725873E0,9.351455512E0
5.940790917E0,1.604930011E0,-8.631764996E0,-3.969389947E0,9.635311300E0
5.950824917E0,1.027359006E0,-9.667200469E0,-3.743519023E0,1.041749327E1
5.960858917E0,6.585916333E-1,-1.015002378E1,-3.265509728E0,1.068270937E1
5.970892917E0,6.745285119E-1,-1.007030518E1,-2.708323871E0,1.044993078E1
5.980927917E0,1.273360578E0,-9.463852435E0,-2.322388342E0,9.827483792E0
5.990961917E0,2.305067427E0,-8.640683754E0,-2.028485356E0,9.170032957E0
6.000995917E0,2.894296319E0,-8.041574530E0,-1.873787034E0,8.749568558E0
6.011029917E0,3.182041894E0,-6.895113296E0,-1.394452321E0,7.720911556E0
6.021063917E0,3.280556076E0,-5.378429171E0,-6.806091776E-1,6.336621921E0
6.031097917E0,3.292498137E0,-3.660474527E0,-1.106117785E-2,4.923387055E0
6.041131917E0,3.281043441E0,-1.563689892E0,3.989910458E-1,3.656441712E0
6.051166917E0,2.874820998E0,6.787442082E-1,7.863339995E-1,3.056732018E0
6.061200917E0,1.970824062E0,3.105742162E0,1.587841085E0,4.006372570E0
6.071234917E0,6.588091497E-1,5.371764514E0,2.285506445E0,5.874812610E0
6.081268917E0,-6.888217382E-1,7.210293422E0,2.495426749E0,7.660937363E0
6.091302917E0,-9.669182383E-1,9.808555738E0,2.649510237E0,1.020600809E1
6.101336917E0,-1.999353066E-2,1.309089258E1,3.087680113E0,1.345011661E1
6.111370917E0,6.463852783E-1,1.566288160E1,3.781258707E0,1.612580514E1
6.121405875E0,4.858160587E-1,1.693988661E1,4.815547541E0,1.761775450E1
6.131439875E0,-8.241662157E-1,1.627433079E1,5.994668398E0,1.736286675E1
6.141473875E0,-1.332067793E0,1.560695065E1,6.526188487E0,1.696886706E1
6.151507875E0,-3.916216537E-1,1.549342228E1,6.024223734E0,1.662801170E1
6.161541875E0,-9.249228045E-2,1.443962187E1,4.575794157E0,1.514757825E1
6.171575875E0,-3.363252662E-1,1.291155731E1,3.020107350E0,1.326433094E1
6.181609875E0,-8.409493326E-1,1.103095827E1,2.355280246E0,1.131090541E1
6.191643875E0,-1.586102854E0,8.651657224E0,2.354709265E0,9.105577999E0
6.201678875E0,-1.674509831E0,6.303563352E0,2.477202732E0,6.976777729E0
6.211712875E0,-1.100702021E0,4.005066149E0,2.400233932E0,4.797209889E0
6.221746875E0,-9.146479310E-1,1.286879194E0,2.201756775E0,2.709312052E0
6.231780875E0,-7.122015376E-1,-9.771363938E-1,2.376479765E0,2.666398814E0
6.241814875E0,-5.978044910E-1,-3.011224844E0,2.418322440E0,3.908085042E0
6.251848875E0,-4.095584994E-1,-4.560345229E0,2.590177663E0,5.260561481E0
6.261882875E0,-4.161404908E-1,-5.972233216E0,2.360707193E0,6.435346218E0
6.271917875E0,-2.028605955E-1,-7.037363189E0,1.578970420E0,7.215177105E0
6.281951875E0,-2.527893852E-1,-7.800420738E0,3.458400017E-1,7.812174568E0
6.291985875E0,-5.394456974E-1,-8.326405268E0,-4.858770159E-1,8.357996340E0
6.302019875E0,-1.053667968E0,-9.097903274E0,-1.832554223E0,9.340252413E0
6.312053875E0,-1.017670316E0,-9.062520018E0,-3.555764928E0,9.788175835E0
6.322087875E0,-1.724804364E-1,-8.496020715E0,-5.288364508E0,1.000894184E1
6.332121875E0,2.130188902E-1,-8.424935530E0,-7.163766543E0,1.106094331E1
6.342156875E0,1.865451828E-1,-8.250452861E0,-8.805136110E0,1.206794073E1
6.352190875E0,1.211431986E-1,-8.081718004E0,-9.508570771E0,1.247965383E1
6.362224875E0,5.076973629E-1,-7.886276575E0,-9.223751142E0,1.214613930E1
6.372258875E0,7.044960769E-1,-7.644713479E0,-8.166611390E0,1.120854587E1
6.382292875E0,1.120718721E0,-7.431681871E0,-6.797754232E0,1.013387233E1
6.392326875E0,1.343029129E0,-7.286079769E0,-5.607185111E0,9.291459009E0
6.402360875E0,1.466073404E0,-7.274687639E0,-4.348638600E0,8.601227188E0
6.412395875E0,1.954492058E0,-7.078988932E0,-3.176496980E0,8.001390915E0
6.422429875E0,2.611064209E0,-6.580871063E0,-2.105552682E0,7.386397792E0
6.432463875E0,3.284185150E0,-5.929369032E0,-9.876727840E-1,6.849728955E0
6.442497875E0,3.763499251E0,-4.982855676E0,4.763349447E-1,6.262561160E0
6.452531875E0,3.251053657E0,-3.615780750E0,2.228011943E0,5.348575280E0
6.462565875E0,1.873883220E0,-2.385701993E0,3.742773503E0,4.817817537E0
6.472599875E0,4.957837706E-1,-1.244117337E0,5.189419679E0,5.359450168E0
6.482634875E0,-7.022388323E-1,6.543507940E-1,5.889830160E0,5.967529946E0
6.492668875E0,-2.852463584E0,1.461982838E0,5.460165060E0,6.331456767E0
6.502702875E0,-5.252823377E0,1.500960377E0,4.399161467E0,7.014104155E0
6.512736875E0,-6.774163640E0,1.840870718E0,3.258877231E0,7.739404294E0
6.522770875E0,-7.051209396E0,2.680640228E0,1.635079863E0,7.718735138E0
6.532804875E0,-5.420226238E0,3.754497755E0,2.774176383E-1,6.599398943E0
6.542838875E0,-2.460625876E0,5.309207493E0,-8.230480818E-1,5.909295394E0
6.552872875E0,1.030402774E0,7.223000007E0,-2.204972743E0,7.622031473E0
6.562907875E0,4.410929281E0,8.940254154E0,-3.196603800E0,1.046913164E1
6.572941875E0,6.587436901E0,1.005175430E1,-3.646009685E0,1.255888037E1
6.582975875E0,6.954339743E0,1.057650682E1,-3.396204354E0,1.310570646E1
6.593009875E0,4.842495311E0,9.730765550E0,-1.843767575E0,1.102438379E1
6.603043875E0,1.930307097E0,8.617397802E0,5.629155439E-1,8.848870226E0
6.613077875E0,-7.216607977E-1,7.544530794E0,2.841590686E0,8.094156957E0
6.623111875E0,-2.808350435E0,6.518170200E0,4.286050296E0,8.291176157E0
6.633146875E0,-4.160846791E0,4.815299034E0,4.643369259E0,7.877856871E0
6.643180875E0,-5.535755525E0,2.054102300E0,4.026931227E0,7.147034392E0
6.653214875E0,-6.176886349E0,-2.962708157E-1,2.917859429E0,6.837807032E0
6.663248875E0,-5.771209450E0,-1.455143934E0,1.558110479E0,6.152398772E0
6.673282875E0,-3.942368794E0,-1.639870341E0,-1.738517547E-1,4.273367627E0
6.683316875E0,-3.094628359E0,-3.093920261E0,-1.995042206E0,4.809288998E0
6.693350875E0,-2.645542901E0,-4.153898252E0,-3.637954561E0,6.122783788E0
6.703385875E0,-1.165255793E0,-4.269212362E0,-4.732585783E0,6.479302698E0
6.713419875E0,3.140967835E-1,-4.420376335E0,-5.490056026E0,7.055430455E0
6.723453875E0,1.325504732E0,-4.902128432E0,-6.083323882E0,7.924307882E0
6.733487875E0,1.977935592E0,-5.569496298E0,-6.284842322E0,8.627326424E0
6.743521875E0,2.400577894E0,-6.218202190E0,-6.128664361E0,9.054796494E0
6.753555875E0,2.604310091E0,-6.757031883E0,-5.819950086E0,9.290410643E0
6.763589875E0,2.596813960E0,-7.302630313E0,-5.496411365E0,9.501704590E0
6.773623875E0,2.781095393E0,-7.427252020E0,-4.976640086E0,9.362986207E0
6.783658875E0,2.718108017E0,-7.473229262E0,-4.449722048E0,9.112480074E0
6.793692875E0,2.333206276E0,-7.754481504E0,-3.951710598E0,9.010652117E0
6.803726875E0,1.986631571E0,-7.889379108E0,-3.339103954E0,8.794238052E0
6.813760875E0,1.571300043E0,-7.729186449E0,-2.636301084E0,8.316212503E0
6.823794875E0,1.052519575E0,-7.414294590E0,-2.013274117E0,7.754536376E0
6.833828875E0,9.252853319E-1,-6.872236649E0,-1.610709107E0,7.118860396E0
6.843862875E0,1.446888105E0,-6.110188329E0,-1.392557677E0,6.431726323E0
6.853897875E0,2.287557502E0,-5.069555851E0,-1.318681031E0,5.715963218E0
6.863931875E0,3.060682349E0,-3.751060177E0,-1.247638822E0,4.999483126E0
6.873965875E0,3.926173761E0,-1.950921748E0,-1.158368212E0,4.534617181E0
6.883999875E0,4.716016236E0,3.711461663E-1,-8.433924454E-1,4.805191925E0
6.894033875E0,5.193098162E0,2.922674611E0,-1.620140666E-1,5.961253556E0
6.904067875E0,5.454206162E0,5.373656673E0,8.275008827E-1,7.701253704E0
6.914101875E0,6.515888032E0,8.551964536E0,2.206817832E0,1.097556100E1
6.924136875E0,7.027895962E0,1.182736892E1,4.225425195E0,1.439208794E1
6.934170875E0,5.583478160E0,1.447779951E1,6.721735166E0,1.691045921E1
6.944204875E0,2.648137895E0,1.564992768E1,9.325360547E0,1.840910699E1
6.954238875E0,7.079530969E-2,1.598407969E1,1.154431457E1,1.971717561E1
6.964272875E0,-1.792333858E0,1.603850323E1,1.281941455E1,2.061027501E1
6.974306875E0,-2.924279087E0,1.582468225E1,1.335206081E1,2.091051181E1
6.984340875E0,-3.957061385E0,1.435186218E1,1.297409211E1,1.974743905E1
6.994375875E0,-4.215022706E0,1.252721398E1,1.186679436E1,1.776283521E1
7.004409875E0,-3.156691875E0,1.147471633E1,1.034343213E1,1.576770137E1
7.014443875E0,-2.234074920E0,9.794800163E0,8.341663578E0,1.305804550E1
7.024477875E0,-1.997671115E0,7.466374571E0,6.172475794E0,9.891253537E0
7.034511875E0,-1.615366853E0,5.204569815E0,4.218294808E0,6.891369103E0
7.044545875E0,-9.991349347E-1,3.126182274E0,2.674263840E0,4.233553272E0
7.054579875E0,-6.005733669E-1,1.208161638E0,1.336530241E0,1.899119796E0
7.064614875E0,-4.495946042E-1,-5.510486197E-1,2.455818880E-1,7.523964069E-1
7.074648875E0,-5.045867904E-1,-2.161470628E0,-4.632848364E-1,2.267420549E0
7.084682875E0,-8.403511624E-1,-3.690609323E0,-1.173027693E0,3.962673494E0
7.094716875E0,-1.323950249E0,-5.183370734E0,-1.878018079E0,5.669843767E0
7.104750875E0,-1.783804232E0,-6.644323878E0,-2.421985136E0,7.293490888E0
7.114785792E0,-2.059539334E0,-8.173126357E0,-2.845269755E0,8.895912359E0
7.124819792E0,-1.979099042E0,-9.530317150E0,-3.218559510E0,1.025197070E1
7.134854792E0,-1.555007069E0,-1.029828812E1,-3.401990173E0,1.095656526E1
7.144888792E0,-8.199095888E-1,-1.062469256E1,-3.469099252E0,1.120673874E1
7.154922792E0,-3.987675360E-1,-1.141617635E1,-3.653613405E0,1.199320594E1
7.164956792E0,-4.769683443E-1,-1.227410906E1,-3.907531083E0,1.288992053E1
7.174990792E0,-6.101499367E-1,-1.280727807E1,-4.030935985E0,1.344050220E1
7.185024792E0,-9.675343886E-1,-1.336690806E1,-4.169519089E0,1.403549940E1
7.195058792E0,-1.098015444E0,-1.427635124E1,-5.048440386E0,1.518244357E1
7.205093792E0,2.027103952E-1,-1.357154190E1,-5.835531746E0,1.477434505E1
7.215127792E0,1.363036839E0,-1.293386327E1,-6.316983297E0,1.445845657E1
7.225161792E0,1.785159470E0,-1.274050637E1,-6.759487129E0,1.453265162E1
7.235195792E0,1.923547716E0,-1.212492437E1,-6.976573781E0,1.412042523E1
7.245229792E0,2.087123866E0,-1.112104749E1,-6.855829947E0,1.323012425E1
7.255263792E0,2.059001098E0,-1.019828085E1,-6.356948431E0,1.219242433E1
7.265297792E0,1.820035919E0,-9.148776973E0,-5.513351333E0,1.083557538E1
7.275332792E0,1.867808256E0,-7.710543187E0,-4.589132826E0,9.165223620E0
7.285366792E0,2.003217199E0,-5.810378779E0,-3.392671466E0,7.020227943E0
7.295400792E0,1.579120401E0,-4.029346712E0,-1.777888604E0,4.678690421E0
7.305434792E0,1.218544832E0,-1.958161771E0,-2.827380198E-1,2.323615677E0
7.315468792E0,7.247044927E-1,3.049907684E-1,8.478105285E-1,1.156286583E0
7.325502792E0,-2.774796188E-3,2.849345849E0,1.738036321E0,3.337596398E0
7.335536792E0,-7.706864119E-1,5.717640184E0,2.488658597E0,6.283214817E0
7.345571792E0,-1.623152567E0,8.690192714E0,3.244645109E0,9.417101228E0
7.355605792E0,-2.742589724E0,1.150264497E1,4.184710740E0,1.254370136E1
7.365639792E0,-4.094018379E0,1.385799465E1,5.629491654E0,1.550793921E1
7.375673792E0,-5.480098218E0,1.578371432E1,7.305599529E0,1.823537492E1
7.385707792E0,-7.665027291E0,1.666339283E1,8.250136526E0,2.011183872E1
7.395741792E0,-9.819243279E0,1.678096045E1,8.741228966E0,2.131729946E1
7.405775792E0,-1.117382680E1,1.644626466E1,8.756453946E0,2.172577990E1
7.415810792E0,-1.156668835E1,1.550078392E1,8.305022585E0,2.104841994E1
7.425844792E0,-1.106029609E1,1.383099806E1,7.531385084E0,1.924443863E1
7.435878792E0,-9.592131575E0,1.174243344E1,6.645498583E0,1.655464837E1
7.445912792E0,-7.932402921E0,9.168176866E0,5.678396596E0,1.338740718E1
7.455946792E0,-6.222868853E0,6.304452129E0,4.823431926E0,1.008641210E1
7.465980792E0,-4.352246625E0,3.822580980E0,3.994068121E0,7.036103764E0
7.476014792E0,-2.508252617E0,1.749928388E0,3.050184842E0,4.319399047E0
7.486049792E0,-1.089090985E0,1.864677072E-3,1.920337302E0,2.207672531E0
7.496083792E0,-1.082898492E-1,-1.576697608E0,6.323003590E-1,1.702206151E0
7.506117792E0,6.492657629E-1,-2.912349012E0,-8.411398056E-1,3.100135315E0
7.516151792E0,1.398374195E0,-4.067978681E0,-2.461288657E0,4.955990596E0
7.526185792E0,2.179988760E0,-5.066020040E0,-3.954138070E0,6.786171079E0
7.536219792E0,2.801613858E0,-5.895318357E0,-5.195489089E0,8.342477187E0
7.546253792E0,3.378515064E0,-6.558704853E0,-6.259955987E0,9.675640669E0
7.556288792E0,3.775465286E0,-7.056480660E0,-7.121586483E0,1.071284516E1
7.566322792E0,3.774054645E0,-7.422509344E0,-7.585182976E0,1.126375311E1
7.576356792E0,3.526796945E0,-7.680540538E0,-7.753806735E0,1.146954744E1
7.586390792E0,2.960784131E0,-8.016944304E0,-7.840174204E0,1.159767089E1
7.596424792E0,2.104165284E0,-8.283897180E0,-7.661428329E0,1.147815090E1
7.606458792E0,1.226306718E0,-8.304668829E0,-7.300187346E0,1.112493091E1
7.616492792E0,5.673094341E-1,-8.079466826E0,-6.906260428E0,1.064406207E1
7.626527792E0,1.414748445E-1,-7.782956859E0,-6.590701987E0,1.019959731E1
7.636561792E0,-7.532675564E-2,-7.555174481E0,-6.197110114E0,9.771924545E0
7.646595792E0,2.046347138E-1,-7.161286739E0,-5.691123061E0,9.149578395E0
7.656629792E0,8.806295612E-1,-6.464980418E0,-4.987852707E0,8.212804324E0
7.666663792E0,1.573085783E0,-5.740628513E0,-4.036659240E0,7.191942186E0
7.676697792E0,2.204855507E0,-4.967718989E0,-2.809929183E0,6.118441123E0
7.686731792E0,2.761844020E0,-3.840985676E0,-1.591301175E0,4.991311730E0
7.696766792E0,2.575706096E0,-2.697601247E0,-4.938423854E-1,3.762338991E0
7.706800792E0,1.933637086E0,-1.627305259E0,7.783678991E-1,2.644415129E0
7.716834792E0,1.749528146E0,-1.729512835E-1,2.263779653E0,2.866262235E0
7.726868792E0,1.928919261E0,1.433848375E0,3.733481400E0,4.440217792E0
7.736902792E0,1.940381850E0,2.904247110E0,4.826604041E0,5.957838498E0
7.746936792E0,1.753243175E0,4.447032037E0,5.426763425E0,7.231854315E0
7.756970792E0,1.587096588E0,6.144093994E0,5.770559825E0,8.577186443E0
7.767005792E0,1.392246020E0,7.826955403E0,6.071911286E0,1.000338375E1
7.777039792E0,1.132365351E0,9.353128390E0,6.380925524E0,1.137890471E1
7.787073792E0,8.361664563E-1,1.042054872E1,6.955469425E0,1.255649493E1
7.797107792E0,3.425602984E-1,1.074253734E1,7.510302948E0,1.311198331E1
7.807141792E0,4.057879955E-2,1.056546728E1,7.675772134E0,1.305941129E1
7.817175792E0,3.368993166E-1,1.051122617E1,7.302826195E0,1.280354041E1
7.827209792E0,4.793208253E-1,1.011700455E1,6.526467399E0,1.204899607E1
7.837244792E0,3.229007900E-1,9.310386413E0,5.317538021E0,1.072677821E1
7.847278792E0,-3.859747052E-3,8.250583254E0,3.930994205E0,9.139193310E0
7.857312792E0,-5.342475227E-1,6.857353147E0,2.444229113E0,7.299518378E0
7.867346792E0,-8.359205809E-1,5.274276227E0,1.060703557E0,5.444432475E0
7.877380792E0,-7.353090030E-1,3.719351311E0,3.759284578E-2,3.791525647E0
7.887414792E0,-4.665719949E-1,2.129936010E0,-4.637070054E-1,2.229201879E0
7.897448792E0,-9.782187134E-2,6.314823335E-1,-4.757331200E-1,7.966561727E-1
7.907483792E0,4.588715042E-1,-5.978251755E-1,-2.305323243E-1,7.881009773E-1
7.917517792E0,1.018285735E0,-1.550658202E0,-1.231933786E-1,1.859199642E0
7.927551792E0,1.435378445E0,-2.497275639E0,-2.170062527E-1,2.888561685E0
7.937585792E0,1.749407401E0,-3.358669322E0,-3.594290771E-1,3.803981484E0
7.947619792E0,1.856134582E0,-4.090095189E0,-5.297023357E-1,4.522687122E0
7.957653792E0,1.786401711E0,-4.680055275E0,-6.164900726E-1,5.047198080E0
7.967687792E0,1.491383369E0,-5.215775419E0,-6.054908752E-1,5.458494002E0
7.977722792E0,1.056298631E0,-5.740427953E0,-5.509129643E-1,5.862745515E0
7.987756792E0,6.986408213E-1,-6.207807595E0,-6.312896678E-1,6.278813644E0
7.997790792E0,3.780115284E-1,-6.560009367E0,-6.344989121E-1,6.601454724E0
8.007824792E0,-4.438285187E-2,-6.843721533E0,-5.211804575E-1,6.863681470E0
8.017858792E0,-5.606468242E-1,-7.031822367E0,-3.897900134E-1,7.064898224E0
8.027892792E0,-1.042465434E0,-7.243369367E0,-3.702416021E-1,7.327360563E0
8.037926792E0,-1.276590872E0,-7.439356926E0,-5.574840653E-1,7.568652734E0
8.047961792E0,-1.222472553E0,-7.468193640E0,-8.474714631E-1,7.614890890E0
8.057995792E0,-8.272153924E-1,-7.228334422E0,-1.228043633E0,7.378427677E0
8.068029792E0,-3.416174349E-1,-7.032714068E0,-1.693414172E0,7.241783012E0
8.078063792E0,-4.106587261E-2,-6.927996867E0,-2.146577770E0,7.253042336E0
8.088097792E0,8.966734439E-2,-6.732951880E0,-2.552092701E0,7.200962324E0
8.098131792E0,-3.677021563E-2,-6.320759429E0,-2.895226611E0,6.952387283E0
8.108165792E0,-4.057042341E-1,-5.845291334E0,-2.983036587E0,6.574993079E0
8.118200542E0,-7.932150029E-1,-5.153233016E0,-2.872556956E0,5.952863514E0
8.128234542E0,-1.010076245E0,-4.219011092E0,-2.785503609E0,5.155515393E0
8.138268542E0,-1.422265626E0,-3.206651071E0,-2.565537788E0,4.345967642E0
8.148302542E0,-1.787325571E0,-1.835594775E0,-2.325008479E0,3.459711737E0
8.158336542E0,-1.977875658E0,-7.332291484E-2,-2.246837638E0,2.994269150E0
8.168370542E0,-2.222365286E0,1.734592311E0,-2.170595793E0,3.557977522E0
8.178404542E0,-2.316584834E0,3.554915328E0,-1.881922849E0,4.641726176E0
8.188439542E0,-2.025714361E0,5.611383997E0,-1.315177379E0,6.109078537E0
8.198473542E0,-1.847715907E0,7.504489646E0,-5.179013389E-1,7.745943501E0
8.208507542E0,-1.995391724E0,8.993819327E0,2.472904444E-1,9.215830227E0
8.218541542E0,-2.084105826E0,1.003431790E1,1.012076431E0,1.029831693E1
8.228575542E0,-1.740061796E0,1.113841489E1,1.749158310E0,1.140840287E1
8.238609542E0,-1.093569806E0,1.205631080E1,2.362622448E0,1.233420082E1
8.248643542E0,-7.518209553E-1,1.255045081E1,2.590339338E0,1.283701321E1
8.258678542E0,-1.121049673E0,1.251943952E1,2.433562038E0,1.280294273E1
8.268712542E0,-2.074083260E0,1.173816380E1,2.289659137E0,1.213790961E1
8.278746542E0,-3.334609784E0,1.045906667E1,2.453495196E0,1.124861487E1
8.288780542E0,-4.528574967E0,8.740841880E0,2.930682372E0,1.027128070E1
8.298814542E0,-5.248878261E0,6.626371756E0,3.468456643E0,9.137270771E0
8.308848542E0,-5.413389089E0,4.531222002E0,3.734215518E0,7.986308270E0
8.318882542E0,-5.122415265E0,2.622669178E0,3.517953324E0,6.744888980E0
8.328917542E0,-4.443526923E0,9.574347854E-1,2.615286484E0,5.244171649E0
8.338951542E0,-3.143159080E0,-4.574323583E-1,1.136224367E0,3.373380971E0
8.348985542E0,-1.360194946E0,-1.740601494E0,-7.314165115E-1,2.326970986E0
8.359019542E0,4.874312058E-1,-2.891107247E0,-2.627936350E0,3.937275677E0
8.369053542E0,1.937212074E0,-3.907710593E0,-4.263659261E0,6.099326437E0
8.379087542E0,2.908328467E0,-4.740949348E0,-5.489789393E0,7.814906447E0
8.389121542E0,3.493344147E0,-5.405712279E0,-6.280865046E0,8.993021978E0
8.399156542E0,3.791464437E0,-5.928066273E0,-6.628863255E0,9.667419530E0
8.409190542E0,3.870486633E0,-6.377905437E0,-6.599585661E0,9.960566020E0
8.419224542E0,3.804567463E0,-6.745343299E0,-6.198296514E0,9.919338157E0
8.429258542E0,3.586388551E0,-7.093214623E0,-5.495093402E0,9.662915090E0
8.439292542E0,3.207277892E0,-7.409720314E0,-4.622812788E0,9.303815598E0
8.449326542E0,2.738746057E0,-7.686702919E0,-3.781506629E0,8.993660218E0
8.459360542E0,2.302250093E0,-7.813800337E0,-3.001867253E0,8.681419135E0
8.469395542E0,1.891921003E0,-7.704065641E0,-2.430449419E0,8.296931774E0
8.479429542E0,1.286862676E0,-7.456291632E0,-2.081427947E0,7.847588340E0
8.489463542E0,7.157766715E-1,-7.365676746E0,-1.850914480E0,7.628329738E0
8.499497542E0,3.285350208E-1,-7.099901499E0,-1.514660550E0,7.267099362E0
8.509531542E0,1.262774925E-1,-6.667233853E0,-1.175226758E0,6.771197176E0
8.519565542E0,2.282991265E-1,-6.053773808E0,-7.864423192E-1,6.108910650E0
8.529600542E0,7.773718259E-1,-4.913886014E0,-3.282825673E-1,4.985815094E0
8.539634542E0,9.899404804E-1,-3.479858129E0,1.450945634E-1,3.620835150E0
8.549668542E0,7.346257558E-1,-1.828529000E0,6.867730200E-1,2.086827852E0
8.559702542E0,4.867030813E-1,4.990154171E-1,1.137310780E0,1.333931065E0
8.569736542E0,2.826460724E-1,2.915459146E0,1.373707862E0,3.235253333E0
8.579770542E0,1.072460481E0,5.930489359E0,1.256933264E0,6.156359050E0
8.589804542E0,2.639020332E0,9.631181620E0,8.205496397E-1,1.001984977E1
8.599839542E0,3.910089240E0,1.305326107E1,1.117671298E0,1.367207415E1
8.609873542E0,4.636688523E0,1.604871013E1,2.248049181E0,1.685567271E1
8.619907542E0,4.309305550E0,1.797232830E1,3.834982924E0,1.887542829E1
8.629941542E0,3.172052219E0,1.893207625E1,5.028172182E0,1.984358692E1
8.639975542E0,-2.184607476E-2,1.745911000E1,6.046823807E0,1.847660893E1
8.650009542E0,-3.110709664E0,1.551494354E1,7.337369791E0,1.744210375E1
8.660043542E0,-5.602349464E0,1.355631107E1,8.574262893E0,1.699052305E1
8.670078542E0,-7.196291095E0,1.041241290E1,8.828009833E0,1.543174344E1
8.680112542E0,-7.196052529E0,7.528856163E0,8.386667258E0,1.337172520E1
8.690146542E0,-6.662608706E0,4.695871409E0,7.405567621E0,1.101290129E1
8.700180542E0,-5.410246795E0,2.068722678E0,5.588754687E0,8.048885815E0
8.710214542E0,-2.885146303E0,1.061655557E-1,3.243899589E0,4.342605768E0
8.720248542E0,4.476401724E-2,-1.443805014E0,8.152878034E-1,1.658695553E0
8.730282542E0,2.191617995E0,-2.834391595E0,-9.556710459E-1,3.708135960E0
8.740317542E0,3.597055627E0,-3.658068398E0,-2.431418303E0,5.677329350E0
8.750351542E0,4.179849072E0,-4.348965459E0,-4.078142896E0,7.281201021E0
8.760385542E0,3.810687451E0,-5.481346598E0,-5.190739396E0,8.456374806E0
8.770419542E0,3.053886715E0,-6.741046180E0,-5.397627919E0,9.159820676E0
8.780453542E0,2.403782900E0,-7.849056709E0,-5.127044506E0,9.678452811E0
8.790487542E0,1.868725391E0,-8.986850615E0,-4.521530242E0,1.023229467E1
8.800521542E0,1.504304985E0,-1.020359714E1,-3.588444432E0,1.092031416E1
8.810556542E0,1.332633657E0,-1.123615461E1,-2.479733992E0,1.158344351E1
8.820590542E0,1.298289159E0,-1.189490426E1,-1.468522364E0,1.205532497E1
8.830624542E0,1.303289697E0,-1.215982055E1,-7.577044237E-1,1.225291459E1
8.840658542E0,1.037534038E0,-1.225270942E1,-2.159511226E-1,1.229845519E1
8.850692542E0,5.709397145E-1,-1.204222369E1,2.783771664E-1,1.205896419E1
8.860726542E0,-3.050565496E-3,-1.173031684E1,5.854758561E-1,1.174491909E1
8.870761542E0,-3.899617388E-1,-1.134052975E1,6.997667027E-1,1.136878879E1
8.880795542E0,-4.174800879E-1,-1.048699881E1,7.503533772E-1,1.052209409E1
8.890829542E0,-2.516572181E-1,-8.907924898E0,6.894640549E-1,8.938110428E0
8.900863542E0,-4.532066486E-1,-7.080658312E0,7.265242924E-1,7.132247609E0
8.910897542E0,-9.295402776E-1,-5.099456173E0,9.658875203E-1,5.272706809E0
8.920931542E0,-1.564252248E0,-2.957387191E0,1.380945691E0,3.619397062E0
8.930965542E0,-2.472738383E0,-1.157603688E0,1.958935357E0,3.360343605E0
8.941000542E0,-3.474648845E0,1.285609764E-1,2.913780996E0,4.536499995E0
8.951034542E0,-4.236849777E0,1.066305263E0,3.762687950E0,5.765910471E0
8.961068542E0,-4.529653194E0,1.579524152E0,3.769268991E0,6.100823168E0
8.971102542E0,-4.444121000E0,1.590444412E0,3.008918118E0,5.597616737E0
8.981136542E0,-3.959251167E0,1.500855128E0,1.787887343E0,4.596169826E0
8.991170542E0,-3.132609825E0,1.637340251E0,3.087236309E-1,3.548159762E0
9.001204542E0,-2.072750825E0,2.042095628E0,-1.207500318E0,3.150318643E0
9.011239542E0,-9.918300082E-1,2.613231187E0,-2.345603542E0,3.648912164E0
9.021273542E0,-1.909092156E-1,3.013873633E0,-2.837355548E0,4.143726235E0
9.031307542E0,6.534011330E-1,3.386904942E0,-2.822320018E0,4.456854093E0
9.041341542E0,1.632452563E0,3.877111529E0,-2.283403201E0,4.786525395E0
9.051375542E0,2.389850446E0,4.174735390E0,-1.394537544E0,5.008446435E0
9.061409542E0,3.243537354E0,4.578586203E0,-6.893066186E-1,5.653240645E0
9.071443542E0,3.981753300E0,5.160826795E0,-1.642172974E-1,6.520388015E0
9.081478542E0,4.298620933E0,5.426611982E0,-2.478623021E-1,6.927315154E0
9.091512542E0,4.705566677E0,5.755159428E0,-1.244369352E0,7.537418184E0
9.101546542E0,4.858427220E0,6.105591248E0,-2.775555156E0,8.281682556E0
9.111580542E0,4.431430496E0,5.984824026E0,-4.426649228E0,8.663193305E0
9.121614875E0,3.320387017E0,5.130499626E0,-5.636896568E0,8.313940057E0
9.131648875E0,1.035517918E0,3.384799359E0,-5.984691879E0,6.953107287E0
9.141682875E0,-1.718807460E0,1.233687658E0,-5.604467910E0,5.990521252E0
9.151717875E0,-4.079015885E0,-1.082831833E0,-4.550279832E0,6.206121326E0
9.161751875E0,-5.260418326E0,-2.934761390E0,-2.913996173E0,6.691502004E0
9.171785875E0,-5.394570410E0,-3.951400403E0,-6.978622645E-1,6.723240795E0
9.181819875E0,-4.758626066E0,-4.124455183E0,2.038570341E0,6.619019688E0
9.191853875E0,-3.634087505E0,-3.570357825E0,4.547570232E0,6.828941500E0
9.201887875E0,-2.512663756E0,-2.615356650E0,6.116929584E0,7.111286599E0
9.211922875E0,-1.535415680E0,-1.923233428E0,5.605367796E0,6.121803351E0
9.221956875E0,-4.280473953E-1,-9.429757905E-1,5.390193769E0,5.488771883E0
9.231990875E0,3.956392391E-2,7.987705886E-2,4.777936496E0,4.778767917E0
9.242024875E0,-5.480522141E-3,-2.285431015E-1,2.781306770E0,2.790686176E0
9.252058875E0,-8.251225278E-2,-1.004863306E0,4.389399540E-1,1.099648498E0
9.262092875E0,3.465291692E-1,-1.240861607E0,-1.190510356E0,1.754176417E0
9.272126875E0,7.411119260E-1,-1.450217071E0,-2.230176582E0,2.761532912E0
9.282161875E0,5.907979187E-1,-2.191315402E0,-2.972454589E0,3.739838453E0
9.292195875E0,3.030883768E-1,-3.008981268E0,-3.401635832E0,4.551588423E0
9.302229875E0,2.077467847E-1,-3.444506448E0,-3.444064983E0,4.875383780E0
9.312263875E0,1.069098332E-1,-3.746469528E0,-3.339326148E0,5.019817005E0
9.322297875E0,-1.200902613E-1,-4.119085684E0,-3.290290520E0,5.273262771E0
9.332331875E0,-2.207699227E-1,-4.437499906E0,-3.243058467E0,5.500688411E0
9.342365875E0,1.139973164E-2,-4.464919254E0,-3.061162405E0,5.413533889E0
9.352400875E0,3.296096294E-1,-4.315751520E0,-2.778855910E0,5.143577924E0
9.362434875E0,8.804018122E-1,-3.796954973E0,-2.301948230E0,4.526691957E0
9.372468875E0,1.546364299E0,-2.773615635E0,-1.656726109E0,3.581749243E0
9.382502875E0,2.086615304E0,-1.631224063E0,-1.041736432E0,2.846062221E0
9.392536875E0,2.499561315E0,-1.639442325E-2,-2.850798297E-1,2.515819162E0
9.402570875E0,2.590080307E0,1.828224360E0,8.393830097E-1,3.279555479E0
9.412605875E0,2.619509635E0,3.844793968E0,2.256910344E0,5.170871849E0
9.422639875E0,2.669221786E0,5.824335498E0,3.579711615E0,7.339071071E0
9.432673875E0,2.884735829E0,7.480100909E0,4.382778738E0,9.136868166E0
9.442707875E0,3.051595775E0,9.038249980E0,4.593462104E0,1.058782761E1
9.452741875E0,2.795078717E0,1.009797888E1,4.532048798E0,1.141582712E1
9.462775875E0,1.927628926E0,1.010551243E1,4.425428329E0,1.119917634E1
9.472809875E0,7.436961760E-1,9.513525116E0,4.197668754E0,1.042500202E1
9.482844875E0,-3.303757608E-1,8.797814226E0,4.235435336E0,9.769830898E0
9.492878875E0,-1.149731216E0,7.963121268E0,4.533928678E0,9.235241819E0
9.502912875E0,-1.456725460E0,6.882873319E0,4.538467872E0,8.372197132E0
9.512946875E0,-1.109406040E0,5.715375558E0,3.902117731E0,7.008767532E0
9.522980875E0,-3.072097868E-1,4.505001917E0,2.798547578E0,5.312371286E0
9.533014875E0,6.718939758E-1,3.179646290E0,1.492007267E0,3.575986260E0
9.543049875E0,1.643973186E0,1.755989612E0,6.298145615E-2,2.406265575E0
9.553083875E0,2.560943631E0,4.294785744E-1,-1.335704468E0,2.920101120E0
9.563117875E0,3.308829995E0,-8.016895187E-1,-2.593173484E0,4.279674139E0
9.573151875E0,3.755389163E0,-2.016067332E0,-3.488064696E0,5.507637477E0
9.583185875E0,3.789664957E0,-3.186365910E0,-4.003906646E0,6.367554996E0
9.593219875E0,3.554404574E0,-4.371808192E0,-4.209159703E0,7.033030936E0
9.603253875E0,3.180090386E0,-5.464154615E0,-3.974628468E0,7.467772892E0
9.613288875E0,2.798872975E0,-6.172642440E0,-3.213872382E0,7.500945294E0
9.623322875E0,2.310930138E0,-6.631942399E0,-2.210871999E0,7.362812851E0
9.633356875E0,1.769137953E0,-6.906627048E0,-1.317668439E0,7.250351467E0
9.643390875E0,1.124781220E0,-7.082615960E0,-6.170329866E-1,7.197868528E0
9.653424875E0,4.236654919E-1,-7.222422302E0,3.689593077E-2,7.234931766E0
9.663458875E0,-3.208377461E-1,-7.245434604E0,6.358876258E-1,7.280357995E0
9.673492875E0,-9.712476629E-1,-7.263078577E0,9.206329948E-1,7.385336658E0
9.683527875E0,-1.510900498E0,-7.462902494E0,7.985138959E-1,7.656066770E0
9.693561875E0,-1.949711375E0,-7.749201468E0,3.623715422E-1,7.998925614E0
9.703595875E0,-2.024838886E0,-7.707596775E0,-3.100477329E-1,7.975158315E0
9.713629875E0,-1.744066847E0,-7.480772755E0,-1.282309157E0,7.787685596E0
9.723663875E0,-1.460606111E0,-7.291251631E0,-2.351537881E0,7.799067314E0
9.733697875E0,-1.101673463E0,-6.930721670E0,-3.295050446E0,7.752802379E0
9.743732875E0,-6.552689530E-1,-6.292140232E0,-4.101007848E0,7.539142621E0
9.753766875E0,-2.877498145E-1,-5.569336084E0,-4.568077587E0,7.208858246E0
9.763800875E0,-2.748789234E-1,-4.678194691E0,-4.483519247E0,6.485600113E0
9.773834875E0,-5.931115888E-1,-3.757963985E0,-3.940779521E0,5.477574089E0
9.783868875E0,-7.258749591E-1,-2.670635058E0,-3.262244643E0,4.278016617E0
9.793902875E0,-6.999193150E-1,-1.415683415E0,-2.561056482E0,3.008829820E0
9.803936875E0,-9.662807456E-1,-1.750539422E-1,-1.745936640E0,2.003156787E0
9.813971875E0,-1.532058502E0,7.385775965E-1,-8.897070712E-1,1.919447522E0
9.824005875E0,-1.827641246E0,1.947543812E0,-8.022511438E-2,2.672009636E0
9.834039875E0,-1.643085286E0,3.615067974E0,2.956779081E-1,3.981943136E0
9.844073875E0,-1.250112926E0,5.416430810E0,4.678310466E-1,5.578473889E0
9.854107875E0,-1.192032971E0,6.834428553E0,7.955117892E-1,6.983064890E0
9.864141875E0,-1.794147225E0,7.645188273E0,1.390867686E0,7.975110088E0
9.874175875E0,-2.538778006E0,8.135155123E0,2.288162250E0,8.823935014E0
9.884210875E0,-2.901431384E0,8.606361183E0,3.148757204E0,9.612618208E0
9.894244875E0,-2.713859430E0,9.156764855E0,3.379820455E0,1.013087173E1
9.904278875E0,-2.237468352E0,9.581975546E0,2.428421897E0,1.013497671E1
9.914312875E0,-1.802518976E0,9.618096721E0,7.992857283E-1,9.818132046E0
9.924346875E0,-1.838437984E0,8.802531175E0,-5.496827102E-1,9.009248603E0
9.934380875E0,-2.413233608E0,6.976418245E0,-1.570477632E0,7.547218558E0
9.944414875E0,-3.004285369E0,4.886228099E0,-2.346598154E0,6.197376744E0
9.954449875E0,-3.423557628E0,2.802965734E0,-2.478332999E0,5.071439460E0
9.964483875E0,-3.497528999E0,9.558694857E-1,-2.202631226E0,4.242402609E0
9.974517875E0,-3.010669944E0,-2.580382115E-1,-1.827882882E0,3.531553916E0
9.984551875E0,-2.311506089E0,-1.020084193E0,-1.394493105E0,2.885869571E0
9.994585875E0,-1.800006574E0,-1.508958784E0,-9.349773842E-1,2.528074957E0
1.000461988E1,-1.177555411E0,-1.712999713E0,-7.153349143E-1,2.198342285E0
1.001465488E1,-6.348614395E-1,-1.819535982E0,-8.133833653E-1,2.091734385E0
1.002468887E1,-2.769636020E-2,-1.778461631E0,-1.343188466E0,2.228867003E0
1.003472288E1,1.063705883E0,-1.425198004E0,-2.247346931E0,2.865872953E0
1.004475687E1,2.101337863E0,-1.030623799E0,-3.067079787E0,3.858080436E0
1.005479088E1,2.717429447E0,-9.254358977E-1,-3.571700345E0,4.582346316E0
1.006482488E1,3.092646738E0,-9.827678472E-1,-3.629238117E0,4.868435662E0
1.007485887E1,3.221825765E0,-1.094205837E0,-3.175579551E0,4.654218856E0
1.008489387E1,2.942975266E0,-1.451974744E0,-2.477693898E0,4.111970468E0
1.009492788E1,2.385891151E0,-1.927897167E0,-1.699272205E0,3.506677929E0
1.010496187E1,1.787290634E0,-2.354406525E0,-9.714768738E-1,3.111495656E0
1.011499588E1,1.188075137E0,-2.745523857E0,-2.407719684E-1,3.001232234E0
1.012502929E1,8.331935857E-1,-2.805105230E0,5.732352948E-1,2.981849360E0
1.013506329E1,6.579920013E-1,-2.911253829E0,8.389292657E-1,3.100347504E0
1.014509829E1,6.162211007E-1,-3.124826304E0,5.398348296E-1,3.230431785E0
1.015513229E1,8.649518605E-1,-3.261219626E0,3.135627866E-2,3.374118905E0
1.016516629E1,9.751448321E-1,-3.316509143E0,-2.792443085E-1,3.468157684E0
1.017520029E1,7.899468479E-1,-3.392463890E0,-3.187954599E-1,3.497778983E0
1.018523429E1,7.360169546E-1,-3.111113414E0,-1.678688836E-1,3.201394633E0
1.019526829E1,8.728284985E-1,-2.495642511E0,1.425390378E-1,2.647711938E0
1.020530229E1,9.918498887E-1,-1.689311473E0,5.887526357E-1,2.045524168E0
1.021533729E1,1.586963857E0,-5.055719000E-1,1.026402109E0,1.956414710E0
1.022537129E1,2.556441860E0,1.047512897E0,1.520869562E0,3.153683953E0
1.023540529E1,3.291183390E0,2.760949396E0,2.429169610E0,4.935138769E0
1.024543929E1,3.631225001E0,4.485945842E0,4.289921445E0,7.191170357E0
1.025547329E1,3.752464386E0,5.773135523E0,5.968255355E0,9.112088384E0
1.026550729E1,3.323539543E0,6.082101814E0,7.460129160E0,1.018289765E1
1.027554129E1,2.977564763E0,6.101329798E0,8.222585031E0,1.066316190E1
1.028557629E1,3.026593081E0,6.392700062E0,8.219843856E0,1.084401737E1
1.029561029E1,3.283918225E0,7.000495325E0,7.494224274E0,1.076821486E1
1.030564429E1,3.335656728E0,7.505321705E0,6.356278925E0,1.038550632E1
1.031567829E1,2.894278777E0,7.356129997E0,5.230369484E0,9.478726872E0
1.032571229E1,2.357734176E0,6.915840506E0,4.100355299E0,8.378584243E0
1.033574629E1,1.620054712E0,6.560161979E0,2.951619498E0,7.373761599E0
1.034578129E1,3.300257684E-1,6.073153819E0,1.718355762E0,6.320194684E0
1.035581529E1,-9.849585065E-1,5.316753325E0,3.435280126E-1,5.418119662E0
1.036584929E1,-1.884714749E0,4.535993330E0,-9.560959192E-1,5.004148737E0
1.037588329E1,-2.406029692E0,3.548040172E0,-2.243370531E0,4.838417022E0
1.038591729E1,-2.686466979E0,2.301590965E0,-3.146968541E0,4.734747807E0
1.039595129E1,-2.806969907E0,1.047493601E0,-3.409789190E0,4.539051137E0
1.040598529E1,-2.553392244E0,-2.379781687E-1,-3.394742550E0,4.254494393E0
1.041602029E1,-2.184766228E0,-1.551618900E0,-3.240724843E0,4.205118570E0
1.042605429E1,-1.768325044E0,-2.898857147E0,-2.917771720E0,4.477023345E0
1.043608829E1,-1.180560880E0,-4.136825552E0,-2.542186348E0,4.996975192E0
1.044612229E1,-4.215861489E-1,-5.280243895E0,-2.155452674E0,5.718801160E0
1.045615629E1,1.150986394E-1,-6.420995323E0,-1.844071191E0,6.681543773E0
1.046619029E1,2.688431351E-1,-7.399650823E0,-1.472389420E0,7.549505914E0
1.047622529E1,2.546849795E-1,-8.036338348E0,-1.031386568E0,8.106254175E0
1.048625929E1,-2.339498757E-1,-8.440455210E0,-4.355205023E-1,8.454921336E0
1.049629329E1,-1.060626155E0,-8.635059902E0,3.795608944E-1,8.708229087E0
1.050632729E1,-1.825653778E0,-8.522928432E0,1.087923004E0,8.783899888E0
1.051636129E1,-2.485902219E0,-8.433999299E0,1.243215111E0,8.880182308E0
1.052639529E1,-2.745870012E0,-8.514031309E0,6.911742193E-1,8.972527685E0
1.053642929E1,-2.504810361E0,-8.291282213E0,-2.593889183E-1,8.665259275E0
1.054646429E1,-2.253961301E0,-8.049898626E0,-1.272783604E0,8.455837483E0
1.055649829E1,-2.058556709E0,-7.624035385E0,-2.193380200E0,8.196004391E0
1.056653229E1,-1.670963787E0,-6.905418429E0,-3.125227423E0,7.761698919E0
1.057656629E1,-1.282204053E0,-6.093454767E0,-3.891819030E0,7.343057510E0
1.058660029E1,-1.386121647E0,-5.339600151E0,-4.167798838E0,6.913986559E0
1.059663429E1,-1.756780155E0,-4.635122346E0,-3.909216835E0,6.312892518E0
1.060666929E1,-1.994674709E0,-3.849505069E0,-3.448106579E0,5.539571775E0
1.061670329E1,-1.786281405E0,-2.915957914E0,-2.960613100E0,4.523145116E0
1.062673729E1,-1.306820831E0,-1.913442265E0,-2.534627652E0,3.434148995E0
1.063677129E1,-4.977576810E-1,-6.910175139E-1,-2.389107412E0,2.536356075E0
1.064680529E1,5.234956625E-1,8.121531111E-1,-2.445520179E0,2.629488416E0
1.065683929E1,1.162920854E0,2.302303741E0,-2.296823146E0,3.453749266E0
1.066687329E1,8.426554039E-1,3.614674457E0,-1.802665011E0,4.126201728E0
1.067690829E1,-3.215503755E-1,4.419341962E0,-1.087708996E0,4.562574809E0
1.068694229E1,-1.929844582E0,4.499773922E0,-2.295090616E-2,4.896201814E0
1.069697629E1,-2.663083671E0,4.962289265E0,1.043158475E0,5.727522064E0
1.070701029E1,-2.478305809E0,5.733700731E0,1.552269695E0,6.436370481E0
1.071704429E1,-1.986288340E0,6.189999899E0,1.512548389E0,6.674521912E0
1.072707829E1,-1.367688592E0,6.533214501E0,7.843244576E-1,6.720761018E0
1.073711329E1,-6.053666219E-1,6.854306163E0,-3.978925002E-1,6.892481422E0
1.074714729E1,1.524664405E-1,7.042845538E0,-1.401012751E0,7.182461696E0
1.075718129E1,6.918279380E-1,7.308259428E0,-1.868751411E0,7.575058653E0
1.076721529E1,2.848719612E-1,7.318135375E0,-1.844499500E0,7.552379480E0
1.077724929E1,-1.238909222E0,6.506244804E0,-1.322176496E0,6.753833592E0
1.078728329E1,-3.285998664E0,5.255483860E0,-3.741785324E-1,6.209501381E0
1.079731729E1,-4.927432843E0,4.014922800E0,6.599769849E-1,6.390208849E0
1.080735229E1,-5.739432757E0,2.595195451E0,1.197201617E0,6.411662773E0
1.081738629E1,-5.604972525E0,1.054604985E0,1.254645541E0,5.839695549E0
1.082742029E1,-4.689416083E0,-2.494965988E-1,1.023542821E0,4.806299164E0
1.083745429E1,-3.308632359E0,-1.131456694E0,5.812176213E-1,3.544722311E0
1.084748829E1,-1.689298024E0,-1.929876450E0,-6.573966086E-2,2.565632988E0
1.085752229E1,-1.749253035E-1,-2.767006527E0,-7.029803324E-1,2.860263158E0
1.086755729E1,1.160410644E0,-3.412516331E0,-1.143209597E0,3.781368635E0
1.087759129E1,2.341419567E0,-3.731921071E0,-1.480809703E0,4.647825066E0
1.088762529E1,3.307782174E0,-3.863179368E0,-1.917214889E0,5.435190030E0
1.089765929E1,3.851421787E0,-4.101395518E0,-2.364698210E0,6.103006849E0
1.090769329E1,4.122826148E0,-4.322641295E0,-2.631576242E0,6.527489313E0
1.091772729E1,4.325860772E0,-4.481630012E0,-2.795153854E0,6.827222279E0
1.092776129E1,4.475964060E0,-4.617025214E0,-2.907010505E0,7.057045144E0
1.093779629E1,4.465365981E0,-4.826552001E0,-2.981706930E0,7.219811201E0
1.094783029E1,4.354657432E0,-5.032044793E0,-2.956846324E0,7.281995354E0
1.095786429E1,4.091929168E0,-5.151201108E0,-2.781654972E0,7.142573875E0
1.096789829E1,3.558185383E0,-5.221495750E0,-2.463843598E0,6.781978057E0
1.097793229E1,3.044720035E0,-5.221375297E0,-2.149370400E0,6.415050522E0
1.098796629E1,2.546436104E0,-5.007069581E0,-1.797660086E0,5.898022076E0
1.099800129E1,2.005850054E0,-4.596583348E0,-1.446272539E0,5.219551434E0
1.100803529E1,1.610053488E0,-3.873069933E0,-9.829418018E-1,4.308029425E0
1.101806929E1,9.363041174E-1,-3.030285598E0,-3.210738274E-1,3.187849527E0
1.102810329E1,5.141724233E-1,-2.002379000E0,2.608285028E-1,2.083728977E0
1.103813729E1,7.785633422E-1,-9.117674464E-1,6.282254344E-1,1.353568598E0
1.104817129E1,1.795327340E0,4.615330106E-1,9.564343268E-1,2.085900189E0
1.105820529E1,3.434501862E0,2.437774372E0,1.114169401E0,4.356595045E0
1.106824029E1,4.891508719E0,4.322719063E0,9.995546186E-1,6.603928155E0
1.107827429E1,5.559364243E0,5.981533797E0,8.896974233E-1,8.214428699E0
1.108830829E1,5.218286213E0,7.197627184E0,8.721677631E-1,8.932918039E0
1.109834229E1,3.739917138E0,7.512753516E0,1.276574062E0,8.488703489E0
1.110837629E1,2.156264268E0,7.849509283E0,2.128751364E0,8.414027213E0
1.111841050E1,8.292442301E-1,8.061512366E0,3.051703657E0,8.659591378E0
1.112844550E1,-9.905797273E-1,7.462894308E0,3.946688132E0,8.500140402E0
1.113847950E1,-3.171324533E0,6.418812557E0,4.316348521E0,8.359983164E0
1.114851350E1,-4.947703385E0,5.304342025E0,4.029951606E0,8.297971020E0
1.115854750E1,-5.692251574E0,4.060862035E0,3.259564864E0,7.714732111E0
1.116858150E1,-5.148295042E0,2.587747267E0,2.092252459E0,6.130162976E0
1.117861550E1,-3.598507783E0,1.078128333E0,8.436397827E-1,3.850110004E0
1.118864950E1,-1.705836289E0,-3.986666715E-1,-3.514030427E-1,1.786699935E0
1.119868450E1,5.135904792E-1,-9.895611423E-1,-1.523673594E0,1.888011562E0
1.120871850E1,2.491591560E0,-6.814771968E-1,-2.633170485E0,3.688634771E0
1.121875250E1,3.010434301E0,-5.683101851E-1,-3.482998669E0,4.638638903E0
1.122878650E1,2.266697852E0,-7.379946291E-1,-3.753992848E0,4.446911010E0
1.123882050E1,9.873203431E-1,-1.089429247E0,-3.018430953E0,3.357466748E0
1.124885450E1,-1.976125002E-1,-1.689061797E0,-1.763494513E0,2.449876191E0
1.125888950E1,-8.836088638E-1,-2.557485588E0,-7.831436124E-1,2.816879670E0
1.126892350E1,-1.136497725E0,-3.298831256E0,1.646508685E-1,3.492996513E0
1.127895750E1,-1.137356535E0,-4.141077062E0,3.267102510E-1,4.306836276E0
1.128899150E1,-5.523445089E-1,-4.479903329E0,5.845946807E-1,4.551523837E0
1.129902550E1,2.375014745E-1,-4.412883713E0,7.999026096E-1,4.491079358E0
1.130905950E1,7.903761797E-1,-4.370863282E0,5.518578744E-1,4.475900742E0
1.131909450E1,1.259879676E0,-4.015223347E0,8.682705939E-2,4.209139373E0
1.132912850E1,1.667199496E0,-3.502911361E0,-5.788644093E-1,3.922375067E0
1.133916250E1,1.827956996E0,-2.940286424E0,-1.671274567E0,3.844459612E0
1.134919650E1,1.530121465E0,-2.946561071E0,-3.216278511E0,4.622547058E0
1.135923050E1,1.094664990E0,-3.025828850E0,-4.122981099E0,5.230000461E0
1.136926450E1,6.651090860E-1,-2.886258152E0,-4.249403164E0,5.179795697E0
1.137929850E1,5.483197242E-2,-2.922364123E0,-3.963374332E0,4.924586755E0
1.138933350E1,-7.898415980E-1,-3.136867476E0,-3.542907486E0,4.797497344E0
1.139936750E1,-1.604430074E0,-3.411545693E0,-3.150603755E0,4.913160276E0
1.140940150E1,-1.766948463E0,-3.361402895E0,-2.966373192E0,4.818766047E0
1.141943550E1,-1.499490972E0,-3.066142479E0,-3.071861640E0,4.591953485E0
1.142946950E1,-1.051992741E0,-2.583520900E0,-3.284780397E0,4.309414255E0
1.143950350E1,-3.414165831E-1,-1.428829125E0,-3.293405040E0,3.606193937E0
1.144953850E1,1.852498783E-1,-5.324766934E-2,-2.909067263E0,2.915445964E0
1.145957250E1,5.121346687E-1,1.372435069E0,-2.077745809E0,2.542220995E0
1.146960650E1,6.244181661E-1,3.030296123E0,-9.814036918E-1,3.245881367E0
1.147964050E1,3.348697481E-1,4.681625837E0,2.528493923E-1,4.700392648E0
1.148967450E1,-5.366518246E-1,5.940297478E0,1.286167588E0,6.101586382E0
1.149970850E1,-1.897724365E0,6.433679688E0,2.146200040E0,7.042710182E0
1.150974350E1,-3.005760329E0,6.531942732E0,3.041701117E0,7.807228490E0
1.151977750E1,-3.500059674E0,6.623510129E0,3.957407248E0,8.472448069E0
1.152981150E1,-3.329515397E0,6.913239080E0,4.658157452E0,8.976468025E0
1.153984550E1,-2.703413087E0,7.149696972E0,4.938933731E0,9.100531606E0
1.154987950E1,-1.818695591E0,7.070695826E0,4.705991769E0,8.686124087E0
1.155991350E1,-8.441935871E-1,6.917368968E0,4.451835524E0,8.269310479E0
1.156994750E1,-2.499308094E-1,6.691447758E0,4.752450821E0,8.211195243E0
1.157998250E1,-5.226262181E-1,5.818171363E0,5.611271145E0,8.100038274E0
1.159001650E1,-1.335509610E0,4.600237273E0,6.589651242E0,8.146733847E0
1.160005050E1,-1.844411645E0,3.382044736E0,7.056655492E0,8.039680818E0
1.161008450E1,-1.668902059E0,2.483555732E0,7.145309806E0,7.746530539E0
1.162011850E1,-1.265719875E0,1.650474851E0,6.534644730E0,6.857674226E0
1.163015250E1,-5.938085769E-1,8.739663666E-1,5.668418323E0,5.766055161E0
1.164018750E1,5.149471794E-1,5.173698270E-1,5.065216632E0,5.117544496E0
1.165022150E1,1.916433993E0,1.602248186E-1,4.311669579E0,4.721110654E0
1.166025550E1,3.130928459E0,-3.786779648E-1,2.957560269E0,4.323571759E0
1.167028950E1,3.758696641E0,-1.231083893E0,9.080065173E-1,4.058059120E0
1.168032350E1,3.776659872E0,-2.127855570E0,-1.716788709E0,4.662434191E0
1.169035750E1,3.501688124E0,-2.760184581E0,-4.244601431E0,6.156060424E0
1.170039250E1,2.802546489E0,-3.291953761E0,-6.476357346E0,7.786811341E0
1.171042650E1,1.970884143E0,-3.817273462E0,-8.253090540E0,9.304271301E0
1.172046050E1,1.141336661E0,-4.208724085E0,-9.328110493E0,1.029707013E1
1.173049450E1,4.902722948E-1,-4.527621871E0,-9.577971373E0,1.060552980E1
1.174052850E1,1.081819315E-1,-4.791371058E0,-9.113383192E0,1.029673216E1
1.175056250E1,-1.050561927E-1,-5.061562707E0,-8.290461849E0,9.714021387E0
1.176059650E1,-1.668076140E-1,-5.391462030E0,-7.490363358E0,9.230451280E0
1.177063150E1,-1.339473949E-1,-5.748244511E0,-6.665539915E0,8.802822230E0
1.178066550E1,1.454290241E-2,-5.994126946E0,-5.828347857E0,8.360586587E0
1.179069950E1,1.750446232E-1,-6.264214514E0,-5.046893213E0,8.046251003E0
1.180073350E1,4.009903916E-1,-6.483293313E0,-4.228150874E0,7.750557741E0
1.181076750E1,7.486341497E-1,-6.497285115E0,-3.230456840E0,7.294588292E0
1.182080150E1,1.079827680E0,-6.247522468E0,-2.188272803E0,6.707168007E0
1.183083650E1,1.095121365E0,-5.951173300E0,-1.241645134E0,6.177170637E0
1.184087050E1,1.097223439E0,-5.236076952E0,-6.065807962E-1,5.384082223E0
1.185090450E1,1.010069667E0,-4.415992092E0,-2.717785835E-1,4.538181408E0
1.186093850E1,1.225754010E0,-3.332851526E0,-1.527775124E-1,3.554393501E0
1.187097250E1,2.350858435E0,-2.023437163E0,6.807269990E-2,3.102493711E0
1.188100650E1,4.686099834E0,-1.385205388E-1,3.756455988E-1,4.703172250E0
1.189104150E1,7.760733932E0,2.207715088E0,6.157293499E-1,8.092102304E0
1.190107550E1,1.034257960E1,4.553843710E0,8.311825821E-1,1.133125368E1
1.191110950E1,1.149297718E1,6.307096240E0,8.976540220E-1,1.314053919E1
1.192114350E1,1.106517618E1,7.349623801E0,1.165903811E0,1.333470755E1
1.193117750E1,9.877942307E0,8.478697169E0,1.322158370E0,1.308472975E1
1.194121150E1,7.348835011E0,9.445139006E0,1.935168472E0,1.212274325E1
1.195124550E1,3.817461743E0,9.786513489E0,3.523064083E0,1.107974914E1
1.196128050E1,-4.872325467E-1,9.503806459E0,5.552547559E0,1.101773648E1
1.197131450E1,-4.925972208E0,8.797372177E0,6.547363594E0,1.202193534E1
1.198134850E1,-7.761987575E0,7.686666666E0,5.931369950E0,1.243038395E1
1.199138250E1,-8.948141463E0,6.383852640E0,4.155783687E0,1.175131262E1
1.200141650E1,-9.242142974E0,4.992566147E0,2.407295761E0,1.077673403E1
1.201145050E1,-8.832168957E0,3.640656559E0,1.316985923E0,9.643445473E0
1.202148550E1,-7.747826203E0,2.372845135E0,7.208043998E-1,8.135033122E0
1.203151950E1,-6.344182205E0,1.140547945E0,6.176451901E-1,6.475413736E0
1.204155350E1,-5.110280539E0,1.511973023E-2,7.054580900E-1,5.158766026E0
1.205158750E1,-4.083774057E0,-1.108757218E0,6.099084467E-1,4.275341089E0
1.206162150E1,-3.141272768E0,-2.138695723E0,4.731163448E-1,3.829549983E0
1.207165550E1,-2.189153540E0,-2.879977072E0,2.144460493E-1,3.623899594E0
1.208169050E1,-1.548020962E0,-3.461865077E0,-1.386684734E-1,3.794747377E0
1.209172450E1,-1.187874577E0,-4.034270652E0,-5.454086879E-1,4.240737712E0
1.210175850E1,-9.441449413E-1,-4.651230256E0,-1.089610510E0,4.869558874E0
1.211179250E1,-6.493166336E-1,-5.087095159E0,-1.762235315E0,5.422695138E0
1.212182567E1,-3.930382879E-1,-5.268761133E0,-2.405598314E0,5.805275723E0
1.213185967E1,-4.515392420E-1,-5.424919213E0,-2.904021993E0,6.169844397E0
1.214189367E1,-8.046683827E-1,-5.649473929E0,-3.283779646E0,6.583863276E0
1.215192867E1,-1.242582735E0,-5.869616336E0,-3.556499923E0,6.974603895E0
1.216196267E1,-1.267894893E0,-6.013832062E0,-3.870186379E0,7.263062449E0
1.217199667E1,-1.006180537E0,-6.082235715E0,-4.360460208E0,7.551132617E0
1.218203067E1,-7.516570871E-1,-6.193742117E0,-4.759955138E0,7.847585788E0
1.219206467E1,-4.161342050E-1,-6.138404068E0,-4.988549695E0,7.920782805E0
1.220209867E1,-2.558896521E-1,-5.901828062E0,-5.124710298E0,7.820467353E0
1.221213367E1,-2.681039008E-1,-5.431792615E0,-5.139048840E0,7.482384225E0
1.222216767E1,-6.332364982E-1,-5.016920385E0,-4.878908262E0,7.026679475E0
1.223220167E1,-1.165890655E0,-4.764328271E0,-4.383135418E0,6.577993690E0
1.224223567E1,-1.268286803E0,-4.444834068E0,-3.840689222E0,6.009658477E0
1.225226967E1,-1.060313621E0,-3.869138850E0,-3.281621146E0,5.183004704E0
1.226230367E1,-1.018919135E0,-3.112024410E0,-2.584498554E0,4.171633363E0
1.227233867E1,-1.190104267E0,-2.123346782E0,-1.792602245E0,3.022974120E0
1.228237267E1,-1.256907536E0,-7.931584311E-1,-1.154888534E0,1.882202002E0
1.229240667E1,-9.544953901E-1,1.019906437E0,-9.509475920E-1,1.689843754E0
1.230244067E1,-5.634534878E-1,3.067646382E0,-1.096341240E0,3.306039666E0
1.231247467E1,-4.637593380E-1,5.204593204E0,-8.956117357E-1,5.301413351E0
1.232250867E1,-9.392818120E-1,7.138256895E0,-1.380479376E-1,7.201112348E0
1.233254367E1,-1.669349079E0,8.713406160E0,6.598274423E-1,8.896378224E0
1.234257767E1,-1.964993950E0,9.817290308E0,8.946121542E-1,1.005190137E1
1.235261167E1,-1.493231235E0,1.077192077E1,6.583121364E-1,1.089483325E1
1.236264567E1,-9.345528764E-1,1.157774193E1,2.706060706E-1,1.161855090E1
1.237267967E1,-1.412718877E0,1.192700899E1,3.401524150E-1,1.201519961E1
1.238271367E1,-3.198797383E0,1.090717856E1,8.794396529E-1,1.140053784E1
1.239274767E1,-4.287913511E0,8.892891707E0,1.124889394E0,9.936553796E0
1.240278267E1,-4.565267123E0,6.290429921E0,1.028127623E0,7.840167020E0
1.241281667E1,-4.965119902E0,3.717696549E0,1.230254173E0,6.323543991E0
1.242285067E1,-5.594976125E0,1.625121324E0,1.864657776E0,6.117329955E0
1.243288467E1,-5.841599987E0,6.330838859E-2,2.434284754E0,6.328826164E0
1.244291867E1,-5.689494027E0,-1.131963063E0,2.798644349E0,6.440814611E0
1.245295267E1,-5.635699058E0,-1.664019926E0,4.011928733E0,7.115169594E0
1.246298767E1,-5.700250565E0,-1.634632990E0,5.509161803E0,8.094179717E0
1.247302167E1,-4.848489584E0,-2.019685589E0,5.814336759E0,7.835399994E0
1.248305567E1,-3.110777784E0,-2.221591700E0,5.473787903E0,6.676433337E0
1.249308967E1,-7.200185341E-1,-1.858422890E0,4.461261236E0,4.886206519E0
1.250312367E1,1.363681787E0,-1.922130643E0,2.528985089E0,3.456874283E0
1.251315767E1,2.287809078E0,-2.573646707E0,6.084659386E-1,3.496849804E0
1.252319267E1,2.645072785E0,-2.859060413E0,-6.515833068E-1,3.949075498E0
1.253322667E1,2.517286565E0,-2.951828243E0,-1.398057568E0,4.123661794E0
1.254326067E1,1.883410673E0,-3.228663499E0,-1.871843419E0,4.180347060E0
1.255329467E1,1.190639433E0,-3.623846399E0,-2.184778215E0,4.395809463E0
1.256332867E1,6.225689842E-1,-4.080791684E0,-2.340685449E0,4.745446373E0
1.257336267E1,3.842263877E-1,-4.701705176E0,-2.584092173E0,5.378772521E0
1.258339667E1,3.764947607E-1,-5.293540463E0,-2.835655178E0,6.016997526E0
1.259343167E1,3.014144652E-1,-5.903171167E0,-3.192695521E0,6.718004555E0
1.260346567E1,3.665121017E-1,-6.426544331E0,-3.553856397E0,7.352870082E0
1.261349967E1,5.198927544E-1,-6.774078856E0,-3.751333242E0,7.760859096E0
1.262353367E1,6.565702508E-1,-6.898290088E0,-3.646166391E0,7.830199230E0
1.263356767E1,8.775198658E-1,-6.773640899E0,-3.289104413E0,7.580927383E0
1.264360167E1,1.271456432E0,-6.387353368E0,-2.783299501E0,7.082488307E0
1.265363667E1,2.114629753E0,-5.510255817E0,-2.170054049E0,6.288379182E0
1.266367067E1,3.087072587E0,-4.238620314E0,-1.447912098E0,5.439886834E0
1.267370467E1,4.423762457E0,-2.548573846E0,-9.847383589E-1,5.199481952E0
1.268373867E1,5.876999030E0,-8.665784097E-1,-9.317801267E-1,6.013176361E0
1.269377267E1,6.788817932E0,3.754497170E-1,-8.139517146E-1,6.847738955E0
1.270380667E1,6.977537987E0,1.583722453E0,-2.861909468E-1,7.160734489E0
1.271384167E1,6.231811000E0,2.555958880E0,5.490316227E-1,6.757945683E0
1.272387567E1,4.450854654E0,3.067435298E0,1.396873507E0,5.583056694E0
1.273390967E1,2.202152339E0,3.414805516E0,2.207956431E0,4.624439776E0
1.274394367E1,4.858799395E-1,3.892233013E0,2.899633073E0,4.877850869E0
1.275397767E1,-3.260577017E-1,4.358412806E0,3.381887446E0,5.526231854E0
1.276401167E1,-7.372321522E-1,4.596583933E0,3.799103240E0,6.008766972E0
1.277404667E1,-5.269601378E-1,4.765147465E0,3.624963802E0,6.010381013E0
1.278408067E1,1.070287509E-1,5.147622027E0,2.923313127E0,5.920745504E0
1.279411467E1,3.963571675E-1,5.476444293E0,2.070714240E0,5.868253450E0
1.280414867E1,1.527722499E-1,5.371561031E0,1.116590075E0,5.488513521E0
1.281418267E1,-1.270168729E-1,4.916081058E0,1.998893694E-1,4.921782403E0
1.282421667E1,-1.709667385E-1,4.506659603E0,-7.254734015E-1,4.567879383E0
1.283425167E1,-5.486986238E-1,3.887219610E0,-1.515564383E0,4.208144707E0
1.284428567E1,-1.507446109E0,2.858395000E0,-1.804926714E0,3.701428938E0
1.285431967E1,-2.329083112E0,1.629510244E0,-1.749959963E0,3.338007137E0
1.286435367E1,-2.629599883E0,4.245289063E-1,-1.585612273E0,3.099868806E0
1.287438767E1,-2.638816849E0,-8.336118078E-1,-1.436422904E0,3.117943837E0
1.288442167E1,-2.483180341E0,-2.068887570E0,-1.330971878E0,3.495420793E0
1.289445567E1,-2.061951895E0,-3.064615771E0,-1.213692520E0,3.888002697E0
1.290449067E1,-1.437486220E0,-3.875485418E0,-1.162653928E0,4.293893107E0
1.291452467E1,-7.650656296E-1,-4.523792530E0,-1.220491662E0,4.747591407E0
1.292455867E1,-2.281454909E-1,-5.150174922E0,-1.332038118E0,5.324535439E0
1.293459267E1,2.101803593E-1,-5.631497249E0,-1.462750870E0,5.822162584E0
1.294462667E1,7.936566138E-1,-5.731122109E0,-1.582968162E0,5.998453105E0
1.295466067E1,1.276117540E0,-5.402455965E0,-1.551975287E0,5.763994597E0
1.296469567E1,1.002578652E0,-5.409857955E0,-1.250212767E0,5.642229968E0
1.297472967E1,3.588247673E-1,-5.560209750E0,-7.944573900E-1,5.628130260E0
1.298476367E1,-2.025588061E-1,-5.613364449E0,-4.015493488E-1,5.631352625E0
1.299479767E1,-6.250857720E-1,-5.600624535E0,-2.558361501E-2,5.635457561E0
1.300483167E1,-8.897235896E-1,-5.571906520E0,2.833893996E-1,5.649607056E0
1.301486567E1,-7.615267485E-1,-5.320538228E0,5.042048210E-1,5.398358317E0
1.302490067E1,6.863900274E-3,-4.490227758E0,4.929027379E-1,4.517205501E0
1.303493467E1,1.347216467E0,-3.392432899E0,1.951993543E-1,3.655365368E0
1.304496867E1,2.697240766E0,-2.376123669E0,-2.961603034E-1,3.606768965E0
1.305500267E1,3.376788089E0,-1.379200882E0,-6.781360978E-1,3.710089142E0
1.306503667E1,3.148317493E0,-7.169124931E-1,-5.931327850E-1,3.282936652E0
1.307507067E1,2.432233404E0,6.809374988E-2,2.013760605E-1,2.441505357E0
1.308510567E1,1.182092558E0,9.302499104E-1,1.165435887E0,1.902879008E0
1.309513967E1,-5.087469381E-1,1.338598402E0,1.517016247E0,2.086146548E0
1.310517367E1,-2.318499944E0,1.458066373E0,1.042429035E0,2.930538829E0
1.311520767E1,-3.514494988E0,1.692565448E0,9.051299796E-2,3.901877166E0
1.312524225E1,-3.770812072E0,2.468871619E0,-1.098436298E0,4.639063812E0
1.313527625E1,-3.793419161E0,3.247207358E0,-2.233268589E0,5.470088953E0
1.314531025E1,-3.355253963E0,4.001317499E0,-3.352201132E0,6.205281888E0
1.315534525E1,-2.175059265E0,5.180357664E0,-4.399659650E0,7.136104916E0
1.316537925E1,-6.445349269E-1,6.597163745E0,-5.097217274E0,8.361795183E0
1.317541325E1,9.368370911E-1,7.988667753E0,-5.366983246E0,9.669590755E0
1.318544725E1,2.072467820E0,8.965361513E0,-5.453092268E0,1.069621640E1
1.319548125E1,2.505906714E0,9.670495960E0,-5.283954538E0,1.130124932E1
1.320551625E1,1.597730919E0,9.547117370E0,-4.209058546E0,1.055539521E1
1.321555025E1,-6.272556737E-1,7.960315774E0,-2.253959108E0,8.297012026E0
1.322558425E1,-2.620163939E0,6.255640742E0,-3.397998279E-1,6.790711604E0
1.323561825E1,-4.522823354E0,4.439397327E0,1.140378376E0,6.439304509E0
1.324565225E1,-5.773182886E0,2.689524488E0,1.828803234E0,6.626288846E0
1.325568625E1,-5.862894377E0,1.323959897E0,1.735779880E0,6.256143546E0
1.326572025E1,-4.921293266E0,5.357417786E-1,1.207571070E0,5.095524954E0
1.327575525E1,-3.261952867E0,3.850356424E-1,4.806937516E-1,3.319586636E0
1.328578925E1,-1.808301873E0,2.100916278E-1,-2.580864510E-1,1.838668750E0
1.329582325E1,-8.075358573E-1,-1.661416161E-1,-9.326788437E-1,1.244832126E0
1.330585725E1,6.135337204E-3,-5.942700684E-1,-1.291299689E0,1.421495496E0
1.331589125E1,5.713994153E-1,-1.036186840E0,-1.287213655E0,1.748456306E0
1.332592525E1,9.993099857E-1,-1.456813899E0,-1.180687911E0,2.124841436E0
1.333596025E1,1.193868266E0,-1.928118777E0,-1.010031660E0,2.482564683E0
1.334599425E1,1.163270006E0,-2.398958800E0,-7.292670751E-1,2.764060582E0
1.335602825E1,1.058876376E0,-2.955641797E0,-5.510106128E-1,3.187577498E0
1.336606225E1,8.944025315E-1,-3.557810284E0,-4.850826716E-1,3.700442556E0
1.337609625E1,8.159964859E-1,-4.093915760E0,-5.723120195E-1,4.213494697E0
1.338613025E1,6.751125026E-1,-4.561350950E0,-7.431343317E-1,4.670540441E0
1.339616525E1,4.922510657E-1,-5.054029155E0,-9.731252038E-1,5.170347616E0
1.340619925E1,5.565881257E-1,-5.398531314E0,-1.299132035E0,5.580472626E0
1.341623325E1,7.233697195E-1,-5.610722092E0,-1.634814253E0,5.888640232E0
1.342626725E1,7.432141462E-1,-5.916454287E0,-1.845111996E0,6.241893693E0
1.343630125E1,8.574402349E-1,-6.043761036E0,-1.973985798E0,6.415517995E0
1.344633525E1,9.246210882E-1,-6.024741213E0,-2.008532318E0,6.417681272E0
1.345637025E1,1.037475274E0,-5.911319847E0,-1.955156594E0,6.312106985E0
1.346640425E1,1.211848746E0,-5.545845480E0,-1.813766827E0,5.959423594E0
1.347643825E1,1.617691706E0,-4.847570987E0,-1.584371786E0,5.350336894E0
1.348647225E1,2.242500027E0,-3.802766520E0,-1.284587086E0,4.597825960E0
1.349650625E1,3.012486089E0,-2.406530360E0,-8.738577546E-1,3.953490633E0
1.350654025E1,4.351803113E0,-4.981465209E-1,-4.070585954E-1,4.399095020E0
1.351657525E1,6.255983974E0,1.803752008E0,-3.282451451E-2,6.510908864E0
1.352660925E1,8.123475895E0,4.058064142E0,2.404534413E-1,9.083862783E0
1.353664325E1,9.257656222E0,5.793860394E0,6.760895723E-1,1.094212567E1
1.354667725E1,9.467994018E0,7.199193068E0,1.005412286E0,1.193658852E1
1.355671125E1,8.803990640E0,8.770745711E0,8.021771765E-1,1.245310081E1
1.356674525E1,6.981381361E0,1.007738616E1,3.386964583E-1,1.226409853E1
1.357678025E1,3.454281823E0,1.074698356E1,1.548962875E-1,1.128953992E1
1.358681425E1,-1.485684527E0,1.069526845E1,2.354394539E-1,1.080053043E1
1.359684825E1,-4.875470976E0,8.737003183E0,-8.327823803E-2,1.000561728E1
1.360688225E1,-8.662356459E0,8.606521397E0,2.823518112E-2,1.221103711E1
1.361691625E1,-1.025286344E1,8.246707134E0,1.495219581E0,1.324254767E1
1.362695025E1,-1.018392593E1,4.966136733E0,7.765804052E-1,1.135684545E1
1.363698525E1,-9.881509109E0,1.381863120E0,-9.274797919E-1,1.002067796E1
1.364701925E1,-7.200212823E0,1.567755461E-1,-1.994128287E0,7.472897088E0
1.365705325E1,-3.112262100E0,6.656739271E-1,-3.018515153E0,4.386425753E0
1.366708725E1,-8.597985631E-1,1.261308736E-1,-3.816973208E0,3.914645199E0
1.367712125E1,-1.606537119E-1,-1.429850634E0,-4.849497060E0,5.058448792E0
1.368715525E1,5.905395448E-2,-3.222889373E0,-5.330428208E0,6.229283118E0
1.369719025E1,-1.709225920E-1,-4.856054127E0,-4.761923018E0,6.803409958E0
1.370722425E1,4.992615849E-2,-5.896365008E0,-3.240340973E0,6.728255536E0
1.371725825E1,4.303670588E-1,-6.640772864E0,-1.586271254E0,6.841150234E0
1.372729225E1,6.273150229E-1,-7.465488133E0,-2.287259001E-2,7.491832910E0
1.373732625E1,9.106114519E-1,-7.960989373E0,1.409922738E0,8.135996998E0
1.374736025E1,1.295956997E0,-7.861452221E0,2.540305883E0,8.362720224E0
1.375739525E1,1.701900967E0,-7.363727285E0,3.359679721E0,8.270936721E0
1.376742925E1,1.966477827E0,-6.601474897E0,3.733216229E0,7.834756491E0
1.377746325E1,1.880518787E0,-5.875141954E0,3.615378461E0,7.150147223E0
1.378749725E1,1.478764347E0,-5.489521590E0,3.262877896E0,6.554995305E0
1.379753125E1,1.170726302E0,-5.090508764E0,2.868846313E0,5.959375698E0
1.380756525E1,9.116871934E-1,-4.639541087E0,2.462806887E0,5.331222449E0
1.381759925E1,7.596841447E-1,-4.202696190E0,1.874521444E0,4.664076105E0
1.382763425E1,8.729321404E-1,-3.739885563E0,1.088673202E0,3.991736951E0
1.383766825E1,1.132238905E0,-3.078270189E0,3.133075556E-1,3.294825324E0
1.384770225E1,1.467405546E0,-2.062784831E0,-5.831891562E-1,2.597781724E0
1.385773625E1,1.670457272E0,-9.887811238E-1,-1.620053104E0,2.528376488E0
1.386777025E1,1.792535440E0,-2.284741044E-2,-2.314953169E0,2.927919651E0
1.387780425E1,1.864687012E0,8.877184331E-1,-2.444039810E0,3.199755031E0
1.388783925E1,1.554354520E0,1.697058449E0,-1.754254743E0,2.893688832E0
1.389787325E1,4.633674283E-1,2.251003779E0,-3.682465321E-1,2.327516465E0
1.390790725E1,-1.299857820E0,2.367128897E0,9.029165161E-1,2.847487981E0
1.391794125E1,-3.097520977E0,2.393372955E0,1.621211291E0,4.236885218E0
1.392797525E1,-4.839686016E0,2.251190890E0,1.900700013E0,5.665958145E0
1.393801025E1,-6.017012948E0,2.029210703E0,1.709505855E0,6.576058938E0
1.394804425E1,-5.969141793E0,1.957061325E0,6.720947546E-1,6.317630421E0
1.395807825E1,-4.378617859E0,2.493001909E0,-8.463956485E-1,5.109181781E0
1.396811225E1,-2.223554902E0,3.312171094E0,-2.316593167E0,4.613163520E0
1.397814625E1,-4.330374822E-2,4.137501490E0,-3.512865661E0,5.427800563E0
1.398818025E1,1.948348096E0,4.996827013E0,-4.398532307E0,6.936240117E0
1.399821425E1,3.695829132E0,5.868221775E0,-5.118835600E0,8.619608905E0
1.400824925E1,5.127848498E0,6.466678450E0,-5.877691340E0,1.013212791E1
1.401828325E1,6.079912616E0,6.629274314E0,-6.643290675E0,1.118239359E1
1.402831725E1,6.512756848E0,6.246938916E0,-6.801186547E0,1.130028256E1
1.403835125E1,5.871766357E0,5.246833490E0,-5.842103432E0,9.804951521E0
1.404838525E1,3.972684853E0,3.884106553E0,-3.825019269E0,6.745315490E0
1.405841925E1,1.329734900E0,1.958001557E0,-1.696238962E0,2.911905152E0
1.406845425E1,-1.028332202E0,-1.134500170E-1,1.270257899E-1,1.042340432E0
1.407848825E1,-2.256258964E0,-1.370400238E0,1.590169300E0,3.081775418E0
1.408852225E1,-2.337390836E0,-2.056304362E0,2.392350862E0,3.926210157E0
1.409855625E1,-2.675664833E0,-3.185114021E0,2.929094853E0,5.087605555E0
1.410859025E1,-2.782479429E0,-3.692328989E0,3.806467223E0,5.988712538E0
1.411862425E1,-2.833755710E0,-3.720832996E0,4.055607727E0,6.190535004E0
1.412865912E1,-2.400063193E0,-3.479872747E0,4.238404552E0,5.986141563E0
1.413869313E1,-1.725868557E0,-2.701168633E0,4.165656418E0,5.256198974E0
1.414872713E1,-8.798609447E-1,-1.943871760E0,3.338041515E0,3.961731169E0
1.415876112E1,-6.330431747E-1,-2.318717460E0,1.798795323E0,3.002142391E0
1.416879513E1,-5.278459910E-1,-3.176825008E0,4.519242811E-1,3.251933898E0
1.417882912E1,-4.017062735E-1,-3.502624848E0,-7.824808306E-1,3.611374393E0
1.418886412E1,-3.114136425E-1,-3.760906304E0,-1.800026747E0,4.181087295E0
1.419889813E1,-2.303829280E-1,-4.113686365E0,-2.378191829E0,4.757235351E0
1.420893212E1,-2.544234627E-1,-4.431027623E0,-2.702716099E0,5.196480675E0
1.421896613E1,-2.793352327E-1,-4.667904761E0,-2.574719086E0,5.338215189E0
1.422900013E1,-2.287243652E-1,-4.723402439E0,-2.308226970E0,5.262200793E0
1.423903412E1,-4.588090852E-2,-4.755039968E0,-2.112768000E0,5.203489097E0
1.424906912E1,2.563039273E-1,-4.862614118E0,-1.817709897E0,5.197574149E0
1.425910313E1,5.606020930E-1,-4.749374601E0,-1.380362724E0,4.977573210E0
1.426913712E1,9.646160433E-1,-4.376275465E0,-9.241766998E-1,4.575628222E0
1.427917113E1,1.382551629E0,-3.929351723E0,-6.018293488E-1,4.208735265E0
1.428920512E1,1.724788577E0,-3.352167218E0,-3.266950482E-1,3.783999253E0
1.429923913E1,1.817830495E0,-2.534221271E0,6.065404505E-2,3.119369179E0
1.430927413E1,1.708991885E0,-1.544436765E0,5.190675661E-1,2.361221998E0
1.431930813E1,1.180694562E0,-7.091590852E-1,8.808649117E-1,1.634891204E0
1.432934212E1,3.659050877E-1,4.758522570E-2,1.122671837E0,1.181754180E0
1.433937613E1,-5.036606645E-1,5.995015723E-1,1.195650351E0,1.429215156E0
1.434941012E1,-1.065208179E0,9.760061270E-1,1.013461636E0,1.764755199E0
1.435944413E1,-8.396435031E-1,1.377674759E0,9.182327127E-1,1.856378267E0
1.436947913E1,1.338307795E-1,1.883817932E0,1.076810225E0,2.173982736E0
1.437951313E1,1.392364573E0,2.588724922E0,1.203514271E0,3.176259188E0
1.438954712E1,2.714217572E0,3.428761650E0,1.222147593E0,4.540597783E0
1.439958113E1,3.927292626E0,4.526206260E0,1.284587086E0,6.128648665E0
1.440961512E1,4.439499654E0,5.551074060E0,1.508538077E0,7.266310448E0
1.441964913E1,3.525217904E0,5.804310538E0,1.641419853E0,6.986518534E0
1.442968413E1,1.807960834E0,5.362839909E0,1.663491776E0,5.898811673E0
1.443971812E1,4.259630091E-1,5.116986126E0,1.767255296E0,5.430302273E0
1.444975213E1,-7.601819620E-1,4.715725045E0,1.849085179E0,5.122016723E0
1.445978613E1,-1.608428254E0,3.979278173E0,1.746890029E0,4.633931484E0
1.446982012E1,-1.800513966E0,3.212121141E0,1.277337123E0,3.897584238E0
1.447985413E1,-1.678226906E0,2.309844895E0,6.396193188E-1,2.925908724E0
1.448988913E1,-1.585463607E0,1.444455809E0,3.446517013E-1,2.172310344E0
1.449992312E1,-1.413341751E0,9.234800041E-1,1.913238198E-1,1.699104184E0
1.450995713E1,-1.211240197E0,4.852060479E-1,-2.111107975E-1,1.321777399E0
1.451999112E1,-1.150346855E0,4.735075235E-3,-7.035314324E-1,1.348434939E0
1.453002513E1,-1.159099698E0,-4.106160414E-1,-1.088419140E0,1.642185699E0
1.454005913E1,-1.082473838E0,-6.995912862E-1,-1.332864330E0,1.854104878E0
1.455009413E1,-9.635860562E-1,-1.045810772E0,-1.284232452E0,1.916108361E0
1.456012812E1,-8.241378567E-1,-1.511533898E0,-1.060997161E0,2.022289026E0
1.457016213E1,-4.575288373E-1,-2.078020336E0,-8.459231204E-1,2.289778828E0
1.458019612E1,1.159336218E-1,-2.601137976E0,-5.869990557E-1,2.669068614E0
1.459023013E1,7.382868437E-1,-3.001520221E0,-3.687841836E-1,3.112907463E0
1.460026413E1,1.149369639E0,-3.384889407E0,-1.685921842E-1,3.578679950E0
1.461029913E1,1.311520677E0,-3.813714847E0,2.044578356E-1,4.038107283E0
1.462033312E1,1.354205790E0,-4.011963524E0,6.733367032E-1,4.287552560E0
1.463036713E1,1.045524259E0,-4.188166444E0,1.119333369E0,4.459458076E0
1.464040112E1,3.906849298E-1,-4.513431848E0,1.551100836E0,4.788487816E0
1.465043513E1,-1.700224131E-1,-4.875080967E0,1.889802557E0,5.231316829E0
1.466046912E1,-3.536599217E-1,-5.193134415E0,2.006019769E0,5.578336285E0
1.467050412E1,-8.239413902E-2,-5.382205887E0,1.613491066E0,5.619455706E0
1.468053813E1,5.601047873E-1,-5.386158020E0,9.910942823E-1,5.505150631E0
1.469057213E1,1.204615594E0,-5.378561903E0,5.773398940E-1,5.541962489E0
1.470060612E1,1.379637523E0,-5.272744841E0,3.533906575E-1,5.461695965E0
1.471064013E1,7.761580901E-1,-4.941362665E0,1.040465248E-1,5.003030286E0
1.472067412E1,-3.118035056E-1,-4.420544150E0,-2.830754042E-1,4.440558939E0
1.473070912E1,-1.655596866E0,-3.998893243E0,-7.868602489E-1,4.399010935E0
1.474074313E1,-2.707743535E0,-3.269443150E0,-1.253512058E0,4.426333250E0
1.475077712E1,-2.856926471E0,-2.237652832E0,-1.631306509E0,3.978728438E0
1.476081113E1,-2.186722560E0,-1.099870035E0,-1.948149583E0,3.128379205E0
1.477084513E1,-9.288071099E-1,2.754021031E-1,-2.163171583E0,2.370198360E0
1.478087912E1,6.212649089E-1,1.806793145E0,-2.184573562E0,2.902211778E0
1.479091412E1,2.211404242E0,3.510231491E0,-2.253842018E0,4.721423269E0
1.480094813E1,3.095131804E0,4.896534401E0,-2.831237606E0,6.447619438E0
1.481098212E1,3.325519118E0,5.759957653E0,-3.883662749E0,7.701884569E0
1.482101613E1,3.777399545E0,6.749222926E0,-4.903111349E0,9.157579284E0
1.483105013E1,3.861978350E0,7.723876593E0,-5.402008068E0,1.018601186E1
1.484108513E1,3.043144795E0,7.694359848E0,-5.558901143E0,9.968213763E0
1.485111912E1,1.979086324E0,7.002058285E0,-4.715785856E0,8.670884566E0
1.486115313E1,1.059705218E0,6.405897812E0,-2.964444780E0,7.137677128E0
1.487118712E1,-4.082759857E-1,5.616614916E0,-1.023591060E0,5.723704312E0
1.488122113E1,-2.795322838E0,3.990308946E0,6.213233811E-1,4.911459864E0
1.489125512E1,-4.665161832E0,2.376772125E0,1.885486435E0,5.564875538E0
1.490129012E1,-5.268565836E0,1.472510750E0,2.335286130E0,5.948078277E0
1.491132413E1,-5.350644956E0,3.083423924E-1,2.044415803E0,5.736210635E0
1.492135813E1,-5.291127902E0,-1.209227001E0,1.551711286E0,5.645004192E0
1.493139212E1,-3.520906168E0,-1.107334591E0,1.388941174E0,3.943618608E0
1.494142613E1,-1.356719800E0,-5.842450172E-1,1.711101414E0,2.260508550E0
1.495146012E1,-3.346165636E-1,-7.637685710E-1,2.217893336E0,2.369464396E0
1.496149512E1,2.782111055E-1,-8.518486887E-1,2.588056585E0,2.738810781E0
1.497152913E1,6.122046483E-1,-7.972900736E-1,2.808650397E0,2.983116331E0
1.498156312E1,7.007817793E-1,-8.097844040E-1,2.559820673E0,2.774802292E0
1.499159713E1,8.052206522E-1,-9.951961040E-1,1.760174464E0,2.176467259E0
1.500163113E1,9.304858455E-1,-1.391412792E0,9.130316144E-1,1.906688280E0
1.501166512E1,1.008949048E0,-2.025936847E0,1.688851297E-1,2.269563940E0
1.502170012E1,1.364653887E0,-2.542241312E0,-5.012531465E-1,2.928570613E0
1.503173413E1,1.813071300E0,-2.961993043E0,-1.074236426E0,3.635191085E0
1.504176812E1,2.231863503E0,-3.314717556E0,-1.438547782E0,4.247115126E0
1.505180213E1,2.854562442E0,-3.634098322E0,-1.564789753E0,4.878910157E0
1.506183613E1,3.756756535E0,-3.943202022E0,-1.334086105E0,5.607303058E0
1.507187013E1,4.737095741E0,-4.089235064E0,-8.813525695E-1,6.319707415E0
1.508190513E1,5.241072228E0,-4.657925903E0,-3.965262982E-1,7.022986894E0
1.509193913E1,5.529141154E0,-4.959877873E0,1.546252325E-1,7.429380821E0
1.510197312E1,5.406667714E0,-4.460460168E0,6.834939015E-1,7.042366406E0
1.511200713E1,4.442759476E0,-4.068325421E0,9.039672607E-1,6.091513794E0
1.512204092E1,3.596621763E0,-3.401838146E0,6.961759275E-1,4.999285129E0
1.513207492E1,3.372498572E0,-2.201987740E0,8.470506828E-2,4.028606654E0
1.514210992E1,3.748854607E0,-3.178066957E-1,-9.020055199E-1,3.868917926E0
1.515214392E1,4.153889189E0,1.928658475E0,-1.902945929E0,4.959407436E0
1.516217792E1,4.033378952E0,4.202966332E0,-2.291489900E0,6.259712271E0
1.517221192E1,3.466317147E0,6.630782896E0,-2.001700723E0,7.745285157E0
1.518224592E1,3.017148074E0,9.132318816E0,-1.218035758E0,9.694639785E0
1.519227992E1,2.600883037E0,1.127540346E1,1.657926835E-2,1.157149907E1
1.520231492E1,1.379245321E0,1.242542214E1,1.400794211E0,1.257997049E1
1.521234892E1,-9.016505939E-1,1.232077569E1,2.843293980E0,1.267670336E1
1.522238292E1,-3.592320551E0,1.154532614E1,3.769455810E0,1.266523271E1
1.523241692E1,-6.360614635E0,1.024726765E1,4.318379259E0,1.281063278E1
1.524245092E1,-8.236192086E0,8.432878972E0,4.595406303E0,1.265172190E1
1.525248492E1,-8.462987455E0,6.458331549E0,4.345044901E0,1.149833111E1
1.526251992E1,-7.705267829E0,4.032454507E0,3.612985196E0,9.417298110E0
1.527255392E1,-6.379138615E0,1.588187971E0,2.911722776E0,7.189845618E0
1.528258792E1,-3.528726234E0,6.988755870E-1,2.300254877E0,4.269837048E0
1.529262192E1,-1.247214607E0,-1.254028952E-1,1.762016922E0,2.162400008E0
1.530265592E1,1.508920777E-1,-8.793411273E-1,1.303858924E0,1.579891557E0
1.531268992E1,1.110494134E0,-1.149768419E0,1.429357129E0,2.144347556E0
1.532272492E1,1.430417229E0,-1.307590032E0,2.185795045E0,2.921230070E0
1.533275892E1,1.162126217E0,-1.566426389E0,3.261736520E0,3.800414991E0
1.534279292E1,4.344580632E-1,-2.015559794E0,4.114038953E0,4.601798735E0
1.535282692E1,-7.221165150E-1,-2.843529623E0,4.257967581E0,5.170822072E0
1.536286092E1,-2.013839251E0,-3.644635590E0,3.781711282E0,5.624967318E0
1.537289492E1,-3.216622035E0,-4.398510087E0,2.869576045E0,6.158572479E0
1.538292992E1,-4.009980441E0,-5.003726728E0,1.838911901E0,6.670743683E0
1.539296392E1,-4.465395510E0,-5.424311687E0,9.315000451E-1,7.087355408E0
1.540299792E1,-4.299307981E0,-5.544939746E0,3.634288649E-1,7.025844180E0
1.541303192E1,-4.272109365E0,-5.859091347E0,-4.068748467E-1,7.262604008E0
1.542306592E1,-4.120903876E0,-6.491561860E0,-1.302464802E0,7.798630566E0
1.543309992E1,-3.594498931E0,-6.758943338E0,-1.923289561E0,7.893211029E0
1.544313492E1,-3.075939781E0,-6.754217033E0,-2.167318429E0,7.731631292E0
1.545316892E1,-2.893379475E0,-6.821180516E0,-2.170932008E0,7.720951639E0
1.546320292E1,-2.929749449E0,-7.016717255E0,-1.682510869E0,7.787720828E0
1.547323692E1,-2.605011172E0,-7.010844896E0,-9.030229354E-1,7.533490545E0
1.548327092E1,-1.756450665E0,-6.833719286E0,-3.222833240E-1,7.063193665E0
1.549330492E1,-9.697460979E-1,-6.718850734E0,1.135488349E-1,6.789422363E0
1.550333992E1,-3.799085113E-1,-6.604209055E0,4.034415078E-1,6.627418258E0
1.551337392E1,-2.131318876E-1,-6.342105859E0,6.065059519E-1,6.374604411E0
1.552340792E1,-5.916300505E-1,-5.833228528E0,6.925062150E-1,5.903909386E0
1.553344192E1,-1.717429856E0,-5.264076928E0,5.066413558E-1,5.560283867E0
1.554347592E1,-3.083176295E0,-4.726109115E0,-8.655194789E-2,5.643542741E0
1.555350992E1,-3.943156706E0,-4.107884173E0,-1.130480209E0,5.805271974E0
1.556354492E1,-4.146479013E0,-3.577377992E0,-2.400696593E0,5.979487071E0
1.557357892E1,-3.419128070E0,-3.061411496E0,-3.639836195E0,5.857566443E0
1.558361292E1,-1.899186754E0,-2.533972179E0,-4.838720056E0,5.782831237E0
1.559364692E1,-3.171716881E-1,-1.901602823E0,-5.322534467E0,5.660924335E0
1.560368092E1,1.113537025E0,-9.823217046E-1,-5.193494604E0,5.401602247E0
1.561371592E1,1.838349691E0,-6.012925744E-2,-4.805470449E0,5.145453464E0
1.562374992E1,1.428247327E0,3.057807273E-1,-3.990499857E0,4.249409535E0
1.563378392E1,2.589664569E-1,1.423060262E-1,-3.208397634E0,3.221976103E0
1.564381792E1,-1.158963166E0,-3.165992457E-1,-2.611545435E0,2.874647850E0
1.565385192E1,-2.443566624E0,-1.044450125E0,-2.111602942E0,3.394224638E0
1.566388592E1,-3.301642597E0,-1.932666156E0,-1.739112793E0,4.202446385E0
1.567392092E1,-3.417075113E0,-2.705872133E0,-1.571766651E0,4.633421709E0
1.568395492E1,-3.000361302E0,-3.269232650E0,-1.504012770E0,4.685307298E0
1.569398892E1,-2.688452109E0,-3.939234686E0,-1.189599579E0,4.915332320E0
1.570402292E1,-2.638826497E0,-4.499922441E0,-3.940777767E-1,5.231443831E0
1.571405692E1,-2.723508505E0,-4.733001813E0,7.504410124E-1,5.511983894E0
1.572409092E1,-3.108708454E0,-4.792674403E0,2.092416181E0,6.083748981E0
1.573412592E1,-3.612383225E0,-4.813695143E0,3.595628321E0,7.010671617E0
1.574415992E1,-3.568396376E0,-4.475333145E0,4.861164009E0,7.509525616E0
1.575419392E1,-2.975430237E0,-4.013489648E0,5.456049789E0,7.397956714E0
1.576422792E1,-2.081549715E0,-3.847706466E0,4.771398139E0,6.473324839E0
1.577426192E1,-8.299575904E-1,-2.705919496E0,3.928667891E0,4.842030702E0
1.578429592E1,4.036251104E-1,-1.445350433E0,2.744784184E0,3.128224947E0
1.579433092E1,5.108110052E-1,-1.096006195E0,8.185248220E-1,1.460185039E0
1.580436492E1,6.576109090E-1,-4.944171667E-1,-3.389309317E-1,8.898171828E-1
1.581439892E1,5.926746556E-1,6.573287809E-1,-8.697582717E-1,1.240896380E0
1.582443292E1,3.935947967E-1,1.788635786E0,-1.414366914E-1,1.836883006E0
1.583446692E1,3.506890976E-1,2.034748017E0,8.374996215E-1,2.228135532E0
1.584450092E1,9.422899121E-1,2.552817171E0,1.408602437E0,3.064138804E0
1.585453592E1,2.367134160E0,3.741987637E0,1.690391161E0,4.739537729E0
1.586456992E1,3.597665491E0,4.775688826E0,1.719666416E0,6.221547503E0
1.587460392E1,4.362073163E0,5.576706499E0,2.155164991E0,7.400815752E0
1.588463792E1,4.665030854E0,6.283883379E0,3.226470793E0,8.465212163E0
1.589467192E1,4.727577351E0,6.740515253E0,4.358605179E0,9.315684226E0
1.590470592E1,5.116196167E0,7.104118511E0,5.069643559E0,1.011658286E1
1.591474092E1,5.808963752E0,7.864606209E0,5.314867598E0,1.112851779E1
1.592477492E1,6.480773748E0,8.668531119E0,5.144083292E0,1.198354927E1
1.593480892E1,6.757485042E0,9.535140519E0,4.610800853E0,1.256351835E1
1.594484292E1,6.675398321E0,1.071892628E1,4.253454992E0,1.332472149E1
1.595487692E1,6.111232057E0,1.182553056E1,4.077039526E0,1.392165872E1
1.596491192E1,4.980807981E0,1.238168847E1,4.506236849E0,1.408619282E1
1.597494592E1,3.806307009E0,1.262583896E1,5.100941951E0,1.413928539E1
1.598497992E1,2.999669577E0,1.273940125E1,5.269149388E0,1.410866035E1
1.599501392E1,2.342624971E0,1.268956660E1,5.364922103E0,1.397481239E1
1.600504792E1,1.988097176E0,1.273952872E1,5.106443596E0,1.386808886E1
1.601508192E1,1.348822258E0,1.271263036E1,5.275970750E0,1.382990092E1
1.602511692E1,-3.063718808E-1,1.188467047E1,6.358585067E0,1.348224239E1
1.603515092E1,-2.142037992E0,1.035850625E1,7.264995294E0,1.283226929E1
1.604518492E1,-3.603914410E0,8.264626511E0,7.276298547E0,1.158605934E1
1.605521892E1,-4.334679542E0,5.780171478E0,6.266783781E0,9.564120869E0
1.606525292E1,-4.252982830E0,3.234938146E0,4.620650488E0,7.064212531E0
1.607528692E1,-3.494353084E0,8.819343674E-1,2.959663512E0,4.663466502E0
1.608532192E1,-2.188051778E0,-1.196780033E0,1.701060868E0,3.018850958E0
1.609535592E1,-7.282435200E-1,-2.913659374E0,1.239734264E0,3.249106125E0
1.610538992E1,4.838076863E-1,-3.995912333E0,9.126082760E-1,4.127255639E0
1.611542392E1,1.237167629E0,-5.042792560E0,5.664016539E-1,5.223136164E0
1.612545812E1,1.646159606E0,-5.612478595E0,1.349249105E0,6.002518686E0
1.613549213E1,1.642490771E0,-5.918848137E0,2.570206205E0,6.658565847E0
1.614552713E1,8.787186912E-1,-6.360652058E0,3.553834178E0,7.338922162E0
1.615556113E1,-2.847000530E-1,-6.827917678E0,3.978395829E0,7.907537373E0
1.616559512E1,-1.305228634E0,-7.316133288E0,3.969308671E0,8.425250109E0
1.617562913E1,-2.250274631E0,-7.701455444E0,3.325214478E0,8.685229024E0
1.618566312E1,-2.991504817E0,-7.782387925E0,2.477302719E0,8.697798092E0
1.619569713E1,-3.939053423E0,-8.012078251E0,1.644490811E0,9.078209614E0
1.620573213E1,-4.624206179E0,-8.153117770E0,8.214251141E-1,9.409110021E0
1.621576612E1,-4.957982790E0,-7.894522319E0,-5.171292141E-2,9.322432634E0
1.622580013E1,-5.052755046E0,-7.786573362E0,-9.167909355E-1,9.327462887E0
1.623583413E1,-4.523801885E0,-7.676400125E0,-1.947405818E0,9.120542297E0
1.624586812E1,-3.872101634E0,-7.359735391E0,-2.806033476E0,8.776827442E0
1.625590213E1,-3.642503110E0,-7.030053585E0,-3.038691848E0,8.480750583E0
1.626593713E1,-4.070084848E0,-6.904624377E0,-2.481078559E0,8.390183506E0
1.627597112E1,-4.730724907E0,-6.925553901E0,-1.370228038E0,8.498269227E0
1.628600513E1,-5.421986250E0,-6.980125964E0,-4.705090714E-1,8.851071808E0
1.629603913E1,-5.919598335E0,-6.851895356E0,-3.332515311E-1,9.060969650E0
1.630607313E1,-6.238754568E0,-6.600530571E0,-1.013835566E0,9.138759486E0
1.631610813E1,-6.318386629E0,-6.098374030E0,-2.026292066E0,9.012104911E0
1.632614213E1,-6.260775182E0,-5.531071320E0,-2.994680440E0,8.874579808E0
1.633617612E1,-6.181368824E0,-4.921605508E0,-3.571225551E0,8.670938430E0
1.634621013E1,-5.916769452E0,-4.298300505E0,-3.409403858E0,8.068926983E0
1.635624412E1,-5.205885438E0,-3.538951845E0,-2.857857933E0,6.913231901E0
1.636627813E1,-4.154973555E0,-2.859696005E0,-2.633977401E0,5.690299064E0
1.637631313E1,-2.644602669E0,-2.023204443E0,-2.688268798E0,4.279493969E0
1.638634713E1,-1.152774911E0,-1.109119745E0,-2.274091218E0,2.780382613E0
1.639638112E1,1.539001778E-1,1.226453483E-2,-1.454498402E0,1.462669233E0
1.640641513E1,8.109822062E-1,8.607136524E-1,-8.325123851E-1,1.446235459E0
1.641644912E1,5.406709814E-1,1.074055163E0,-4.281544724E-1,1.276415236E0
1.642648313E1,-4.315724623E-1,1.065783691E0,-2.409184411E-1,1.174815459E0
1.643651813E1,-1.644139685E0,1.136006413E0,-5.491028126E-1,2.072491200E0
1.644655212E1,-2.942274477E0,1.150254323E0,-1.581490570E0,3.532870863E0
1.645658613E1,-4.042756424E0,7.690725803E-1,-2.849552840E0,5.005527297E0
1.646662013E1,-4.644078234E0,1.042394829E-1,-3.744118363E0,5.966301269E0
1.647665412E1,-4.753947124E0,-8.130810642E-1,-4.164830207E0,6.372356293E0
1.648668813E1,-4.586344289E0,-1.868750242E0,-4.202766942E0,6.495385390E0
1.649672313E1,-4.276655282E0,-2.841934503E0,-3.865236418E0,6.427007444E0
1.650675712E1,-3.973618946E0,-3.829363750E0,-3.219155926E0,6.388790115E0
1.651679113E1,-3.572179817E0,-4.711337879E0,-2.218728903E0,6.315055914E0
1.652682513E1,-3.220458978E0,-5.419794129E0,-1.020997382E0,6.386545238E0
1.653685913E1,-3.009660422E0,-5.818935009E0,1.819131647E-1,6.553712909E0
1.654689313E1,-2.743053701E0,-5.582175985E0,1.045041279E0,6.306912367E0
1.655692813E1,-2.007733003E0,-4.759841702E0,1.183024166E0,5.299682162E0
1.656696212E1,-2.445409959E0,-5.229704656E0,1.259365998E0,5.908962969E0
1.657699613E1,-2.667719051E0,-5.413160462E0,1.483570173E0,6.214500108E0
1.658703012E1,-2.404216617E0,-5.071950871E0,1.907473720E0,5.928186836E0
1.659706413E1,-1.969895963E0,-4.564986749E0,2.370768789E0,5.508188338E0
1.660709813E1,-1.318207406E0,-4.088421716E0,2.929348623E0,5.199417876E0
1.661713313E1,-1.225707963E-1,-3.014137927E0,3.344936551E0,4.504292572E0
1.662716712E1,1.313664412E0,-1.974528127E0,3.188496051E0,3.973786932E0
