"Time (s)","Linear Acceleration x (m/s^2)","Linear Acceleration y (m/s^2)","Linear Acceleration z (m/s^2)","Absolute acceleration (m/s^2)"
5.830083333E-3,2.582122246E0,1.957998633E-2,1.500875008E0,2.986697919E0
1.585908333E-2,2.685978152E0,-3.227282971E-1,4.948615551E-1,2.750185474E0
2.588908333E-2,2.862100088E0,-2.984465647E-1,-3.741422796E-1,2.901839022E0
3.591908333E-2,3.126911421E0,-2.079679191E-2,-9.195500904E-1,3.259383364E0
4.594908333E-2,3.342956684E0,4.530913854E-1,-1.391854842E0,3.649371329E0
5.597808333E-2,3.408524729E0,7.596568090E-1,-1.909058023E0,3.979902239E0
6.600808333E-2,3.175547976E0,7.997459042E-1,-2.441253465E0,4.084533871E0
7.603808333E-2,2.705862193E0,7.743040842E-1,-2.784850475E0,3.959372323E0
8.606808333E-2,2.523901520E0,9.992990953E-1,-2.560402763E0,3.731533180E0
9.609708333E-2,2.425127576E0,9.681679344E-1,-1.823890988E0,3.185148543E0
1.061270833E-1,1.972069665E0,5.327152598E-1,-1.073263523E0,2.307539578E0
1.161570833E-1,1.450156113E0,9.116978645E-2,-4.262819016E-1,1.514259206E0
1.261870833E-1,6.434115306E-1,-2.243190730E-1,2.871221890E-1,7.394163885E-1
1.362160833E-1,-3.316343375E-2,-4.146020883E-1,8.883820190E-1,9.809267642E-1
1.462460833E-1,-4.997951433E-1,-4.984435594E-1,1.328270026E0,1.504175000E0
1.562760833E-1,-8.970467155E-1,-7.359662300E-1,1.492981267E0,1.890854877E0
1.663060833E-1,-1.197760611E0,-9.360819232E-1,1.514437625E0,2.145786841E0
1.763350833E-1,-1.483098303E0,-1.003662288E0,1.535555429E0,2.358993226E0
1.863650833E-1,-1.729230706E0,-9.124732053E-1,1.471378729E0,2.446998478E0
1.963950833E-1,-1.943353112E0,-6.405887872E-1,1.303093377E0,2.425907596E0
2.064250833E-1,-2.134666992E0,-1.980878788E-1,9.470910609E-1,2.343720003E0
2.164540833E-1,-2.280095431E0,2.739391297E-1,4.258638257E-1,2.335645054E0
2.264840833E-1,-2.349030303E0,5.187205338E-1,-2.243371993E-1,2.416059092E0
2.365140833E-1,-2.278567408E0,4.934061831E-1,-8.861515255E-1,2.494109785E0
2.465440833E-1,-2.039801911E0,1.458137709E-1,-1.498454261E0,2.535235426E0
2.565730833E-1,-1.633323506E0,-4.100722504E-1,-2.033465722E0,2.640243884E0
2.666030833E-1,-1.201033882E0,-8.430305028E-1,-2.447122316E0,2.853347235E0
2.766330833E-1,-8.400506886E-1,-9.090373814E-1,-2.757387273E0,3.022452430E0
2.866630833E-1,-4.965793940E-1,-6.647676086E-1,-2.917827854E0,3.033517175E0
2.966920833E-1,-1.832940212E-1,-2.443674213E-1,-2.828434451E0,2.844881997E0
3.067220833E-1,1.484553967E-1,2.125398570E-1,-2.481177084E0,2.494684734E0
3.167520833E-1,5.248530205E-1,4.751424050E-1,-1.940474090E0,2.065592092E0
3.267820833E-1,8.248747520E-1,4.135852575E-1,-1.345469465E0,1.631489872E0
3.368110833E-1,1.052073798E0,9.830163538E-2,-8.004547329E-1,1.325613167E0
3.468410833E-1,1.279469895E0,-3.631068295E-1,-3.538574114E-1,1.376264818E0
3.568710833E-1,1.542854654E0,-8.452986377E-1,-4.810679734E-2,1.759899013E0
3.669010833E-1,1.842150966E0,-1.229572388E0,1.341468215E-1,2.218865432E0
3.769300833E-1,2.150254499E0,-1.391998683E0,2.325116068E-1,2.572025737E0
3.869600833E-1,2.439120109E0,-1.283958510E0,2.158470422E-1,2.764859184E0
3.969900833E-1,2.629395230E0,-9.351288271E-1,-6.179936841E-2,2.791416193E0
4.070200833E-1,2.703209896E0,-5.198794520E-1,-5.376541105E-1,2.804762081E0
4.170490833E-1,2.724206663E0,-2.200839347E-1,-1.092376243E0,2.943301673E0
4.270790833E-1,2.684488866E0,-1.150626791E-1,-1.677723607E0,3.167724166E0
4.371090833E-1,2.651559394E0,-1.384755152E-1,-2.299007958E0,3.512176003E0
4.471390833E-1,2.606352815E0,-3.241649580E-1,-2.941013233E0,3.943059314E0
4.571680833E-1,2.615760693E0,-7.208312970E-1,-3.547661857E0,4.466285528E0
4.671980833E-1,2.646921090E0,-1.238937873E0,-3.989765155E0,4.945642961E0
4.772280833E-1,2.733381236E0,-1.834610689E0,-4.214916579E0,5.348148383E0
4.872580833E-1,2.958313682E0,-2.480874199E0,-4.120193147E0,5.646445626E0
4.972870833E-1,3.209437561E0,-2.880615004E0,-3.688149399E0,5.674581769E0
5.073170833E-1,3.449274560E0,-3.120507551E0,-3.098179958E0,5.588719121E0
5.173470833E-1,3.681325114E0,-3.272214146E0,-2.392844367E0,5.475878393E0
5.273770833E-1,3.887382748E0,-3.222927965E0,-1.657426752E0,5.314703447E0
5.374060833E-1,4.170943471E0,-3.018522754E0,-1.116040071E0,5.268187022E0
5.474360833E-1,4.474312221E0,-2.841322884E0,-8.811866547E-1,5.372995022E0
5.574660833E-1,4.514570009E0,-2.496848792E0,-9.115535845E-1,5.238943232E0
5.674960833E-1,4.154402282E0,-1.964591954E0,-1.129364706E0,4.732245187E0
5.775259583E-1,3.415387899E0,-1.501476102E0,-1.378804441E0,3.977487482E0
5.875559583E-1,2.406358452E0,-1.108654307E0,-1.624962280E0,3.108082654E0
5.975859583E-1,1.339028172E0,-8.294930291E-1,-1.865514393E0,2.441556692E0
6.076149583E-1,3.353438842E-1,-8.120958084E-1,-1.813786415E0,2.015384897E0
6.176449583E-1,-4.764493308E-1,-9.134520292E-1,-9.867433691E-1,1.426555660E0
6.276749583E-1,-9.425043587E-1,-9.328039742E-1,4.775403482E-1,1.409426303E0
6.377049583E-1,-1.089990360E0,-8.700218350E-1,1.924806329E0,2.376951069E0
6.477339583E-1,-1.036548929E0,-6.971547514E-1,2.888869518E0,3.147383917E0
6.577639583E-1,-8.393968968E-1,-5.214611238E-1,3.435732701E0,3.575020006E0
6.677939583E-1,-7.031775297E-1,-3.019484621E-1,3.780782744E0,3.857453780E0
6.778239583E-1,-6.200258839E-1,1.012357682E-1,4.021198032E0,4.069977198E0
6.878539583E-1,-3.829036745E-1,3.829552031E-1,3.957369826E0,3.994251601E0
6.978829583E-1,4.526329637E-3,2.650045842E-1,3.441248964E0,3.451440620E0
7.079129583E-1,3.421361560E-1,-5.197063744E-2,2.761056401E0,2.782658898E0
7.179429583E-1,4.514059985E-1,-2.775556326E-1,2.269687972E0,2.330726924E0
7.279719583E-1,3.290821375E-1,-3.297993350E-1,2.080662693E0,2.132186647E0
7.380019583E-1,2.938355235E-1,-1.263934135E-1,2.175579375E0,2.198967991E0
7.480319583E-1,4.285772992E-1,1.125267416E-1,2.199078165E0,2.243275629E0
7.580619583E-1,5.933304939E-1,3.157519841E-1,2.121925470E0,2.225827507E0
7.680919583E-1,6.155448702E-1,5.998418802E-1,2.061233711E0,2.233246556E0
7.781209583E-1,5.107045128E-1,7.484570521E-1,2.035740874E0,2.228283636E0
7.881509583E-1,3.463724638E-1,7.677727443E-1,2.078751823E0,2.242912841E0
7.981809583E-1,9.853793599E-2,5.885128999E-1,2.185771218E0,2.265756601E0
8.082109583E-1,-2.014446922E-1,2.632679611E-1,2.251066637E0,2.275344147E0
8.182399583E-1,-4.306487484E-1,-1.028735733E-1,2.329646783E0,2.371348867E0
8.282699583E-1,-5.846647011E-1,-3.619911808E-1,2.332341765E0,2.431602051E0
8.382999583E-1,-7.854943393E-1,-5.008262998E-1,2.346603124E0,2.524752376E0
8.483299583E-1,-9.394244841E-1,-4.779291880E-1,2.303579311E0,2.533261201E0
8.583589583E-1,-1.075977727E0,-2.442732811E-1,2.305795844E0,2.556187000E0
8.683889583E-1,-1.106880700E0,7.072382748E-2,2.379812093E0,2.625584191E0
8.784189583E-1,-1.218206716E0,3.706795585E-1,2.465046955E0,2.774506700E0
8.884489583E-1,-1.479139738E0,6.580690384E-1,2.352558221E0,2.855772996E0
8.984779583E-1,-1.791226687E0,8.823869419E-1,2.114273804E0,2.908135739E0
9.085079583E-1,-2.226925676E0,9.589924836E-1,1.911096655E0,3.087256869E0
9.185379583E-1,-2.669626413E0,9.890746540E-1,1.759718089E0,3.346906274E0
9.285679583E-1,-2.959047216E0,1.002184111E0,1.513410269E0,3.471418163E0
9.385969583E-1,-3.131657022E0,1.028908811E0,1.162666208E0,3.495385780E0
9.486269583E-1,-3.235802364E0,1.064331828E0,8.116613603E-1,3.501715772E0
9.586569583E-1,-3.272775771E0,1.175526574E0,5.268966955E-1,3.517178429E0
9.686869583E-1,-3.165557716E0,1.312718625E0,3.773065004E-1,3.447658051E0
9.787159583E-1,-2.916713374E0,1.509206706E0,4.092197263E-1,3.309438407E0
9.887459583E-1,-2.632270306E0,1.646929684E0,4.768614864E-1,3.141436173E0
9.987759583E-1,-2.358140850E0,1.706712202E0,6.419795474E-1,2.980911362E0
1.008805958E0,-2.048817879E0,1.726345398E0,8.651163134E-1,2.815377305E0
1.018834958E0,-1.693516059E0,1.718154618E0,1.022806072E0,2.620340473E0
1.028864958E0,-1.319639243E0,1.709671478E0,9.230297685E-1,2.348703525E0
1.038894958E0,-9.702169450E-1,1.639325965E0,7.530813226E-1,2.048375458E0
1.048924958E0,-6.309256786E-1,1.436662055E0,5.437653279E-1,1.660646201E0
1.058953958E0,-2.060535407E-1,1.103541502E0,1.033854970E-1,1.127364390E0
1.068983958E0,2.091606049E-1,8.585221159E-1,-4.128640035E-1,9.753281846E-1
1.079013958E0,5.535746169E-1,8.470381844E-1,-6.802940127E-1,1.219310660E0
1.089043958E0,8.861983033E-1,9.575575769E-1,-7.570439807E-1,1.508436122E0
1.099072958E0,1.197882233E0,1.053168908E0,-8.621099675E-1,1.813096851E0
1.109102958E0,1.728746995E0,9.883063298E-1,-1.566410601E0,2.533566211E0
1.119132958E0,2.680156079E0,7.028405839E-1,-3.183636430E0,4.220516842E0
1.129162958E0,3.934088260E0,1.914816946E-1,-4.761741170E0,6.179635478E0
1.139191958E0,4.971233166E0,-8.779927593E-1,-4.986940541E0,7.096027511E0
1.149221958E0,5.171580994E0,-2.623701212E0,-4.966358342E0,7.635035901E0
1.159251958E0,4.228491767E0,-4.041647499E0,-4.894546055E0,7.627033383E0
1.169281958E0,2.663249440E0,-3.559238175E0,-2.678375017E0,5.189871549E0
1.179310958E0,1.384075998E0,-9.410818774E-1,-3.014227974E-1,1.700634344E0
1.189340958E0,3.921587205E-1,2.279807163E0,1.046646047E0,2.539050435E0
1.199370958E0,-5.535029885E-1,4.119880906E0,1.898733302E0,4.570007920E0
1.209400958E0,-1.464526084E0,4.510639803E0,2.281533262E0,5.262708628E0
1.219429958E0,-2.388596950E0,3.901100315E0,2.038597970E0,5.007979706E0
1.229459958E0,-2.977799529E0,1.857455760E0,1.204251751E0,3.710478974E0
1.239489958E0,-3.026581387E0,-1.688768851E0,-9.443321984E-1,3.592199664E0
1.249519958E0,-2.540327810E0,-6.664493848E0,-6.832334665E0,9.876717097E0
1.259548958E0,-1.861435375E0,-1.172948887E1,-9.811802112E0,1.540510667E1
1.269578958E0,-1.840346223E0,-1.376142905E1,-5.918165767E0,1.509266345E1
1.279608958E0,-1.396070684E0,-1.282885546E1,-2.814477732E0,1.320794574E1
1.289638958E0,-6.907377246E-1,-7.425335303E0,6.998181581E-1,7.490158104E0
1.299667958E0,-1.421749609E0,-7.427998710E-1,3.016092359E0,3.416128908E0
1.309697958E0,-2.417867234E0,2.316122466E0,3.276386719E0,4.684572037E0
1.319727958E0,-2.995162543E0,3.932416248E0,3.464278808E0,6.036234245E0
1.329757958E0,-3.013605246E0,4.904131688E0,3.453343345E0,6.712518488E0
1.339786958E0,-2.821585023E0,5.193989278E0,2.814345585E0,6.546709688E0
1.349816958E0,-2.365694868E0,5.055396819E0,2.050807979E0,5.946373901E0
1.359846958E0,-1.652412911E0,4.490685010E0,1.738698810E0,5.091148578E0
1.369876958E0,-8.726688695E-1,3.387671512E0,1.924535018E0,3.992706383E0
1.379905958E0,-2.381244222E-1,2.061313671E0,2.578434992E0,3.309689457E0
1.389935958E0,1.634888075E-1,9.795951480E-1,3.502607306E0,3.640685813E0
1.399965958E0,3.534049831E-1,2.847190565E-1,4.281241254E0,4.305227833E0
1.409995958E0,3.897525182E-1,-1.296766251E-1,4.578228353E0,4.596618095E0
1.420024958E0,5.029427726E-1,-3.323662627E-1,4.419034399E0,4.459964549E0
1.430054958E0,5.774382003E-1,-4.111457992E-1,4.165076959E0,4.224966487E0
1.440084958E0,4.755150189E-1,-4.681251615E-1,3.866778914E0,3.923931048E0
1.450114958E0,2.732686003E-1,-5.678932786E-1,3.503656297E0,3.559885665E0
1.460143958E0,2.156981575E-1,-8.905695355E-1,3.046140908E0,3.180976929E0
1.470173958E0,1.350287278E-1,-1.015079561E0,1.984060843E0,2.232737490E0
1.480203958E0,-3.286822245E-2,-9.722364271E-1,8.360161829E-1,1.282671840E0
1.490233958E0,-5.198028535E-2,-8.767613357E-1,7.363400498E-2,8.813820719E-1
1.500262958E0,-1.911418252E-2,-6.753867370E-1,-4.598390722E-1,8.172909940E-1
1.510292958E0,2.705587082E-2,-3.552873480E-1,-9.479201961E-1,1.012676561E0
1.520322958E0,1.508295856E-1,1.019245702E-1,-1.417657435E0,1.429297305E0
1.530352958E0,3.869449776E-1,5.425818515E-1,-1.743176023E0,1.866221887E0
1.540381958E0,6.742311079E-1,8.067496991E-1,-1.857206084E0,2.134161920E0
1.550411958E0,8.915160535E-1,8.903391552E-1,-1.696900574E0,2.113522236E0
1.560441958E0,1.058116384E0,8.413488436E-1,-1.297172633E0,1.873535427E0
1.570471958E0,1.092311412E0,8.179979879E-1,-7.221130067E-1,1.543927500E0
1.580501000E0,1.035405213E0,7.931403047E-1,-1.028665566E-1,1.308326040E0
1.590530000E0,9.740622202E-1,7.475203282E-1,4.883910263E-1,1.321404421E0
1.600560000E0,9.626082556E-1,6.340627098E-1,9.347066581E-1,1.484023824E0
1.610590000E0,9.637651272E-1,3.615011841E-1,1.184918956E0,1.569572954E0
1.620619000E0,9.438716570E-1,7.652134180E-2,1.237792988E0,1.558486671E0
1.630649000E0,8.416064134E-1,-2.359351516E-2,1.128403863E0,1.407889657E0
1.640679000E0,6.585747495E-1,8.698434949E-2,7.938769808E-1,1.035146192E0
1.650709000E0,4.718455256E-1,2.500591010E-1,2.529938185E-1,5.909091522E-1
1.660739000E0,2.561713051E-1,3.269488174E-1,-2.718716273E-1,4.964206367E-1
1.670768000E0,-2.002024513E-2,2.896102524E-1,-6.848178573E-1,7.438080439E-1
1.680798000E0,-3.693067785E-1,2.372449279E-1,-1.007157241E0,1.098652976E0
1.690828000E0,-7.303363846E-1,1.941322374E-1,-1.242538589E0,1.454297323E0
1.700858000E0,-9.949502286E-1,2.158844644E-1,-1.451198233E0,1.772712151E0
1.710887000E0,-1.142163969E0,3.037453115E-1,-1.635829330E0,2.018102412E0
1.720917000E0,-1.109286391E0,4.768176323E-1,-1.708082204E0,2.091749547E0
1.730947000E0,-9.183422749E-1,6.064509881E-1,-1.542638161E0,1.894958530E0
1.740977000E0,-6.213719860E-1,7.183678651E-1,-1.204614790E0,1.534031397E0
1.751006000E0,-3.107532725E-1,7.469876468E-1,-6.843920338E-1,1.059693633E0
1.761036000E0,-6.319972631E-2,5.436969155E-1,-1.090638743E-1,5.581177922E-1
1.771066000E0,1.564519575E-1,2.199664056E-1,3.348694557E-1,4.301162482E-1
1.781096000E0,2.803942731E-1,-9.310989261E-2,6.673093933E-1,7.297891660E-1
1.791125000E0,3.401726976E-1,-3.395226699E-1,8.907613242E-1,1.012150604E0
1.801155000E0,3.800148210E-1,-4.853235769E-1,9.891742028E-1,1.165510979E0
1.811185000E0,4.470861487E-1,-5.492605412E-1,9.404597336E-1,1.177301014E0
1.821215000E0,5.745678753E-1,-5.720693600E-1,7.371457596E-1,1.095799008E0
1.831244000E0,6.247755772E-1,-4.665926063E-1,4.336488086E-1,8.922468668E-1
1.841274000E0,6.667813897E-1,-3.098913199E-1,1.086034061E-1,7.432528181E-1
1.851304000E0,6.518885314E-1,-1.858028787E-1,-2.031593151E-1,7.076404981E-1
1.861334000E0,5.804416227E-1,-2.584972179E-1,-4.095395690E-1,7.559470534E-1
1.871363000E0,4.935001040E-1,-5.637715763E-1,-5.583184630E-1,9.343983353E-1
1.881393000E0,3.281907660E-1,-9.120937210E-1,-7.569716214E-1,1.229890308E0
1.891423000E0,1.364839901E-1,-1.107310617E0,-1.136917993E0,1.592905272E0
1.901453000E0,1.028749620E-1,-1.147911344E0,-1.711388366E0,2.063282300E0
1.911482000E0,3.404676531E-1,-1.163899385E0,-2.355009373E0,2.648895836E0
1.921512000E0,8.692244209E-1,-1.277679770E0,-2.859620576E0,3.250453280E0
1.931542000E0,1.590891139E0,-1.457307989E0,-3.156983067E0,3.823770819E0
1.941572000E0,2.256603950E0,-1.678742630E0,-3.249618165E0,4.297726891E0
1.951601000E0,2.764115664E0,-1.919460804E0,-3.176339105E0,4.627504218E0
1.961631000E0,3.034239778E0,-2.247375582E0,-3.039532385E0,4.847273992E0
1.971661000E0,3.113590002E0,-2.546442536E0,-2.879859836E0,4.946959164E0
1.981691000E0,3.126409146E0,-2.960813659E0,-2.695171144E0,5.079842435E0
1.991720000E0,3.188134985E0,-3.446340135E0,-2.418795772E0,5.281291319E0
2.001750000E0,3.309897112E0,-3.677517407E0,-2.103831700E0,5.376398515E0
2.011780000E0,3.508834006E0,-3.663174772E0,-1.836440282E0,5.394745444E0
2.021810000E0,3.749984874E0,-3.478872873E0,-1.687017025E0,5.386183200E0
2.031839000E0,3.896234263E0,-3.018775939E0,-1.637249473E0,5.193672634E0
2.041869000E0,3.645688381E0,-1.993128705E0,-1.752805657E0,4.509538056E0
2.051899000E0,3.007781419E0,-7.782328284E-1,-2.093964524E0,3.746609511E0
2.061929000E0,2.204416381E0,-5.495797992E-3,-2.603258176E0,3.411221910E0
2.071958000E0,1.404515525E0,2.915831029E-1,-2.837871273E0,3.179810989E0
2.081988000E0,7.261062896E-1,2.532475877E-1,-2.473207330E0,2.590003703E0
2.092018000E0,1.437785744E-1,9.952019513E-2,-1.421776798E0,1.432489376E0
2.102048000E0,-3.904698253E-1,-3.109958589E-2,1.997701228E-2,3.922154379E-1
2.112077000E0,-8.033238155E-1,-1.710310578E-1,1.340090611E0,1.571758131E0
2.122107000E0,-1.030158214E0,-3.887293285E-1,2.306411995E0,2.555752869E0
2.132137000E0,-1.155902879E0,-6.155796611E-1,2.932501441E0,3.211637353E0
2.142167000E0,-1.182371836E0,-7.993570644E-1,3.321017346E0,3.614710374E0
2.152196000E0,-1.169037626E0,-9.526681352E-1,3.378750415E0,3.700024312E0
2.162226000E0,-1.177064757E0,-1.016392261E0,3.169277422E0,3.530276767E0
2.172256000E0,-1.055862721E0,-9.793308538E-1,2.724982588E0,3.082120230E0
2.182286000E0,-7.251355787E-1,-9.316099727E-1,2.059061909E0,2.373489982E0
2.192315000E0,-3.437015288E-1,-8.149597746E-1,1.414812180E0,1.668527398E0
2.202345000E0,-7.766662862E-2,-6.259245551E-1,1.050914222E0,1.225656704E0
2.212375000E0,4.138297442E-2,-3.699796468E-1,9.406532764E-1,1.011645232E0
2.222405000E0,3.888529971E-2,-5.558187783E-2,1.017999076E0,1.020256600E0
2.232434000E0,-1.217974290E-1,2.619827431E-1,1.084506622E0,1.122329802E0
2.242464000E0,-2.206853208E-1,4.300381529E-1,1.138934844E0,1.237258018E0
2.252494000E0,-3.090087558E-1,5.700842303E-1,1.221986357E0,1.383377424E0
2.262524000E0,-4.103744052E-1,6.816970521E-1,1.170955220E0,1.415716833E0
2.272553000E0,-5.895281227E-1,7.013349259E-1,1.231334593E0,1.534796066E0
2.282583000E0,-8.297145655E-1,5.569981617E-1,1.525114056E0,1.823361208E0
2.292613000E0,-1.152061697E0,2.393861783E-1,1.969540745E0,2.294262984E0
2.302643000E0,-1.407471001E0,-1.209601808E-1,2.377228793E0,2.765288903E0
2.312672000E0,-1.582800639E0,-3.901349992E-1,2.580950464E0,3.052665799E0
2.322702000E0,-1.668388966E0,-4.908164513E-1,2.648700690E0,3.168601880E0
2.332732000E0,-1.682758937E0,-4.507162464E-1,2.638775626E0,3.161955025E0
2.342762000E0,-1.690717290E0,-2.861270660E-1,2.516010118E0,3.044782515E0
2.352792000E0,-1.761235587E0,4.933763623E-2,2.355623331E0,2.941657063E0
2.362821000E0,-1.983566753E0,4.445328158E-1,2.162840777E0,2.968168916E0
2.372851000E0,-2.473548222E0,8.282411402E-1,1.878143648E0,3.214319174E0
2.382881000E0,-3.046167805E0,1.151461773E0,1.596711019E0,3.626911715E0
2.392911000E0,-3.580703303E0,1.398124811E0,1.420286343E0,4.097975406E0
2.402940000E0,-3.991076685E0,1.695397840E0,1.310208708E0,4.529869071E0
2.412970000E0,-4.162480795E0,2.004854127E0,1.163466984E0,4.764382632E0
2.423000000E0,-4.188473131E0,2.328239651E0,1.050500531E0,4.905869791E0
2.433030000E0,-4.090428481E0,2.587222772E0,9.375907972E-1,4.929949628E0
2.443059000E0,-3.797398776E0,2.708145531E0,7.968795991E-1,4.731734014E0
2.453089000E0,-3.394486149E0,2.566012582E0,5.666943070E-1,4.292796201E0
2.463119000E0,-2.874366669E0,2.229172615E0,2.343023166E-1,3.645009173E0
2.473148000E0,-2.128797118E0,1.868763691E0,-9.551309824E-2,2.834286092E0
2.483178000E0,-1.186655141E0,1.674468316E0,-2.189431429E-1,2.063959947E0
2.493208000E0,-1.763656189E-1,1.660313376E0,-7.704788357E-2,1.671431038E0
2.503238000E0,6.252008159E-1,1.583094462E0,5.140638113E-2,1.702852533E0
2.513268000E0,1.084460721E0,1.377099393E0,3.317797869E-2,1.753156745E0
2.523297000E0,1.476639176E0,1.182337410E0,-3.226014125E-1,1.918972819E0
2.533327000E0,1.932637359E0,9.790174431E-1,-1.028204513E0,2.398075653E0
2.543357000E0,2.309145129E0,6.933973306E-1,-1.661717585E0,2.928183126E0
2.553387000E0,2.601616863E0,3.195503354E-1,-2.182935172E0,3.411118392E0
2.563416000E0,2.948473696E0,-1.761888868E-1,-3.023268939E0,4.226664730E0
2.573446000E0,3.824559385E0,-7.378063488E-1,-4.342760687E0,5.833625209E0
2.583476625E0,5.070216002E0,-1.233323961E0,-5.112965580E0,7.305518142E0
2.593506625E0,5.753706395E0,-2.004767003E0,-4.668023167E0,7.675589118E0
2.603535625E0,4.861983496E0,-3.080543001E0,-3.683726858E0,6.833628045E0
2.613565625E0,2.855874557E0,-3.312342417E0,-2.081975100E0,4.843784893E0
2.623595625E0,8.936909254E-1,-1.887992259E0,-1.383629563E-1,2.093404535E0
2.633625625E0,-6.407937321E-1,4.878267699E-1,1.286414048E0,1.517712973E0
2.643654625E0,-1.966502093E0,2.908020319E0,1.982575358E0,4.031664384E0
2.653684625E0,-3.182333963E0,4.729732050E0,2.004605328E0,6.042851747E0
2.663714625E0,-4.068212569E0,5.464315998E0,1.346335145E0,6.944186141E0
2.673744625E0,-4.584478442E0,5.021761295E0,5.389988239E-1,6.821000574E0
2.683773625E0,-4.845002305E0,3.384849061E0,2.213030791E-1,5.914408301E0
2.693803625E0,-4.857115982E0,1.008790880E-1,7.973964930E-2,4.858817825E0
2.703833625E0,-4.537586989E0,-5.008030863E0,-2.118813290E0,7.082332848E0
2.713863625E0,-2.885211500E0,-1.154633770E1,-1.046838479E1,1.585021892E1
2.723892625E0,-5.239443998E-1,-1.570809578E1,-1.013956311E1,1.870373040E1
2.733922625E0,6.096845349E-1,-1.603703675E1,-1.421503441E0,1.611145353E1
2.743952625E0,2.000202082E0,-1.294352988E1,3.012836337E0,1.343923201E1
2.753982625E0,2.375084765E0,-5.462677023E0,3.772896019E0,7.051000800E0
2.764011625E0,5.619352582E-1,9.561448896E-1,2.949569464E0,3.151181414E0
2.774041625E0,-6.970299134E-1,4.383064667E0,2.725305355E0,5.208108664E0
2.784071625E0,-1.221655404E0,6.484018368E0,2.820120295E0,7.175514936E0
2.794101625E0,-1.288944139E0,7.502701567E0,2.956684648E0,8.166632838E0
2.804130625E0,-1.105673543E0,7.753437776E0,2.773660659E0,8.308520011E0
2.814160625E0,-8.553236890E-1,7.103167169E0,2.319327325E0,7.521026638E0
2.824190625E0,-6.489346643E-1,5.292170461E0,2.110811083E0,5.734431778E0
2.834220625E0,-2.901689904E-1,2.811454722E0,2.419948550E0,3.720836825E0
2.844249625E0,-2.837489303E-2,6.782027560E-1,2.981550225E0,3.057843334E0
2.854279625E0,2.087725325E-1,-9.596210593E-1,3.483864641E0,3.619636914E0
2.864309625E0,4.532419512E-1,-2.122390763E0,3.668954744E0,4.262769022E0
2.874339625E0,3.621152148E-1,-2.674460891E0,3.476292497E0,4.400963305E0
2.884368625E0,-1.190103353E-1,-2.440696810E0,3.027524543E0,3.890638667E0
2.894398625E0,-5.693542785E-1,-1.774063940E0,2.651694757E0,3.240825858E0
2.904428625E0,-8.888728197E-1,-1.325647988E0,2.192358545E0,2.711802623E0
2.914458625E0,-1.009891473E0,-1.023997149E0,1.660685259E0,2.196890184E0
2.924487625E0,-9.513892760E-1,-7.205213946E-1,1.250742817E0,1.728771306E0
2.934517625E0,-8.116778056E-1,-2.189460665E-1,1.001145061E0,1.307306266E0
2.944547625E0,-7.147980668E-1,3.876703978E-1,8.523708451E-1,1.178032543E0
2.954577625E0,-6.934968795E-1,8.237417078E-1,7.565431666E-1,1.315996157E0
2.964606625E0,-7.360290876E-1,9.634463078E-1,6.341118264E-1,1.368234415E0
2.974636625E0,-6.639880286E-1,8.461757201E-1,5.191544703E-1,1.194326093E0
2.984666625E0,-4.423228972E-1,6.401011294E-1,4.127888668E-1,8.807801370E-1
2.994696625E0,-6.230688846E-2,3.997501606E-1,3.420200157E-1,5.297735652E-1
3.004725625E0,3.670238062E-1,1.699271035E-1,2.671394026E-1,4.847114144E-1
3.014755625E0,7.114089476E-1,3.530314922E-2,2.398609722E-1,7.515865146E-1
3.024785625E0,9.206377456E-1,5.815757632E-2,3.254232788E-1,9.781904072E-1
3.034815625E0,1.010874316E0,2.079433608E-1,4.156756371E-1,1.112606651E0
3.044845625E0,1.096454603E0,4.205644941E-1,5.469000202E-1,1.295448503E0
3.054874625E0,1.278338020E0,6.200761700E-1,6.702932274E-1,1.570966442E0
3.064904625E0,1.568619679E0,7.030393893E-1,5.836029929E-1,1.815330420E0
3.074934625E0,1.829035369E0,6.360297132E-1,3.005819678E-1,1.959656525E0
3.084964625E0,1.967638061E0,3.828230560E-1,-1.202737176E-1,2.008138142E0
3.094993625E0,1.996349059E0,5.135609508E-3,-5.950535222E-1,2.083152571E0
3.105023625E0,1.856439514E0,-1.555961627E-1,-1.042873058E0,2.134985258E0
3.115053625E0,1.554417377E0,-2.425775886E-2,-1.432717524E0,2.114114785E0
3.125083625E0,1.098685828E0,2.696981442E-1,-1.665350752E0,2.013266193E0
3.135112625E0,5.831195743E-1,5.409580797E-1,-1.661151282E0,1.841762108E0
3.145142625E0,1.239487840E-1,7.396119690E-1,-1.376067359E0,1.567147263E0
3.155172625E0,-2.201273502E-1,7.041334033E-1,-9.431062565E-1,1.197376011E0
3.165202625E0,-4.457555782E-1,4.912514842E-1,-4.956456667E-1,8.280644197E-1
3.175231625E0,-5.476508027E-1,1.810724813E-1,-7.631084204E-2,5.818350194E-1
3.185261625E0,-5.686370079E-1,-5.010946870E-2,2.455502399E-1,6.214128466E-1
3.195291625E0,-6.084626495E-1,-4.759925902E-2,4.794523146E-1,7.761230619E-1
3.205321625E0,-6.237990191E-1,7.830474257E-2,6.490169638E-1,9.035927558E-1
3.215350625E0,-6.288484553E-1,2.786484772E-1,8.042606125E-1,1.058267682E0
3.225380625E0,-5.932650417E-1,4.119182163E-1,9.176450676E-1,1.167781014E0
3.235410625E0,-5.633066130E-1,5.453142554E-1,9.942552140E-1,1.266185377E0
3.245440625E0,-5.116841773E-1,6.450923127E-1,1.042494816E0,1.328442784E0
3.255469625E0,-4.331339613E-1,5.752467370E-1,1.057688879E0,1.279538824E0
3.265499625E0,-2.698209357E-1,1.419423294E-1,1.005942044E0,1.051128136E0
3.275529625E0,-7.912788436E-2,-3.981866151E-1,8.863255533E-1,9.748778328E-1
3.285559625E0,1.610413092E-1,-7.545083356E-1,6.525334062E-1,1.010453848E0
3.295588625E0,3.341069057E-1,-8.053855437E-1,3.714736104E-1,9.477689284E-1
3.305618625E0,4.203137948E-1,-5.781504643E-1,1.630788445E-2,7.149738405E-1
3.315648625E0,4.769208357E-1,-2.647777122E-1,-3.692073027E-1,6.586916978E-1
3.325678625E0,5.024790884E-1,-6.276284337E-2,-7.086505967E-1,8.709822483E-1
3.335707625E0,5.655468640E-1,-4.665551841E-2,-9.804202632E-1,1.132803551E0
3.345737625E0,7.255931964E-1,-2.176778054E-1,-1.180395696E0,1.402570181E0
3.355767625E0,9.911999707E-1,-5.940291631E-1,-1.280270233E0,1.724656458E0
3.365797625E0,1.420198927E0,-9.459181094E-1,-1.298422768E0,2.144207953E0
3.375826625E0,1.811427940E0,-9.733737105E-1,-1.328097972E0,2.447972995E0
3.385856625E0,2.131875823E0,-6.573662031E-1,-1.325925000E0,2.595207498E0
3.395886625E0,2.382068533E0,-3.168764037E-1,-1.324824408E0,2.744051906E0
3.405916625E0,2.606469467E0,-3.359178615E-1,-1.310318343E0,2.936572501E0
3.415945625E0,2.810583487E0,-6.401414752E-1,-1.227006776E0,3.132843161E0
3.425975625E0,3.020899940E0,-1.084228148E0,-1.130267517E0,3.402777069E0
3.436005625E0,3.200261818E0,-1.435338246E0,-1.112133985E0,3.679499094E0
3.446035625E0,3.357493447E0,-1.654509430E0,-1.241332454E0,3.943484495E0
3.456064625E0,3.521749044E0,-2.058474264E0,-1.477979797E0,4.338716043E0
3.466094625E0,3.688460471E0,-2.524099156E0,-1.668584701E0,4.770743349E0
3.476124625E0,3.813206724E0,-2.961073861E0,-1.733993994E0,5.129838116E0
3.486154625E0,3.942971057E0,-3.292211038E0,-1.685402609E0,5.406131356E0
3.496183625E0,4.016723450E0,-3.324413994E0,-1.615292155E0,5.458476383E0
3.506213625E0,4.077997885E0,-3.212460864E0,-1.616752204E0,5.437265787E0
3.516243625E0,4.126706361E0,-3.230166233E0,-1.818395190E0,5.547092964E0
3.526273625E0,3.988443099E0,-3.084568225E0,-2.314451916E0,5.547875914E0
3.536303625E0,3.502597951E0,-2.508046210E0,-3.147836852E0,5.335481707E0
3.546332625E0,2.699776411E0,-1.807503582E0,-3.767054651E0,4.974591703E0
3.556362625E0,1.816838808E0,-1.293165536E0,-3.433761604E0,4.094374081E0
3.566392625E0,1.161139207E0,-1.034434429E0,-2.184294065E0,2.681313001E0
3.576421625E0,6.117709310E-1,-8.102697229E-1,-6.354531777E-1,1.197748487E0
3.586451375E0,1.381799385E-1,-6.035110080E-1,8.325604784E-1,1.037533702E0
3.596481375E0,-2.134113845E-1,-4.596437752E-1,2.053496529E0,2.115103972E0
3.606511375E0,-4.101945303E-1,-2.508391196E-1,2.992545329E0,3.030925166E0
3.616540375E0,-4.517057414E-1,-1.393508434E-1,3.622410908E0,3.653124350E0
3.626570375E0,-3.320695896E-1,-7.933911502E-2,3.914777538E0,3.929637143E0
3.636600375E0,-2.109429824E-1,-6.747862279E-2,3.990185570E0,3.996327212E0
3.646630375E0,-1.602702076E-1,-1.023865002E-1,3.938683294E0,3.943272198E0
3.656660375E0,-1.101458285E-1,-1.917185068E-1,3.718994046E0,3.725561006E0
3.666689375E0,-1.052498817E-2,-4.048103410E-1,3.246300455E0,3.271459741E0
3.676719375E0,1.439382765E-1,-5.640294385E-1,2.605844400E0,2.670069750E0
3.686749375E0,1.459352468E-1,-5.248642033E-1,2.082902030E0,2.152965489E0
3.696779375E0,5.751657531E-2,-2.973782784E-1,1.918355535E0,1.942119964E0
3.706808375E0,-3.341639891E-2,7.499054074E-2,1.984728741E0,1.986426040E0
3.716838375E0,-1.116908091E-1,4.127537835E-1,2.179550512E0,2.221099042E0
3.726868375E0,-1.127490272E-1,7.309563357E-1,2.383239877E0,2.495364065E0
3.736898375E0,-8.843656031E-2,9.347861803E-1,2.586842119E0,2.751980809E0
3.746927375E0,-7.553927909E-2,8.827401137E-1,2.717844600E0,2.858603778E0
3.756957375E0,-1.087011094E-1,6.510102797E-1,2.699697766E0,2.779208222E0
3.766987375E0,-6.323911736E-2,3.863372326E-1,2.735294738E0,2.763167195E0
3.777017375E0,1.529507361E-2,1.401916730E-1,2.853421358E0,2.856904109E0
3.787046375E0,5.068302574E-2,-6.066369295E-2,3.073787713E0,3.074804019E0
3.797076375E0,1.262587997E-1,-1.943655413E-1,3.310153220E0,3.318257613E0
3.807106375E0,2.212527931E-1,-1.939597446E-1,3.486042729E0,3.498437807E0
3.817136375E0,2.719650366E-1,-1.028805900E-1,3.666502130E0,3.678014038E0
3.827165375E0,2.045618794E-1,5.647825599E-3,3.846700745E0,3.852140195E0
3.837195375E0,1.038974939E-1,1.159385920E-1,3.929694077E0,3.932776625E0
3.847225375E0,-4.993397914E-2,2.093355829E-1,3.811938463E0,3.818008595E0
3.857255375E0,-3.380541417E-1,2.456678420E-1,3.430495934E0,3.455855270E0
3.867284375E0,-7.404133299E-1,2.579025561E-1,2.971827767E0,3.073513609E0
3.877314375E0,-1.218958888E0,2.158154672E-1,2.561416086E0,2.844870727E0
3.887344375E0,-1.641944494E0,1.509131277E-1,2.257526641E0,2.795564885E0
3.897374375E0,-1.977508745E0,1.576701701E-1,1.910576253E0,2.754215376E0
3.907403375E0,-2.238066522E0,1.957098162E-1,1.499719598E0,2.701185474E0
3.917433375E0,-2.403412771E0,2.804786557E-1,1.005555031E0,2.620343898E0
3.927463375E0,-2.373838577E0,3.079629081E-1,4.430739355E-1,2.434392174E0
3.937493375E0,-2.185132264E0,1.685132468E-1,-1.057960117E-1,2.194172400E0
3.947522375E0,-1.818505995E0,-1.294251949E-1,-6.216965796E-1,1.926193545E0
3.957552375E0,-1.422572458E0,-4.759955138E-1,-8.548790082E-1,1.726586878E0
3.967582375E0,-1.037601574E0,-6.662545556E-1,-7.029698074E-1,1.419393782E0
3.977612375E0,-6.889145628E-1,-6.819806421E-1,-3.152599409E-1,1.019357494E0
3.987641375E0,-4.545412025E-1,-6.866356105E-1,7.896080017E-3,8.234916602E-1
3.997671375E0,-3.246882107E-1,-6.874536359E-1,2.327881801E-1,7.951133709E-1
4.007701375E0,-1.784771215E-1,-6.253053349E-1,5.960701337E-1,8.821340313E-1
4.017731375E0,-1.966988727E-2,-5.217031986E-1,9.117633533E-1,1.050653865E0
4.027760375E0,8.706029020E-2,-3.326609623E-1,1.121298034E0,1.172839329E0
4.037790375E0,1.005781757E-1,-1.650552034E-2,1.135648855E0,1.140213456E0
4.047820375E0,-4.966537267E-2,3.240450901E-1,1.138478615E0,1.184738548E0
4.057850375E0,-2.741010976E-1,6.769514519E-1,1.283218545E0,1.476497380E0
4.067879375E0,-4.247417450E-1,1.017595033E0,1.337567245E0,1.733491083E0
4.077909375E0,-4.478043330E-1,1.273907731E0,1.271794255E0,1.854947507E0
4.087939375E0,-2.675456379E-1,1.447115123E0,1.153198104E0,1.869649356E0
4.097969375E0,5.235297225E-2,1.454179729E0,1.056250683E0,1.798067024E0
4.107999375E0,3.801583336E-1,1.215004635E0,8.570132419E-1,1.534675314E0
4.118028375E0,6.532196501E-1,8.007305753E-1,5.061592528E-1,1.150679171E0
4.128058375E0,8.824843711E-1,3.543728435E-1,3.967628181E-3,9.509860775E-1
4.138088375E0,1.125395105E0,-6.613961041E-2,-4.719764301E-1,1.222149885E0
4.148117375E0,1.406268228E0,-3.371814448E-1,-8.291582760E-1,1.666968837E0
4.158147375E0,1.560924159E0,-4.337587363E-1,-8.961571348E-1,1.851412564E0
4.168177375E0,1.632850612E0,-3.029354721E-1,-7.395874107E-1,1.817955049E0
4.178207375E0,1.622082526E0,7.015080035E-2,-7.303184044E-1,1.780291501E0
4.188237375E0,1.513940904E0,5.728259897E-1,-8.222430664E-1,1.815552350E0
4.198266375E0,1.229950410E0,1.009932257E0,-5.161281708E-1,1.673059911E0
4.208296375E0,6.313282594E-1,1.159212842E0,1.144788346E-1,1.324935918E0
4.218326375E0,-1.878733413E-1,1.059316086E0,6.931777677E-1,1.279821230E0
4.228356375E0,-8.680935694E-1,1.055138251E0,1.056705597E0,1.727289753E0
4.238385375E0,-1.217528147E0,1.323202683E0,1.043430078E0,2.078938781E0
4.248415375E0,-1.402048585E0,1.446474853E0,8.155102900E-1,2.173266382E0
4.258445375E0,-1.541533330E0,1.153493096E0,5.834353240E-1,2.011782321E0
4.268475375E0,-1.727690550E0,3.726395452E-1,9.587328672E-2,1.770018800E0
4.278504375E0,-1.977041261E0,-1.308863556E0,-1.024930219E0,2.583079152E0
4.288534375E0,-2.095867061E0,-4.300196173E0,-2.414889247E0,5.358734546E0
4.298564375E0,-1.879938597E0,-8.097829422E0,-3.865162451E0,9.167796423E0
4.308594375E0,-1.379717338E0,-1.167474373E1,-5.065300248E0,1.280080184E1
4.318623375E0,-6.804310568E-1,-1.298060825E1,-3.975204711E0,1.359269765E1
4.328653375E0,8.463697015E-1,-9.456394311E0,-1.944289252E0,9.691232932E0
4.338683375E0,1.540373973E0,-3.388550348E0,-2.333294861E-1,3.729539930E0
4.348713375E0,6.368225225E-1,1.546209641E0,1.666809633E0,2.361050938E0
4.358742375E0,1.596092530E-2,4.775590593E0,3.200495707E0,5.748886242E0
4.368772375E0,-3.561435997E-1,6.748009045E0,4.055626438E0,7.881025957E0
4.378802375E0,-3.487399283E-1,7.691046816E0,4.457215548E0,8.896099769E0
4.388832375E0,-1.799226811E-1,7.517974495E0,4.444309573E0,8.735227545E0
4.398861375E0,1.526245711E-1,6.133534507E0,4.045233597E0,7.348976436E0
4.408891375E0,6.417349146E-1,4.162673753E0,3.721908299E0,5.620700834E0
4.418921375E0,1.002522519E0,1.965232809E0,3.499260652E0,4.136667319E0
4.428951375E0,1.134685453E0,6.747686863E-4,3.366139140E0,3.552239328E0
4.438980375E0,1.283663372E0,-1.519887815E0,3.407968951E0,3.946150402E0
4.449010375E0,1.618537359E0,-2.671812687E0,3.345948704E0,4.577512310E0
4.459040375E0,2.033588660E0,-3.208991126E0,3.120179522E0,4.916159796E0
4.469070375E0,2.390746532E0,-2.893902801E0,2.857797414E0,4.717769437E0
4.479099375E0,2.566293541E0,-1.732214248E0,2.696485598E0,4.105784130E0
4.489129375E0,2.482512004E0,-5.629611522E-1,2.610607834E0,3.646239758E0
4.499159375E0,2.118258974E0,4.615499675E-2,2.469262798E0,3.253676402E0
4.509189375E0,1.634508736E0,8.210075498E-2,2.244419668E0,2.777729107E0
4.519218375E0,1.070390786E0,-2.397188848E-1,1.909466743E0,2.202104635E0
4.529248375E0,4.130993539E-1,-4.226478571E-1,1.429988043E0,1.547303490E0
4.539278375E0,-1.982990547E-1,-3.995256275E-1,8.972096336E-1,1.001962259E0
4.549308375E0,-7.016721641E-1,-2.850283742E-1,4.264526403E-1,8.691644576E-1
4.559337375E0,-1.019278008E0,-9.976226985E-2,1.405646523E-1,1.033749771E0
4.569367375E0,-1.088597042E0,2.005209053E-1,9.757943116E-2,1.111203806E0
4.579397375E0,-1.043867962E0,4.228250277E-1,1.593144071E-1,1.137463145E0
4.589427208E0,-9.298801471E-1,5.680037910E-1,3.017513379E-1,1.130645508E0
4.599456208E0,-7.685415070E-1,5.828136188E-1,5.824913641E-1,1.126775910E0
4.609486208E0,-6.150496841E-1,5.036048967E-1,1.000422345E0,1.277790623E0
4.619516208E0,-5.721294402E-1,4.685385597E-1,1.472914792E0,1.648131810E0
4.629546208E0,-5.749832468E-1,5.281374747E-1,1.869952430E0,2.026390144E0
4.639575208E0,-5.484651006E-1,5.812991899E-1,2.171840665E0,2.314220083E0
4.649605208E0,-5.562844359E-1,5.964183354E-1,2.252663219E0,2.395758498E0
4.659635208E0,-4.911926465E-1,5.027588046E-1,1.978964410E0,2.100080181E0
4.669665208E0,-4.045728710E-1,2.831788999E-1,1.483474864E0,1.563511167E0
4.679695208E0,-3.551647027E-1,-9.592181861E-2,9.087228012E-1,9.803673244E-1
4.689724208E0,-2.321274447E-1,-5.667729521E-1,3.284351796E-1,6.949707886E-1
4.699754208E0,3.177219842E-2,-9.033860475E-1,-2.353410745E-1,9.340777509E-1
4.709784208E0,3.961775849E-1,-1.010440965E0,-7.434418952E-1,1.315543034E0
4.719814208E0,8.302959249E-1,-8.305613154E-1,-1.015522780E0,1.552581701E0
4.729843208E0,1.241209078E0,-3.190042055E-1,-1.061112351E0,1.663827839E0
4.739873208E0,1.575299831E0,2.328256023E-1,-8.930212730E-1,1.825722956E0
4.749903208E0,1.753261009E0,5.181118387E-1,-5.916791672E-1,1.921574427E0
4.759933208E0,1.820191893E0,4.204662609E-1,-1.906250958E-1,1.877825427E0
4.769962208E0,1.744033664E0,1.187587041E-1,1.693599236E-1,1.756257337E0
4.779992208E0,1.511795560E0,-1.840779501E-1,4.175420684E-1,1.579161767E0
4.790022208E0,1.204922573E0,-3.438192040E-1,5.031288968E-1,1.350255065E0
4.800052208E0,9.184515448E-1,-4.338821125E-1,4.101593739E-1,1.095462295E0
4.810081208E0,5.957131612E-1,-4.694957489E-1,1.158338537E-1,7.672795516E-1
4.820111208E0,2.904309822E-1,-3.168682176E-1,-2.715154588E-1,5.084056128E-1
4.830141208E0,8.494520612E-2,4.585561931E-2,-7.476325947E-1,7.538387908E-1
4.840171208E0,-8.962904513E-3,5.686387986E-1,-1.244204460E0,1.368018697E0
4.850200208E0,1.235561983E-1,9.689035141E-1,-1.629828917E0,1.900100643E0
4.860230208E0,4.646064533E-1,1.068220811E0,-1.740360004E0,2.094232032E0
4.870260208E0,9.231079750E-1,8.012521470E-1,-1.523697276E0,1.953403881E0
4.880290208E0,1.331274472E0,3.532490087E-1,-1.052891897E0,1.733683341E0
4.890319208E0,1.561245463E0,-6.227284670E-3,-6.181827684E-1,1.679189123E0
4.900349208E0,1.592772773E0,-1.926581544E-1,-2.477950591E-1,1.623405267E0
4.910379208E0,1.492131228E0,-2.309802210E-1,-1.553605199E-3,1.509903930E0
4.920409208E0,1.311887736E0,-2.310252446E-1,1.119349303E-1,1.336769061E0
4.930438208E0,1.126233888E0,-2.145232326E-1,1.317728519E-1,1.154030793E0
4.940468208E0,9.243829603E-1,-2.139379263E-1,1.038985902E-1,9.544884550E-1
4.950498208E0,7.160578495E-1,-2.721592373E-1,4.581870876E-2,7.674039668E-1
4.960528208E0,5.736022807E-1,-3.272055101E-1,-3.209427036E-2,6.611452673E-1
4.970557208E0,4.886808289E-1,-3.773886538E-1,-1.121443337E-1,6.275408354E-1
4.980587208E0,4.829545044E-1,-4.208480841E-1,-2.506491581E-1,6.878831032E-1
4.990617208E0,5.751900921E-1,-5.056824124E-1,-4.858587433E-1,9.069823938E-1
5.000647208E0,7.228110912E-1,-5.783884460E-1,-7.719030713E-1,1.205331249E0
5.010676208E0,9.580969094E-1,-6.214040726E-1,-1.095918487E0,1.582760259E0
5.020706208E0,1.273890774E0,-7.573313713E-1,-1.494308585E0,2.104591803E0
5.030736208E0,1.666043209E0,-9.244044489E-1,-1.898362296E0,2.689610189E0
5.040766208E0,2.133038542E0,-1.145639116E0,-2.202831347E0,3.273348186E0
5.050796208E0,2.602354782E0,-1.366028275E0,-2.361590415E0,3.770330615E0
5.060825208E0,3.031302429E0,-1.705669059E0,-2.242991047E0,4.138732921E0
5.070855208E0,3.371408066E0,-2.220517566E0,-1.940670995E0,4.479206907E0
5.080885208E0,3.594113308E0,-2.749124572E0,-1.431931073E0,4.746131370E0
5.090915208E0,3.774476522E0,-3.258682519E0,-8.314916074E-1,5.055399397E0
5.100944208E0,4.018199580E0,-3.530798487E0,-2.965386182E-1,5.357275518E0
5.110974208E0,4.375334063E0,-3.549918882E0,3.937277477E-2,5.634449614E0
5.121004208E0,4.830769013E0,-3.386319051E0,1.339048930E-3,5.899448089E0
5.131034208E0,5.230979934E0,-2.975715873E0,-6.263782990E-1,6.050651684E0
5.141063208E0,5.424960144E0,-2.378714570E0,-1.999353066E0,6.251870780E0
5.151093208E0,5.123752524E0,-1.625909529E0,-3.818668023E0,6.593834028E0
5.161123208E0,4.307482680E0,-9.129778200E-1,-4.878301613E0,6.571587493E0
5.171153208E0,3.522987484E0,-3.657825154E-1,-3.779745448E0,5.179933717E0
5.181182208E0,2.911409365E0,1.138359332E-1,-1.760795438E0,3.404359512E0
5.191212208E0,2.391162269E0,4.410274100E-1,3.504134014E-2,2.431746300E0
5.201242208E0,1.918402605E0,6.066129559E-1,1.459790132E0,2.485806722E0
5.211272208E0,1.624640975E0,4.943323821E-1,2.502807105E0,3.024543967E0
5.221301208E0,1.638723848E0,5.335467339E-2,3.299023629E0,3.683995043E0
5.231331208E0,2.002422562E0,-7.115348089E-1,3.841114315E0,4.389776427E0
5.241361208E0,2.594684404E0,-1.568113310E0,4.137671059E0,5.129492013E0
5.251391208E0,3.161493024E0,-2.182977857E0,4.375727581E0,5.823008014E0
5.261420208E0,3.606479292E0,-2.422868065E0,4.649096607E0,6.363260312E0
5.271450208E0,3.939809468E0,-2.217493971E0,4.940807179E0,6.697085466E0
5.281480208E0,4.186078988E0,-1.822504613E0,5.152933638E0,6.884584624E0
5.291510208E0,4.277869749E0,-1.411029031E0,5.198131446E0,6.878353222E0
5.301539208E0,4.201905647E0,-9.969023216E-1,5.267988131E0,6.811866429E0
5.311569208E0,3.917940881E0,-5.833954167E-1,5.312015326E0,6.626320079E0
5.321599208E0,3.466742824E0,-2.024645197E-1,5.345242714E0,6.374238571E0
5.331629208E0,2.962123436E0,1.566118240E-1,5.415742593E0,6.174866018E0
5.341658208E0,2.319446023E0,4.673743790E-1,5.448740770E0,5.940289946E0
5.351688208E0,1.630657029E0,6.924541748E-1,5.421679856E0,5.703783620E0
5.361718208E0,9.434289497E-1,7.750075042E-1,5.220053827E0,5.360938049E0
5.371748208E0,3.356853981E-1,6.633800644E-1,4.745180393E0,4.803071388E0
5.381777208E0,-2.451011737E-1,4.059698439E-1,4.019888256E0,4.047763294E0
5.391807208E0,-8.216785908E-1,4.783665597E-2,3.445166306E0,3.542120118E0
5.401837208E0,-1.319044289E0,-2.996399814E-1,3.000363934E0,3.291176946E0
5.411867208E0,-1.736467513E0,-5.476560652E-1,2.661383301E0,3.224625197E0
5.421896208E0,-2.013034674E0,-7.991676146E-1,2.187990967E0,3.078681852E0
5.431926208E0,-2.072987784E0,-1.053659490E0,1.579033570E0,2.810840388E0
5.441956208E0,-1.964539183E0,-1.254055849E0,1.096844978E0,2.575876391E0
5.451986208E0,-1.765830476E0,-1.377786441E0,1.042077617E0,2.470299275E0
5.462016208E0,-1.446298559E0,-1.419442590E0,1.435721092E0,2.483524077E0
5.472045208E0,-1.188622436E0,-1.281509112E0,1.855937531E0,2.549429940E0
5.482075208E0,-1.081690603E0,-1.057684128E0,2.125842959E0,2.609206500E0
5.492105208E0,-1.127746636E0,-9.339593840E-1,2.545381851E0,2.936504959E0
5.502135208E0,-1.235414195E0,-8.272909677E-1,3.064616648E0,3.406249224E0
5.512164208E0,-1.460011742E0,-6.793078798E-1,3.444404122E0,3.802237924E0
5.522194208E0,-1.691805456E0,-5.143427235E-1,3.592979532E0,4.004529443E0
5.532224208E0,-1.913610080E0,-2.789016616E-1,3.459150507E0,3.963005414E0
5.542254208E0,-2.144866875E0,4.442714453E-3,2.990695563E0,3.680317051E0
5.552283208E0,-2.455040030E0,2.946487981E-1,2.284191406E0,3.366239719E0
5.562313208E0,-2.905592262E0,5.529197288E-1,1.390316732E0,3.268205507E0
5.572343208E0,-3.396180088E0,7.942009896E-1,5.416916129E-1,3.529620972E0
5.582373375E0,-3.571762618E0,1.011434407E0,1.711979958E-1,3.716153457E0
5.592402375E0,-3.262710958E0,1.204831649E0,3.304986620E-1,3.493727446E0
5.602432375E0,-2.616039898E0,1.314962202E0,6.423640019E-1,2.997569323E0
5.612462375E0,-1.946880153E0,1.370689090E0,8.935846522E-1,2.543152462E0
5.622492375E0,-1.332844595E0,1.489607424E0,9.249473628E-1,2.202483284E0
5.632521375E0,-7.868660230E-1,1.625562789E0,6.916747409E-1,1.933914803E0
5.642551375E0,-4.653847177E-1,1.743427454E0,5.406747821E-1,1.883733379E0
5.652581375E0,-3.147917251E-1,1.835645646E0,5.966054463E-1,1.955665315E0
5.662611375E0,-2.599867961E-1,1.862732288E0,6.807468796E-1,2.000195246E0
5.672640375E0,-1.054198164E-1,1.750806055E0,7.552336827E-1,1.909663084E0
5.682670375E0,1.958776313E-1,1.548093613E0,8.198255351E-1,1.762689930E0
5.692700375E0,6.657355421E-1,1.324726467E0,8.240676901E-1,1.696228635E0
5.702730375E0,1.170101819E0,1.119302672E0,7.382378733E-1,1.779598802E0
5.712759375E0,1.653940934E0,9.014991510E-1,4.047851980E-1,1.926673919E0
5.722789375E0,2.033932622E0,5.912441343E-1,-3.096217632E-2,2.118350820E0
5.732819375E0,2.399227334E0,1.787400270E-1,-6.154311419E-1,2.483343570E0
5.742849375E0,2.945106869E0,-2.880443680E-1,-1.650395329E0,3.388278142E0
5.752878375E0,3.796621681E0,-7.874685055E-1,-3.350785814E0,5.124666663E0
5.762908375E0,4.741844849E0,-1.440976716E0,-4.885280850E0,6.958985232E0
5.772938375E0,5.326901752E0,-2.447563781E0,-5.057480181E0,7.742387004E0
5.782968375E0,5.134768093E0,-3.304315360E0,-3.732975031E0,7.156776226E0
5.792997375E0,4.125895936E0,-3.046788195E0,-1.369259592E0,5.308559825E0
5.803027375E0,2.856353737E0,-1.261154369E0,1.462944120E0,3.448111441E0
5.813057375E0,1.811127101E0,1.270254391E0,3.388763187E0,4.046905427E0
5.823087375E0,8.883877932E-1,3.070163609E0,3.848233592E0,5.002403346E0
5.833117375E0,-3.266238584E-1,3.806581829E0,3.516852293E0,5.192783301E0
5.843146375E0,-1.660692422E0,3.575026242E0,2.508924462E0,4.672623878E0
5.853176375E0,-2.987234303E0,1.907695037E0,2.598457320E-1,3.553925849E0
5.863206375E0,-4.181992954E0,-1.684011557E0,-4.517917832E0,6.382518431E0
5.873236375E0,-4.519967574E0,-6.360822796E0,-8.092694982E0,1.124196983E1
5.883265375E0,-4.128426319E0,-1.054687547E1,-7.024469494E0,1.332755258E1
5.893295375E0,-3.725293252E0,-1.249272593E1,-4.866790785E0,1.391515949E1
5.903325375E0,-2.071219001E0,-9.502917098E0,-3.624943044E0,1.037957579E1
5.913355375E0,-1.030689142E0,-2.940314491E0,-2.348666168E0,3.901794738E0
5.923384375E0,-1.200935942E0,1.194678544E0,5.216755705E-1,1.772469847E0
5.933414375E0,-1.203345798E0,3.381432533E0,3.344754703E0,4.906068804E0
5.943444375E0,-1.071670668E0,4.817241479E0,4.752005264E0,6.850974202E0
5.953474375E0,-8.660487981E-1,5.394952818E0,4.809468191E0,7.279185442E0
5.963503375E0,-5.953325806E-1,5.033168043E0,4.271543062E0,6.628218581E0
5.973533375E0,-5.131848103E-2,4.070809903E0,3.698500725E0,5.500275853E0
5.983563375E0,5.427892815E-1,2.738137654E0,3.439423463E0,4.429633368E0
5.993593375E0,9.829372703E-1,1.303461898E0,3.377669849E0,3.751510657E0
6.003622375E0,1.264961345E0,8.476299226E-2,3.470158768E0,3.694497779E0
6.013652375E0,1.488100888E0,-7.787888986E-1,3.581396198E0,3.955673790E0
6.023682375E0,1.948499685E0,-1.326656048E0,3.547430892E0,4.259217443E0
6.033712375E0,2.485064606E0,-1.546241800E0,3.400020247E0,4.486262083E0
6.043741375E0,2.684779472E0,-1.382508652E0,3.075671686E0,4.310351182E0
6.053771375E0,2.718604445E0,-9.608606690E-1,2.218923615E0,3.638363006E0
6.063801375E0,1.664605817E0,-1.930294526E-1,1.631332237E0,2.338678636E0
6.073831375E0,6.637403259E-1,2.448369527E-1,1.100393288E0,1.308190254E0
6.083860375E0,6.864605594E-2,2.993470359E-1,8.078630090E-2,3.175647262E-1
6.093890375E0,-5.801025207E-1,1.533385527E-1,-1.232023541E0,1.370369896E0
6.103920375E0,-1.155387959E0,-5.212792754E-2,-2.623617597E0,2.867230013E0
6.113950375E0,-1.474285818E0,-2.175479972E-1,-3.556750184E0,3.856334747E0
6.123979375E0,-1.304674610E0,-3.271429449E-1,-3.378082663E0,3.636019915E0
6.134009375E0,-6.377993730E-1,-2.460426486E-1,-2.274483858E0,2.374995126E0
6.144039375E0,2.605581421E-2,2.010407227E-1,-9.261416566E-1,9.480689035E-1
6.154069375E0,4.711809530E-1,8.036641234E-1,2.595754810E-1,9.670920039E-1
6.164099375E0,8.842447485E-1,1.296810105E0,1.164253142E0,1.954249371E0
6.174128375E0,1.309104315E0,1.505705393E0,1.857571535E0,2.726073155E0
6.184158375E0,1.685021224E0,1.378342511E0,2.402633775E0,3.242186556E0
6.194188375E0,1.938222034E0,9.969917840E-1,2.783440711E0,3.535284920E0
6.204218375E0,2.016460850E0,4.014131087E-1,2.979210169E0,3.619798347E0
6.214247375E0,1.896462536E0,-1.298900485E-1,3.066481032E0,3.607872988E0
6.224277375E0,1.634743941E0,-3.301811582E-1,3.040576698E0,3.467926470E0
6.234307375E0,1.286896151E0,-1.500570953E-1,2.859854465E0,3.139647495E0
6.244337375E0,1.006911805E0,4.145313370E-1,2.606796327E0,2.825083132E0
6.254366375E0,8.084779899E-1,1.139516496E0,2.295371282E0,2.687166505E0
6.264396375E0,5.815753612E-1,1.693475275E0,1.913583183E0,2.620665757E0
6.274426375E0,3.818788403E-1,1.773073422E0,1.507165443E0,2.358212984E0
6.284456375E0,2.256234771E-1,1.056511177E0,1.196773601E0,1.612262036E0
6.294485375E0,1.257863629E-1,-2.392399979E-1,1.044916148E0,1.079308919E0
6.304515375E0,6.475732863E-2,-1.485972794E0,1.037321200E0,1.813379146E0
6.314545375E0,-5.657217689E-3,-2.274891409E0,1.022620715E0,2.494176428E0
6.324575375E0,-1.669324155E-1,-2.328430855E0,1.015794675E0,2.545838860E0
6.334604375E0,-4.175861052E-1,-1.494260053E0,1.019533970E0,1.856513069E0
6.344634375E0,-8.679876617E-1,-3.380117494E-1,8.492180264E-1,1.260486327E0
6.354664375E0,-1.270373089E0,5.824943608E-1,4.226286343E-1,1.460055625E0
6.364694375E0,-1.525958101E0,9.667926693E-1,-1.965395361E-1,1.817103184E0
6.374723375E0,-1.574353897E0,8.489122170E-1,-8.378095239E-1,1.975137196E0
6.384753375E0,-1.448562601E0,5.063419783E-1,-1.324943399E0,2.027360554E0
6.394783375E0,-1.212174144E0,7.432454288E-2,-1.600762408E0,2.009310972E0
6.404813375E0,-8.831945886E-1,-3.093200469E-1,-1.711775306E0,1.950868081E0
6.414842375E0,-4.946994776E-1,-5.744275421E-1,-1.741631189E0,1.899466707E0
6.424872375E0,-9.419981360E-2,-4.844704682E-1,-1.697560871E0,1.767851280E0
6.434902375E0,2.603675229E-1,-1.341871673E-1,-1.699609150E0,1.724664810E0
6.444932375E0,5.860669365E-1,2.224918181E-1,-1.695763875E0,1.807924828E0
6.454961375E0,8.365303724E-1,3.992244959E-1,-1.594125234E0,1.844016953E0
6.464991375E0,1.058554413E0,3.300577819E-1,-1.343814264E0,1.742214786E0
6.475021375E0,1.234335091E0,7.998113930E-2,-9.593702137E-1,1.565366189E0
6.485051375E0,1.340047926E0,-1.768461138E-1,-5.433215243E-1,1.456777701E0
6.495080375E0,1.423200011E0,-3.627630132E-1,-1.083548994E-1,1.472696866E0
6.505110375E0,1.548202372E0,-4.565611231E-1,2.576417702E-1,1.634551291E0
6.515140375E0,1.699849910E0,-5.567239273E-1,4.006727050E-1,1.833022057E0
6.525170375E0,1.856013837E0,-6.277523947E-1,3.865891014E-1,1.997075753E0
6.535200375E0,1.963676280E0,-6.324313366E-1,2.566044742E-1,2.078903505E0
6.545229375E0,1.945816837E0,-6.087887049E-1,7.960048556E-2,2.040383073E0
6.555259375E0,1.850995610E0,-6.191265821E-1,-1.664829473E-1,1.958882091E0
6.565289375E0,1.673479113E0,-6.394900954E-1,-4.956089754E-1,1.858792130E0
6.575319375E0,1.500035202E0,-6.605950356E-1,-9.562746978E-1,1.897617639E0
6.585348458E0,1.359316256E0,-7.497153729E-1,-1.529732333E0,2.179425345E0
6.595378458E0,1.346388647E0,-1.025085316E0,-2.055863482E0,2.662731107E0
6.605408458E0,1.471549760E0,-1.351678038E0,-2.375684397E0,3.104250082E0
6.615438458E0,1.771145302E0,-1.672922897E0,-2.538928279E0,3.518775854E0
6.625467458E0,2.265320833E0,-1.868185401E0,-2.517766036E0,3.867937562E0
6.635497458E0,2.825286310E0,-1.917129520E0,-2.355989513E0,4.148290602E0
6.645527458E0,3.375464280E0,-2.074459966E0,-2.104212500E0,4.486073283E0
6.655557458E0,3.933176386E0,-2.254646595E0,-1.821887294E0,4.885957538E0
6.665586458E0,4.470595146E0,-2.447842108E0,-1.536397282E0,5.323407608E0
6.675616458E0,4.992453296E0,-2.536939641E0,-1.300564164E0,5.749097303E0
6.685646458E0,5.329890849E0,-2.393952999E0,-1.114084032E0,5.948103114E0
6.695676458E0,5.251434664E0,-1.970019924E0,-1.131218785E0,5.721730548E0
6.705705458E0,4.618167467E0,-1.353252109E0,-1.597691889E0,5.070639151E0
6.715735458E0,3.581556412E0,-7.839601761E-1,-2.310589830E0,4.333701103E0
6.725765458E0,2.336854646E0,-3.843456709E-1,-2.956607757E0,3.788157951E0
6.735795458E0,1.069205774E0,-2.613243467E-1,-3.385109262E0,3.559558416E0
6.745824458E0,-7.971582189E-3,-4.427920997E-1,-3.205521973E0,3.235969640E0
6.755854458E0,-8.115034124E-1,-9.063195956E-1,-2.122588983E0,2.446494837E0
6.765884458E0,-1.388037195E0,-1.436767305E0,-6.197767925E-1,2.091666994E0
6.775914458E0,-1.900406775E0,-1.801167539E0,7.338454449E-1,2.719242459E0
6.785943458E0,-2.339791556E0,-2.106134918E0,1.789785933E0,3.621292933E0
6.795973458E0,-2.582605518E0,-2.368647419E0,2.601013430E0,4.364127946E0
6.806003458E0,-2.562180317E0,-2.589998446E0,3.277710236E0,4.900637134E0
6.816033458E0,-2.534619174E0,-2.657892221E0,3.882465824E0,5.344363974E0
6.826062458E0,-2.628485404E0,-2.418836995E0,4.341958741E0,5.622482871E0
6.836092458E0,-2.868178561E0,-2.012879430E0,4.658854440E0,5.829498825E0
6.846122458E0,-2.966617021E0,-1.540442532E0,4.940376824E0,5.964989766E0
6.856152458E0,-2.975633135E0,-1.194544643E0,4.669361887E0,5.664297828E0
6.866182458E0,-2.925823044E0,-7.776194555E-1,3.405987915E0,4.556960190E0
6.876211458E0,-2.346436624E0,-5.589119554E-2,1.547404665E0,2.811289714E0
6.886241458E0,-1.374702327E0,5.943373114E-1,-7.585277116E-1,1.678811370E0
6.896271458E0,-8.236062717E-1,9.897137547E-1,-1.719150399E0,2.147868409E0
6.906301458E0,-1.070632787E0,1.139857973E0,-1.020318520E0,1.867238776E0
6.916330458E0,-1.403725713E0,1.223875446E0,-1.270845544E-1,1.866672833E0
6.926360458E0,-1.538769789E0,1.200121717E0,5.103522912E-1,2.017068185E0
6.936390458E0,-1.447686396E0,1.028615865E0,7.037455867E-1,1.910262900E0
6.946420458E0,-1.246081563E0,7.939103830E-1,6.310475931E-1,1.606621929E0
6.956449458E0,-1.237835819E0,5.330333483E-1,7.401360257E-1,1.537583625E0
6.966479458E0,-1.634538703E0,2.444276476E-1,1.156093645E0,2.016931869E0
6.976509458E0,-2.241653350E0,3.149251878E-2,1.857220410E0,2.911231556E0
6.986539458E0,-2.809385392E0,-5.799268484E-2,2.692935169E0,3.892031508E0
6.996568458E0,-3.223658282E0,4.025632560E-2,3.291520482E0,4.607352860E0
7.006598458E0,-3.312997598E0,2.626083952E-1,3.543997699E0,4.858480827E0
7.016628458E0,-3.196424875E0,5.613794804E-1,3.444019082E0,4.732181986E0
7.026658458E0,-3.069384760E0,9.230841476E-1,3.007769432E0,4.395439012E0
7.036687458E0,-3.137898632E0,1.250970274E0,2.416844556E0,4.153609522E0
7.046717458E0,-3.401891063E0,1.541809026E0,1.887806903E0,4.184955529E0
7.056747458E0,-3.706453523E0,1.786098679E0,1.417720000E0,4.351767022E0
7.066777458E0,-3.900410344E0,2.048427578E0,1.163571649E0,4.556660551E0
7.076806458E0,-3.844552770E0,2.349252205E0,1.208028030E0,4.664644000E0
7.086836458E0,-3.502888265E0,2.657874094E0,1.325631616E0,4.592583160E0
7.096866458E0,-3.028914718E0,2.960068139E0,1.391608089E0,4.457903188E0
7.106896458E0,-2.473255277E0,3.153919711E0,1.398687021E0,4.245059079E0
7.116926458E0,-1.909045159E0,3.166224591E0,1.381617537E0,3.946935343E0
7.126955458E0,-1.370057006E0,3.035711229E0,1.435282405E0,3.626656098E0
7.136985458E0,-7.939345758E-1,2.790636295E0,1.513536861E0,3.272426756E0
7.147015458E0,-1.381367422E-1,2.508312258E0,1.534639463E0,2.943778257E0
7.157045458E0,5.583009213E-1,2.238980150E0,1.411467572E0,2.704990340E0
7.167074458E0,1.273341136E0,1.969611204E0,1.108366916E0,2.594078481E0
7.177104458E0,1.918958967E0,1.608172585E0,6.255035555E-1,2.580673803E0
7.187134458E0,2.530498348E0,1.181724622E0,3.734236568E-2,2.793078844E0
7.197164458E0,3.141604890E0,6.392831039E-1,-7.231114188E-1,3.286526174E0
7.207193458E0,3.715460574E0,-1.634121358E-2,-1.705500951E0,4.088232846E0
7.217223458E0,4.200453783E0,-7.518694872E-1,-2.811730710E0,5.110278789E0
7.227253458E0,4.842240373E0,-1.379074582E0,-4.438802958E0,6.712086876E0
7.237283458E0,5.644949353E0,-1.883711513E0,-6.304379039E0,8.669430046E0
7.247312458E0,6.380113930E0,-2.317252148E0,-7.141340132E0,9.852626561E0
7.257342458E0,6.466925787E0,-2.964141310E0,-6.359682004E0,9.542160030E0
7.267372458E0,5.067596449E0,-3.856263866E0,-5.000785578E0,8.096861193E0
7.277402458E0,2.831030907E0,-3.910439488E0,-3.415467128E0,5.913686557E0
7.287431458E0,1.173028935E0,-2.168016002E0,-1.419090295E0,2.844311434E0
7.297461458E0,1.705241042E-1,6.597694087E-1,7.630177885E-2,6.857084688E-1
7.307491458E0,-6.503536373E-1,3.283547219E0,8.652899757E-1,3.457364449E0
7.317521458E0,-1.478802938E0,5.325989587E0,1.221612281E0,5.660862105E0
7.327550458E0,-2.149899573E0,6.610357987E0,1.302454569E0,7.072148810E0
7.337580458E0,-2.515948429E0,6.957651021E0,1.349790849E0,7.520694089E0
7.347610458E0,-2.871076441E0,6.208591121E0,1.472117378E0,6.996914550E0
7.357640458E0,-3.209659171E0,4.031669810E0,1.897548802E0,5.491535752E0
7.367669458E0,-3.292988426E0,3.701439536E-1,2.160880644E0,3.956031405E0
7.377699458E0,-2.904288333E0,-4.859546669E0,-1.388082218E-1,5.662980865E0
7.387729458E0,-1.998221045E0,-1.267180276E1,-9.606410476E0,1.602655904E1
7.397759458E0,-1.587487182E0,-1.880459876E1,-1.160571852E1,2.215458762E1
7.407788458E0,-2.285408065E0,-1.899103255E1,-2.886094429E0,1.934455863E1
7.417818458E0,-2.028838382E0,-1.543342634E1,1.303689208E0,1.562070547E1
7.427848458E0,-1.818465357E0,-7.108598648E0,2.002095995E0,7.605746470E0
7.437878458E0,-2.396984196E0,8.765806568E-1,2.530301882E0,3.593933012E0
7.447908458E0,-2.947878157E0,4.472579107E0,2.147049640E0,5.770942007E0
7.457937458E0,-3.353958805E0,6.333088868E0,2.102524263E0,7.468444453E0
7.467967458E0,-3.385823207E0,7.149192358E0,2.269512556E0,8.229546609E0
7.477997458E0,-3.121525843E0,7.162318772E0,2.160581267E0,8.106222622E0
7.488027458E0,-2.654135385E0,6.648924467E0,1.668681911E0,7.350995207E0
7.498056458E0,-2.097942677E0,5.556845847E0,1.453100917E0,6.114850899E0
7.508086458E0,-1.645894727E0,3.997254853E0,1.509717168E0,4.578893069E0
7.518116458E0,-1.139797016E0,2.164907622E0,1.789446795E0,3.031184930E0
7.528146458E0,-7.371115534E-1,5.227042419E-1,2.225299419E0,2.401772402E0
7.538175458E0,-4.939199341E-1,-7.341331279E-1,2.635175203E0,2.779758389E0
7.548205458E0,-1.722737373E-1,-1.513105629E0,2.811852332E0,3.197761784E0
7.558235458E0,4.392587735E-1,-1.750482119E0,2.573319848E0,3.143105305E0
7.568265458E0,1.864670201E0,-1.639918288E0,7.110097289E-1,2.582994732E0
7.578294458E0,2.670068755E0,-1.246921077E0,-1.189721274E-1,2.949276809E0
7.588323958E0,1.776858324E0,-5.647363669E-1,7.416620028E-1,2.006543096E0
7.598353958E0,8.909542092E-1,-1.526105744E-1,5.995068347E-1,1.084664849E0
7.608383958E0,2.127624532E-1,7.504550457E-2,-2.508163154E-2,2.269995099E-1
7.618412958E0,-2.873998587E-1,2.331097770E-1,-8.563335031E-1,9.328697205E-1
7.628442958E0,-6.126661763E-1,3.124716961E-1,-1.799651356E0,1.926588541E0
7.638472958E0,-8.691746465E-1,3.653357881E-1,-2.593969874E0,2.760002629E0
7.648502958E0,-1.076613539E0,4.018820554E-1,-2.988763350E0,3.202079365E0
7.658531958E0,-1.302237199E0,4.177098835E-1,-2.800587087E0,3.116663488E0
7.668561958E0,-1.648235075E0,4.233056688E-1,-1.940137144E0,2.580697326E0
7.678591958E0,-1.952763036E0,3.942017376E-1,-7.494481552E-1,2.128462126E0
7.688621958E0,-2.021850374E0,3.390759426E-1,4.410712276E-1,2.096996724E0
7.698651958E0,-1.907528830E0,3.372750002E-1,1.426514797E0,2.405694313E0
7.708680958E0,-1.685628019E0,3.126453584E-1,2.202314599E0,2.790927898E0
7.718710958E0,-1.413490563E0,2.614038688E-1,2.775237068E0,3.125416506E0
7.728740958E0,-1.242084845E0,2.497357500E-1,3.152307633E0,3.397379302E0
7.738770958E0,-1.182109077E0,2.648063636E-1,3.345860996E0,3.558411174E0
7.748799958E0,-1.176245123E0,2.653372908E-1,3.359655747E0,3.569487808E0
7.758829958E0,-1.138894060E0,2.727322644E-1,3.246444882E0,3.451212387E0
7.768859958E0,-1.053809617E0,3.512094998E-1,3.081208999E0,3.275318567E0
7.778889958E0,-9.116278441E-1,4.625100803E-1,2.984753914E0,3.154954331E0
7.788918958E0,-8.139894292E-1,4.683233821E-1,2.896652162E0,3.045077886E0
7.798948958E0,-7.890098315E-1,4.064300197E-1,2.745137356E0,2.885047829E0
7.808978958E0,-7.760721360E-1,2.444568837E-1,2.449012136E0,2.580640922E0
7.819008958E0,-7.551890246E-1,1.097855669E-1,2.125670466E0,2.258503545E0
7.829037958E0,-7.349365354E-1,2.796430886E-2,1.797407925E0,1.942057920E0
7.839067958E0,-7.152599238E-1,2.300645471E-2,1.395862962E0,1.568617055E0
7.849097958E0,-6.971423261E-1,5.810904443E-2,1.040190428E0,1.253547052E0
7.859127958E0,-6.563867214E-1,8.051499009E-2,7.608040327E-1,1.008042146E0
7.869156958E0,-5.070854883E-1,5.045328498E-2,4.979810447E-1,7.125070858E-1
7.879186958E0,-2.414216671E-1,-1.348245138E-1,2.634040551E-1,3.818949687E-1
7.889216958E0,2.499953481E-1,-4.677211189E-1,6.313458011E-2,5.340849131E-1
7.899246958E0,9.954647105E-1,-8.838072306E-1,-4.559588599E-1,1.407111827E0
7.909275958E0,1.641206722E0,-1.045166409E0,-1.386425702E0,2.389164823E0
7.919305958E0,2.020309779E0,-8.922769225E-1,-2.260464282E0,3.160301960E0
7.929335958E0,2.203484335E0,-6.187067521E-1,-2.911423398E0,3.703313039E0
7.939365958E0,2.207236201E0,-3.692048907E-1,-3.432452998E0,4.097552620E0
7.949394958E0,2.129422478E0,-3.042563581E-1,-3.787744731E0,4.355918063E0
7.959424958E0,1.964462730E0,-4.240658069E-1,-3.929512521E0,4.413616916E0
7.969454958E0,1.590623921E0,-5.728908938E-1,-3.785641780E0,4.146006768E0
7.979484958E0,1.113493828E0,-5.969545251E-1,-3.429719717E0,3.655024014E0
7.989514958E0,7.688373030E-1,-5.143321985E-1,-3.015472847E0,3.154159935E0
7.999543958E0,5.684875019E-1,-3.551002371E-1,-2.555125651E0,2.641579322E0
8.009573958E0,4.774605337E-1,-1.172624016E-1,-2.044497956E0,2.102781711E0
8.019603958E0,4.793588322E-1,2.834671676E-2,-1.525533886E0,1.599325503E0
8.029633958E0,5.636810175E-1,-7.465549529E-2,-1.021018578E0,1.168669615E0
8.039662958E0,5.925419238E-1,-3.611059123E-1,-5.997749296E-1,9.171877548E-1
8.049692958E0,5.243408044E-1,-6.968658990E-1,-3.319473097E-1,9.331368478E-1
8.059722958E0,3.379284266E-1,-9.654834777E-1,-2.452731550E-1,1.051909163E0
8.069752958E0,7.248573974E-3,-1.078737028E0,-3.835498649E-1,1.144917734E0
8.079781958E0,-3.244185810E-1,-1.038983563E0,-7.371204704E-1,1.314564889E0
8.089811958E0,-4.865196980E-1,-8.475088853E-1,-1.322084110E0,1.644043528E0
8.099841958E0,-4.186711657E-1,-7.596796131E-1,-1.933950205E0,2.119566478E0
8.109871958E0,-1.383411755E-1,-8.898438960E-1,-2.345680726E0,2.512603929E0
8.119900958E0,2.517621756E-1,-1.257757137E0,-2.580848138E0,2.882033018E0
8.129930958E0,7.575913531E-1,-1.760261003E0,-2.627574992E0,3.252170628E0
8.139960958E0,1.345732589E0,-2.113233438E0,-2.602451261E0,3.612409768E0
8.149990958E0,1.895778850E0,-2.360693452E0,-2.587176287E0,3.982503253E0
8.160019958E0,2.367613631E0,-2.641519432E0,-2.537991263E0,4.361722007E0
8.170049958E0,2.755191643E0,-2.930461932E0,-2.439821190E0,4.704403848E0
8.180079958E0,3.113829446E0,-3.174893088E0,-2.293604254E0,5.003648710E0
8.190109958E0,3.442298539E0,-3.231753752E0,-2.149155077E0,5.187727739E0
8.200138958E0,3.680358861E0,-2.964551784E0,-2.018040183E0,5.138686098E0
8.210168958E0,3.720158227E0,-2.303950317E0,-1.942012931E0,4.787397886E0
8.220198958E0,3.370302942E0,-1.378548333E0,-1.957950686E0,4.134357062E0
8.230228958E0,2.824153120E0,-5.726418024E-1,-2.150110073E0,3.595376587E0
8.240257958E0,2.187509011E0,-1.925295156E-1,-2.150257423E0,3.073413456E0
8.250287958E0,1.472812758E0,-2.429278368E-1,-1.614664164E0,2.198938770E0
8.260317958E0,5.922562142E-1,-4.971203345E-1,-5.692942715E-1,9.602041542E-1
8.270347958E0,-3.184292049E-1,-8.915290636E-1,5.388033807E-1,1.089279722E0
8.280377958E0,-1.126206698E0,-1.333944018E0,1.391204631E0,2.232307886E0
8.290406958E0,-1.667204320E0,-1.688495201E0,2.031406918E0,3.123651766E0
8.300436958E0,-2.113135790E0,-1.834936963E0,2.398622586E0,3.685882097E0
8.310466958E0,-2.529537651E0,-1.735751814E0,2.451331726E0,3.926884556E0
8.320496958E0,-2.818151245E0,-1.403077403E0,2.208571705E0,3.845567788E0
8.330525958E0,-3.073226088E0,-9.795752674E-1,1.810467535E0,3.698929438E0
8.340555958E0,-3.094528372E0,-5.799490678E-1,1.229260293E0,3.379870949E0
8.350585958E0,-2.711684558E0,-3.320493436E-1,5.155315355E-1,2.780155153E0
8.360615958E0,-2.021917910E0,-3.202426457E-1,-3.525145984E-1,2.077251532E0
8.370644958E0,-1.567427870E0,-2.488767940E-1,-8.702025139E-1,1.809978509E0
8.380674958E0,-1.330816342E0,-8.922266364E-3,-8.301677978E-1,1.568544012E0
8.390704958E0,-1.237197888E0,1.523147053E-1,-6.355514109E-1,1.399208340E0
8.400734958E0,-1.146625541E0,3.296560782E-1,-3.162269242E-1,1.234270120E0
8.410763958E0,-1.054980303E0,6.571896172E-1,7.114424229E-2,1.244967122E0
8.420793958E0,-1.064158896E0,9.207347363E-1,5.201718128E-1,1.500255087E0
8.430823958E0,-1.180338467E0,1.145199990E0,1.076149635E0,1.965395622E0
8.440853958E0,-1.308780525E0,1.279060882E0,1.675863461E0,2.481415230E0
8.450882958E0,-1.531089179E0,1.292605373E0,2.331611448E0,3.074325075E0
8.460912958E0,-1.638191605E0,1.229126245E0,2.755807940E0,3.433496827E0
8.470942958E0,-1.796382177E0,1.078172772E0,2.935026269E0,3.606081620E0
8.480972958E0,-1.945571984E0,8.718075746E-1,2.919245803E0,3.614871347E0
8.491001958E0,-2.099039030E0,6.737524402E-1,2.686735951E0,3.475407497E0
8.501031958E0,-2.299532745E0,5.039147991E-1,2.417378553E0,3.374240661E0
8.511061958E0,-2.456441023E0,5.047603065E-1,2.223324230E0,3.351425980E0
8.521091958E0,-2.498813164E0,6.950170094E-1,1.906539627E0,3.219007490E0
8.531120958E0,-2.448346430E0,9.621137273E-1,1.384996058E0,2.972924006E0
8.541150958E0,-2.308197150E0,1.204017717E0,8.485385799E-1,2.738147269E0
8.551180958E0,-2.184351660E0,1.384314857E0,5.987013808E-1,2.654460989E0
8.561210958E0,-2.106512356E0,1.536642426E0,7.278207663E-1,2.707099429E0
8.571239958E0,-1.956436404E0,1.703294504E0,9.638833871E-1,2.767295928E0
8.581269958E0,-1.648332431E0,1.829844623E0,1.059308777E0,2.680945026E0
8.591300208E0,-1.256122694E0,1.826566674E0,9.784204423E-1,2.423117124E0
8.601330208E0,-8.896940611E-1,1.651879352E0,8.597889152E-1,2.063855105E0
8.611360208E0,-5.832448509E-1,1.374687417E0,8.784763241E-1,1.732530144E0
8.621389208E0,-2.794103694E-1,1.186564947E0,8.757488903E-1,1.500980562E0
8.631419208E0,2.887793630E-3,1.046094362E0,8.067371276E-1,1.321039949E0
8.641449208E0,2.570482779E-1,9.853540707E-1,6.521943408E-1,1.209278264E0
8.651479208E0,5.211946370E-1,1.084407073E0,3.461955124E-1,1.251971998E0
8.661508208E0,7.288447599E-1,1.215340850E0,-1.223763764E-2,1.417186588E0
8.671538208E0,8.068105102E-1,1.293412288E0,-2.852762961E-1,1.550883978E0
8.681568208E0,7.497544031E-1,1.296125396E0,-4.289292285E-1,1.557579209E0
8.691598208E0,6.568974026E-1,1.209778978E0,-6.225890109E-1,1.510859507E0
8.701627208E0,6.842943853E-1,1.179338958E0,-1.027764218E0,1.707453798E0
8.711657208E0,8.720322539E-1,1.264763271E0,-1.488220172E0,2.138893560E0
8.721687208E0,1.152830021E0,1.310488497E0,-1.787736192E0,2.498479108E0
8.731717208E0,1.607909460E0,1.322358345E0,-1.981196584E0,2.873872706E0
8.741746208E0,2.246775950E0,1.241876099E0,-2.689050571E0,3.717694365E0
8.751776208E0,3.038217931E0,1.000682546E0,-3.911936668E0,5.053254619E0
8.761806208E0,4.029906290E0,5.504516190E-1,-4.603467275E0,6.142886345E0
8.771836208E0,4.773071904E0,-2.674674314E-1,-4.284156675E0,6.419326495E0
8.781865208E0,4.302618674E0,-1.499831280E0,-3.414445328E0,5.693896576E0
8.791895208E0,2.469763319E0,-2.171027318E0,-2.492538517E0,4.126237842E0
8.801925208E0,6.733517598E-1,-1.258285140E0,-1.261976195E0,1.905063780E0
8.811955208E0,6.322681993E-2,7.877637899E-1,-5.447149158E-2,7.921720538E-1
8.821984208E0,-1.419876453E-1,2.913628383E0,3.778026366E-1,2.941449588E0
8.832014208E0,-2.191083267E-1,4.292952057E0,3.842801821E-1,4.315682690E0
8.842044208E0,-1.922665371E-1,4.608081897E0,4.158995855E-1,4.630805293E0
8.852074208E0,-2.657854068E-1,3.697573357E0,4.338543382E-1,3.732414794E0
8.862103208E0,-3.296443838E-1,7.855190438E-1,-6.167176755E-1,1.051687349E0
8.872133208E0,-2.493232289E-1,-4.473465545E0,-4.448717204E0,6.313884764E0
8.882163208E0,-3.368098542E-1,-1.052299077E1,-8.595036296E0,1.359122601E1
8.892193208E0,-1.111967340E0,-1.457518723E1,-5.205117699E0,1.551662993E1
8.902222208E0,-2.081010602E0,-1.644326621E1,-7.814546442E-1,1.659283822E1
8.912252208E0,-1.895495699E0,-1.444594388E1,7.343260860E-1,1.458826355E1
8.922282208E0,-1.587429441E0,-5.988800717E0,1.621989555E0,6.404413820E0
8.932312208E0,-2.541235298E0,7.526612002E-1,2.127338676E0,3.398521085E0
8.942341208E0,-2.976900519E0,4.150340222E0,2.515348213E0,5.693350269E0
8.952371208E0,-2.989290477E0,6.470119536E0,2.836326438E0,7.670922502E0
8.962401208E0,-2.716517574E0,7.462982601E0,3.401807740E0,8.639900054E0
8.972431208E0,-2.292448844E0,7.208373781E0,3.645404499E0,8.396722470E0
8.982461208E0,-1.801151897E0,6.027569511E0,3.370421641E0,7.136910004E0
8.992490208E0,-1.491366705E0,4.495696658E0,3.143473660E0,5.684794609E0
9.002520208E0,-1.421110801E0,2.749205849E0,3.102111626E0,4.381870062E0
9.012550208E0,-1.237668150E0,1.050272782E0,3.038748858E0,3.445125541E0
9.022580208E0,-9.669113678E-1,-3.391285676E-1,2.973879848E0,3.145454995E0
9.032609208E0,-7.229045735E-1,-1.387587544E0,2.894927233E0,3.290682893E0
9.042639208E0,-3.223124870E-1,-2.063598763E0,2.605666645E0,3.339434661E0
9.052669208E0,8.578467625E-1,-2.185868136E0,1.294234407E0,2.681224212E0
9.062699208E0,1.932008198E0,-1.692318111E0,6.064042834E-1,2.639000270E0
9.072728208E0,1.595883199E0,-7.957505018E-1,1.264708307E0,2.186218001E0
9.082758208E0,1.112733763E0,3.261576891E-3,1.326153188E0,1.731146829E0
9.092788208E0,7.390132141E-1,5.679277772E-1,6.675321722E-1,1.146421254E0
9.102818208E0,3.119641578E-1,8.773255920E-1,-6.003640000E-1,1.107907380E0
9.112847208E0,-1.170044480E-1,9.091736215E-1,-2.113826931E0,2.304029298E0
9.122877208E0,-5.738809736E-1,8.012211567E-1,-3.376455967E0,3.517349800E0
9.132907208E0,-9.850860489E-1,6.093915528E-1,-3.711358752E0,3.887921858E0
9.142937208E0,-1.115911944E0,3.120506966E-1,-2.708714465E0,2.946144796E0
9.152966208E0,-9.969226407E-1,-4.994106889E-2,-1.133619579E0,1.510444376E0
9.162996208E0,-8.581343725E-1,-3.205969870E-1,2.673978678E-1,9.542948438E-1
9.173026208E0,-6.460036743E-1,-4.747904027E-1,1.342927680E0,1.564033704E0
9.183056208E0,-2.834452954E-1,-5.417509621E-1,2.068118076E0,2.156605601E0
9.193085208E0,1.148618089E-1,-5.202028030E-1,2.454942967E0,2.512080644E0
9.203115208E0,3.924319316E-1,-3.025928253E-1,2.572150404E0,2.619450886E0
9.213145208E0,5.207604812E-1,-2.640076339E-2,2.519346539E0,2.572740846E0
9.223175208E0,5.860430360E-1,2.112645793E-1,2.404978509E0,2.484351181E0
9.233204208E0,6.512751585E-1,4.085262465E-1,2.261857381E0,2.388943666E0
9.243234208E0,7.068343053E-1,5.856810933E-1,2.146159694E0,2.334231889E0
9.253264208E0,6.767918229E-1,7.278450322E-1,2.071994780E0,2.298035668E0
9.263294208E0,6.121266245E-1,8.412108493E-1,2.048728709E0,2.297743245E0
9.273323208E0,4.655886759E-1,9.362468147E-1,2.077757796E0,2.326028455E0
9.283353208E0,2.473136505E-1,9.230367851E-1,2.084763345E0,2.293337994E0
9.293383208E0,5.560665540E-3,7.197536552E-1,1.976088164E0,2.103093122E0
9.303413208E0,1.065457709E-2,5.809828556E-1,1.727854564E0,1.822947063E0
9.313442208E0,2.504455654E-1,5.942934573E-1,1.389828197E0,1.532165171E0
9.323472208E0,3.555174725E-1,5.695304990E-1,1.060180305E0,1.254886425E0
9.333502208E0,1.817722103E-1,4.610991472E-1,8.072285130E-1,9.472441249E-1
9.343532208E0,-7.795719869E-2,3.117314386E-1,5.468110695E-1,6.342366754E-1
9.353562208E0,-1.207394118E-1,2.323332667E-2,-1.271471196E-1,1.768733532E-1
9.363591208E0,1.172284512E-1,-2.284372669E-1,-1.114631331E0,1.143822145E0
9.373621208E0,4.334698107E-1,-3.445156074E-1,-1.953865529E0,2.030807127E0
9.383651208E0,7.230719501E-1,-4.750482649E-1,-2.512723398E0,2.657495583E0
9.393681208E0,9.511306098E-1,-6.712363833E-1,-2.929654432E0,3.152472492E0
9.403710208E0,1.096858646E0,-7.913773692E-1,-3.281330540E0,3.549155835E0
9.413740208E0,1.184693473E0,-6.362331963E-1,-3.490186651E0,3.740279958E0
9.423770208E0,1.146884865E0,-2.914410156E-1,-3.462538092E0,3.659160121E0
9.433800208E0,1.052093532E0,9.384547234E-2,-3.120798742E0,3.294706749E0
9.443829208E0,9.370119229E-1,3.006924802E-1,-2.532230294E0,2.716725524E0
9.453859208E0,8.673623751E-1,3.034383327E-1,-1.782439930E0,2.005363911E0
9.463889208E0,9.225225225E-1,1.681764472E-1,-9.880983151E-1,1.362229570E0
9.473919208E0,1.006956170E0,2.275736332E-3,-2.549666691E-1,1.038736690E0
9.483948208E0,1.012461251E0,-2.150190765E-1,4.042507625E-1,1.111183903E0
9.493978208E0,9.554027317E-1,-4.000781894E-1,9.817843455E-1,1.427150111E0
9.504008208E0,8.642434703E-1,-4.903422421E-1,1.439704508E0,1.749314540E0
9.514038208E0,7.925561678E-1,-6.161012328E-1,1.605006464E0,1.893085248E0
9.524067208E0,8.046075717E-1,-7.470923120E-1,1.356661035E0,1.745299239E0
9.534097208E0,9.310406001E-1,-7.791262829E-1,8.357425332E-1,1.473886002E0
9.544127208E0,1.137731195E0,-8.026537246E-1,2.992077260E-1,1.424152568E0
9.554157208E0,1.348036685E0,-9.154903686E-1,-1.327686328E-1,1.634916826E0
9.564186208E0,1.599301043E0,-1.095503334E0,-5.204397614E-1,2.007174364E0
9.574216208E0,1.987868550E0,-1.460739135E0,-9.141240205E-1,2.630779907E0
9.584246208E0,2.451483169E0,-2.068713908E0,-1.262941863E0,3.447371333E0
9.594277000E0,2.866668517E0,-2.645577984E0,-1.562899787E0,4.202324000E0
9.604306000E0,3.202484930E0,-3.059744455E0,-1.846569268E0,4.798725239E0
9.614336000E0,3.474450624E0,-3.343975269E0,-2.119128016E0,5.267322023E0
9.624366000E0,3.722129616E0,-3.488572819E0,-2.257868557E0,5.578741759E0
9.634396000E0,3.915016396E0,-3.386854071E0,-2.325234913E0,5.674931831E0
9.644425000E0,4.134144311E0,-3.014595764E0,-2.381286761E0,5.643532887E0
9.654455000E0,4.325696757E0,-2.585139409E0,-2.515794355E0,5.632390206E0
9.664485000E0,4.354295781E0,-2.023179885E0,-2.899645352E0,5.609018788E0
9.674515000E0,4.011962647E0,-1.398396707E0,-3.528067837E0,5.522555595E0
9.684544000E0,3.321873963E0,-8.844568563E-1,-3.946855947E0,5.234002525E0
9.694574000E0,2.366500760E0,-4.186945546E-1,-3.657101853E0,4.376074148E0
9.704604000E0,1.459086858E0,-1.593693709E-1,-2.546392250E0,2.939123432E0
9.714634000E0,7.828497899E-1,-1.217530632E-1,-9.568594193E-1,1.242279176E0
9.724664000E0,1.748539674E-1,-2.353831744E-1,6.041764943E-1,6.715715784E-1
9.734693000E0,-3.432234458E-1,-3.799333620E-1,1.796659920E0,1.868191254E0
9.744723000E0,-7.672356045E-1,-5.409381992E-1,2.704783967E0,2.863061458E0
9.754753000E0,-9.989717974E-1,-8.139049369E-1,3.389591153E0,3.626253450E0
9.764783000E0,-9.109616270E-1,-1.140940878E0,3.891282256E0,4.156161061E0
9.774812000E0,-6.950220526E-1,-1.327400399E0,4.281759317E0,4.536354298E0
9.784842000E0,-4.978641734E-1,-1.230462919E0,4.504316039E0,4.695824817E0
9.794872000E0,-2.667789218E-1,-1.025937840E0,4.558612114E0,4.680241858E0
9.804902000E0,-3.017053641E-3,-7.208845067E-1,4.385866653E0,4.444717074E0
9.814931000E0,3.006771678E-1,-4.867228156E-1,4.104393386E0,4.144074194E0
9.824961000E0,6.742180248E-1,-4.102921057E-1,3.670836086E0,3.754723309E0
9.834991000E0,1.102937777E0,-4.241856748E-1,3.048266956E0,3.269302167E0
9.845021000E0,1.411843402E0,-2.789484394E-1,2.528707054E0,2.909548657E0
9.855050000E0,1.397137801E0,-5.938841522E-2,2.336082813E0,2.722646494E0
9.865080000E0,1.087817608E0,7.386085868E-2,2.334665741E0,2.576716262E0
9.875110000E0,7.706685048E-1,1.457330793E-1,2.262039960E0,2.394158068E0
9.885140000E0,4.319150726E-1,2.729959738E-1,2.207319231E0,2.265686567E0
9.895169000E0,1.244829089E-1,2.965240002E-1,2.128736161E0,2.152891107E0
9.905199000E0,-3.290988386E-1,1.784412342E-1,2.047843148E0,2.081780219E0
9.915229000E0,-7.843349826E-1,-2.757956207E-2,1.825310985E0,1.986882530E0
9.925259000E0,-1.155686094E0,-2.252809399E-1,1.705007154E0,2.072054836E0
9.935288000E0,-1.424253094E0,-3.134183604E-1,1.872199807E0,2.373154032E0
9.945318000E0,-1.651496360E0,-3.187475127E-1,2.180208908E0,2.753606923E0
9.955348000E0,-1.828227430E0,-2.625312120E-1,2.483503984E0,3.095016997E0
9.965378000E0,-1.908115452E0,-1.632799888E-1,2.833254311E0,3.419779953E0
9.975407000E0,-1.933825074E0,-2.233051658E-3,3.190094680E0,3.730467594E0
9.985437000E0,-1.989931448E0,1.399115914E-1,3.395061808E0,3.937746449E0
9.995467000E0,-2.153237456E0,3.063788974E-1,3.464186714E0,4.090340959E0
1.000549700E1,-2.386164800E0,4.200288892E-1,3.436272984E0,4.204542631E0
1.001552600E1,-2.634025640E0,5.203355348E-1,3.264785843E0,4.227016293E0
1.002555600E1,-2.877075099E0,6.828308272E-1,2.896210697E0,4.139064564E0
1.003558600E1,-3.191913164E0,8.167677337E-1,2.436989676E0,4.098089537E0
1.004561600E1,-3.509245943E0,8.599558532E-1,1.834755115E0,4.052241045E0
1.005564500E1,-3.791474378E0,8.812648612E-1,1.264626738E0,4.092821337E0
1.006567500E1,-3.965430213E0,8.923751557E-1,8.234016922E-1,4.147162950E0
1.007570500E1,-3.946196674E0,9.789887917E-1,5.403353512E-1,4.101566717E0
1.008573500E1,-3.695673596E0,1.077292181E0,3.623639408E-1,3.866506097E0
1.009576500E1,-3.198186934E0,1.101107891E0,3.427523795E-1,3.399752556E0
1.010579400E1,-2.451704048E0,1.048942541E0,3.998293903E-1,2.696478580E0
1.011582400E1,-1.554252486E0,8.825231820E-1,4.606401408E-1,1.845734893E0
1.012585400E1,-7.325997687E-1,5.144707775E-1,3.312620160E-1,9.545245546E-1
1.013588400E1,-1.699412830E-2,1.011240864E-1,-2.054585865E-1,2.296260264E-1
1.014591300E1,5.660022160E-1,-2.335021251E-1,-9.140972695E-1,1.100207057E0
1.015594300E1,9.578929147E-1,-4.875975591E-1,-1.434405030E0,1.792436332E0
1.016597300E1,1.221833159E0,-6.906391990E-1,-1.706680919E0,2.209664801E0
1.017600300E1,1.465186674E0,-7.272106093E-1,-1.753701012E0,2.398139799E0
1.018603200E1,1.619668503E0,-4.772146583E-1,-1.375787278E0,2.178038228E0
1.019606200E1,1.440703651E0,-7.818721354E-2,-8.503713897E-1,1.674775134E0
1.020609200E1,9.786725304E-1,2.008746618E-1,-3.372045413E-1,1.054446516E0
1.021612200E1,6.380996275E-1,3.889228714E-1,1.083284408E-2,7.473616828E-1
1.022615100E1,6.933961612E-1,6.318530470E-1,1.254695535E-2,9.381865142E-1
1.023618100E1,1.205605820E0,1.031573387E0,-4.107028726E-1,1.638995392E0
1.024621100E1,1.995726915E0,1.305681501E0,-8.632028121E-1,2.536306211E0
1.025624100E1,2.785192537E0,1.214991186E0,-1.032912692E0,3.209425132E0
1.026627000E1,3.245251465E0,7.326637226E-1,-9.359240484E-1,3.456068145E0
1.027630000E1,3.226704682E0,2.032527244E-1,-8.062775365E-1,3.332119181E0
1.028633000E1,2.758737980E0,6.558237076E-3,-7.426753253E-2,2.759745263E0
1.029636000E1,1.993691207E0,2.887039340E-1,1.169179129E0,2.329191797E0
1.030638900E1,1.176118677E0,6.327412391E-1,1.907193346E0,2.328304765E0
1.031641900E1,3.638362697E-1,7.337302548E-1,2.081751591E0,2.237057577E0
1.032644900E1,-3.976128571E-1,5.268528414E-1,1.668288978E0,1.794117615E0
1.033647900E1,-1.249401904E0,-3.905694473E-1,6.318116780E-1,1.453525235E0
1.034650800E1,-1.994818550E0,-2.665404723E0,-8.234166026E-1,3.429533247E0
1.035653800E1,-2.196442533E0,-6.103859888E0,-2.419369530E0,6.923497256E0
1.036656800E1,-2.129986296E0,-9.629661929E0,-3.987918019E0,1.063817280E1
1.037659800E1,-2.051818963E0,-1.168853965E1,-3.930067129E0,1.250109387E1
1.038662700E1,-1.433402086E0,-1.083006782E1,-2.378194607E0,1.118037656E1
1.039665700E1,-3.991190998E-1,-6.417235563E0,-7.370577590E-1,6.471743387E0
1.040668700E1,-9.328392036E-1,-6.995620501E-1,3.435905778E-1,1.215578269E0
1.041671700E1,-1.788859004E0,3.051565955E0,1.131250287E0,3.713731078E0
1.042674600E1,-1.961840839E0,5.263032031E0,1.955837795E0,5.947573212E0
1.043677600E1,-1.689109013E0,6.556622660E0,2.664752759E0,7.276214484E0
1.044680600E1,-1.146934347E0,6.983521442E0,3.269690487E0,7.795890329E0
1.045683600E1,-5.773075151E-1,6.478040759E0,3.543416194E0,7.406354998E0
1.046686600E1,-1.115275073E-1,4.972921257E0,3.564774903E0,6.119640866E0
1.047689500E1,2.727539356E-1,3.190408090E0,3.649430891E0,4.855043184E0
1.048692500E1,5.991541015E-1,1.328510785E0,3.670034140E0,3.948807052E0
1.049695500E1,7.901240916E-1,-4.334950268E-1,3.747382278E0,3.854229879E0
1.050698400E1,8.197884053E-1,-1.777616124E0,3.900060096E0,4.363764529E0
1.051701400E1,9.109312215E-1,-2.634408048E0,4.000572563E0,4.875908355E0
1.052704400E1,1.286008105E0,-2.863825309E0,3.859506147E0,4.975047733E0
1.053707400E1,2.023836527E0,-2.273841249E0,3.427130277E0,4.583829213E0
1.054710400E1,2.827226416E0,-1.203212555E0,2.292707291E0,3.833723566E0
1.055713300E1,3.548649744E0,-2.474483192E-2,-1.656026490E-1,3.552597859E0
1.056716300E1,2.836558865E0,7.220685679E-1,6.980908906E-1,3.009116166E0
1.057719300E1,1.984808994E0,7.068880266E-1,1.343383909E0,2.498767247E0
1.058722300E1,1.294499286E0,3.141551095E-1,1.248199278E0,1.825492611E0
1.059725112E1,5.607772902E-1,-9.043713033E-2,1.050668566E0,1.194384561E0
1.060728113E1,4.621591743E-2,-4.048080021E-1,5.878790617E-1,7.152672373E-1
1.061731113E1,-3.101047798E-1,-5.777978772E-1,-5.266704082E-2,6.578671435E-1
1.062734112E1,-5.607990346E-1,-4.984382969E-1,-7.751512726E-1,1.078793673E0
1.063737012E1,-6.618959679E-1,-1.180143535E-1,-1.268066947E0,1.435279570E0
1.064740013E1,-5.508241232E-1,5.477782720E-1,-1.381608181E0,1.585026629E0
1.065743013E1,-2.310153043E-1,1.213052250E0,-1.100803835E0,1.654277158E0
1.066746012E1,1.617453870E-1,1.478671376E0,-5.763565020E-1,1.595248390E0
1.067748912E1,5.805924808E-1,1.180261649E0,-3.210238338E-2,1.315726321E0
1.068751913E1,8.572415757E-1,4.876086688E-1,4.708691867E-1,1.092860066E0
1.069754913E1,1.049215533E0,-3.134183604E-1,1.014139840E0,1.492502569E0
1.070757912E1,1.150266967E0,-9.305142045E-1,1.480629609E0,2.093139943E0
1.071760812E1,1.148783090E0,-1.185657459E0,1.880318373E0,2.502215695E0
1.072763813E1,1.156654539E0,-1.050716001E0,2.190413761E0,2.690681379E0
1.073766813E1,1.230684821E0,-5.736293972E-1,2.345815212E0,2.710439968E0
1.074769812E1,1.262417952E0,9.148553610E-3,2.311354061E0,2.633655327E0
1.075772712E1,1.157093884E0,4.554443049E-1,2.138980483E0,2.474173251E0
1.076775713E1,9.970343225E-1,6.638782471E-1,1.876786655E0,2.226463545E0
1.077778713E1,8.192918305E-1,5.990209311E-1,1.500512481E0,1.811519496E0
1.078781712E1,6.376407672E-1,3.957243526E-1,1.100565269E0,1.332076358E0
1.079784612E1,5.003770874E-1,2.319520283E-1,6.832126504E-1,8.780424242E-1
1.080787613E1,4.216905948E-1,8.691769123E-2,2.204990870E-1,4.837328706E-1
1.081790613E1,3.443583173E-1,-4.219818592E-2,-3.527759689E-1,4.947870469E-1
1.082793612E1,3.495167309E-1,-2.134245408E-1,-8.915951371E-1,9.811492589E-1
1.083796512E1,4.085661538E-1,-4.132525510E-1,-1.210277746E0,1.342563293E0
1.084799513E1,5.021180228E-1,-5.855910462E-1,-1.240336527E0,1.460641668E0
1.085802513E1,6.176338611E-1,-5.981947196E-1,-1.095216821E0,1.392411000E0
1.086805512E1,7.594204353E-1,-4.214111710E-1,-8.055825949E-1,1.184597016E0
1.087808412E1,9.469388140E-1,-1.564615506E-1,-4.690713141E-1,1.068270206E0
1.088811413E1,1.156450910E0,-3.322387934E-3,-1.608721054E-1,1.167591358E0
1.089814413E1,1.304182275E0,5.670571268E-2,7.490692556E-2,1.307561850E0
1.090817412E1,1.336179993E0,5.366165221E-2,1.948936180E-1,1.351384501E0
1.091820413E1,1.268521276E0,2.044186592E-3,2.257604116E-1,1.288455731E0
1.092823313E1,1.090835429E0,1.457541293E-1,2.678112477E-1,1.132646928E0
1.093826313E1,8.216275739E-1,4.327758193E-1,3.064082066E-1,9.778817766E-1
1.094829312E1,5.364041220E-1,7.328327072E-1,3.893562231E-1,9.881150881E-1
1.095832313E1,3.286266759E-1,9.966450441E-1,4.743062532E-1,1.151635037E0
1.096835213E1,1.845873888E-1,1.145867742E0,5.235275298E-1,1.273250352E0
1.097838213E1,1.442629431E-1,1.014986005E0,4.618582620E-1,1.124420492E0
1.098841212E1,2.085903552E-1,5.223645186E-1,2.566114908E-1,6.182427386E-1
1.099844213E1,2.997502014E-1,-2.100238001E-1,-8.578976333E-2,3.759256088E-1
1.100847113E1,3.789083451E-1,-8.488017046E-1,-4.453699909E-1,1.030723191E0
1.101850113E1,4.807938851E-1,-1.230092790E0,-8.078787965E-1,1.548211608E0
1.102853112E1,6.423602012E-1,-1.347124811E0,-1.139231152E0,1.877556791E0
1.103856113E1,9.517293647E-1,-1.278037620E0,-1.462099198E0,2.162614853E0
1.104859013E1,1.398757187E0,-1.096140096E0,-1.765492360E0,2.504996618E0
1.105862013E1,2.082728222E0,-1.078509572E0,-2.002502815E0,3.083983992E0
1.106865012E1,2.810068932E0,-1.179306214E0,-2.174061438E0,3.743500191E0
1.107868013E1,3.399006924E0,-1.342220167E0,-2.279255332E0,4.306948794E0
1.108870913E1,3.942242494E0,-1.647221460E0,-2.264096280E0,4.835364142E0
1.109873913E1,4.447551854E0,-2.158684430E0,-2.144675086E0,5.388902225E0
1.110876912E1,4.782951652E0,-2.981262542E0,-1.871752349E0,5.938687541E0
1.111879913E1,5.022086400E0,-3.780136626E0,-1.550126690E0,6.474077346E0
1.112882812E1,5.194051259E0,-4.145818570E0,-1.338914151E0,6.779282498E0
1.113885813E1,5.393326707E0,-3.994077476E0,-1.346969860E0,6.845067981E0
1.114888812E1,5.683644472E0,-3.683865144E0,-1.677546875E0,6.977738918E0
1.115891813E1,5.852419674E0,-3.215522466E0,-2.268433160E0,7.052388941E0
1.116894712E1,5.564604517E0,-2.424179011E0,-2.873887197E0,6.715705096E0
1.117897713E1,4.732838091E0,-1.462198015E0,-2.882997744E0,5.731444445E0
1.118900712E1,3.608149549E0,-6.465330666E-1,-1.954263432E0,4.154021393E0
1.119903713E1,2.572629291E0,-2.119276536E-1,-6.315927728E-1,2.657488332E0
1.120906612E1,1.746300483E0,-1.157544047E-1,5.117015362E-1,1.823404212E0
1.121909613E1,1.042901929E0,-2.859803009E-1,1.461062486E0,1.817727360E0
1.122912612E1,4.485779196E-1,-5.543318313E-1,2.254185834E0,2.364288414E0
1.123915613E1,3.275244758E-2,-8.839931720E-1,2.837718076E0,2.972399793E0
1.124918512E1,-3.887521327E-2,-1.231480919E0,3.385775260E0,3.602989127E0
1.125921513E1,1.459921110E-1,-1.550966350E0,3.998509666E0,4.291257376E0
1.126924512E1,4.049381027E-1,-1.679586968E0,4.460891107E0,4.783778499E0
1.127927513E1,7.715439791E-1,-1.428416896E0,4.874224935E0,5.137482229E0
1.128930513E1,1.100764732E0,-1.115562208E0,5.266438619E0,5.494682681E0
1.129933413E1,1.299871854E0,-1.029666025E0,5.194292164E0,5.452572791E0
1.130936413E1,1.388821306E0,-8.204672670E-1,4.794341444E0,5.058428712E0
1.131939413E1,1.272398565E0,-4.959006053E-1,4.571321622E0,4.770942977E0
1.132942413E1,1.064568567E0,-2.029194331E-1,4.574792529E0,4.701405026E0
1.133945313E1,9.212943149E-1,7.454615235E-3,4.657828839E0,4.748074165E0
1.134948313E1,8.658477270E-1,2.386166847E-1,4.505340471E0,4.593987698E0
1.135951313E1,5.241279658E-1,5.346501034E-1,3.640449568E0,3.716642829E0
1.136954313E1,-1.434797086E-1,6.843791699E-1,2.172719794E0,2.282470718E0
1.137957213E1,-9.738770096E-1,6.408735466E-1,1.488461515E0,1.890680569E0
1.138960213E1,-1.724855235E0,4.607108921E-1,1.148939284E0,2.123073618E0
1.139963213E1,-2.300971161E0,2.075106668E-1,6.128957891E-1,2.390223882E0
1.140966213E1,-2.803384979E0,-5.885514915E-2,2.272615381E-1,2.813197305E0
1.141969113E1,-3.201120774E0,-2.803991336E-1,4.277682638E-1,3.241725401E0
1.142972113E1,-3.187464602E0,-3.592599463E-1,9.636456978E-1,3.349270268E0
1.143975112E1,-2.827521993E0,-3.002042377E-1,1.250706857E0,3.106327550E0
1.144978113E1,-2.408255142E0,-7.061916232E-2,1.101502139E0,2.649148327E0
1.145981013E1,-2.049747879E0,2.015891916E-1,1.145485919E0,2.356744059E0
1.146984013E1,-1.840711673E0,2.993616539E-1,1.626881044E0,2.474788636E0
1.147987012E1,-1.776147595E0,3.645025599E-1,2.156268361E0,2.817278055E0
1.148990013E1,-1.801468963E0,4.066259015E-1,2.350285700E0,2.989059705E0
1.149992913E1,-2.108207025E0,3.888655686E-1,2.338292769E0,3.172280940E0
1.150995913E1,-2.543679727E0,3.785727149E-1,2.184284710E0,3.374125597E0
1.151998912E1,-2.959437517E0,4.578814244E-1,2.054472137E0,3.631636212E0
1.153001913E1,-3.220822383E0,6.184968370E-1,1.886700025E0,3.783632136E0
1.154004813E1,-3.424686141E0,8.121659750E-1,1.747311467E0,3.929527465E0
1.155007813E1,-3.549754868E0,9.603168780E-1,1.644667104E0,4.028386527E0
1.156010812E1,-3.534869026E0,9.926186514E-1,1.565296414E0,3.991333572E0
1.157013813E1,-3.418931019E0,9.301265341E-1,1.439962808E0,3.824619925E0
1.158016812E1,-3.193592484E0,8.518106818E-1,1.219232464E0,3.522945102E0
1.159019783E1,-2.881535355E0,8.353612947E-1,1.074462129E0,3.186776328E0
1.160022783E1,-2.391622299E0,9.603619015E-1,9.968953049E-1,2.763322719E0
1.161025783E1,-1.654781325E0,1.117413436E0,7.796440539E-1,2.143538867E0
1.162028783E1,-8.237472627E-1,1.257893377E0,4.373705614E-1,1.565933686E0
1.163031683E1,-1.188668776E-1,1.367883596E0,9.564963073E-2,1.376366129E0
1.164034683E1,4.103095742E-1,1.369240150E0,-1.473305386E-1,1.436968623E0
1.165037683E1,7.852781385E-1,1.248877555E0,-2.836513549E-1,1.502269947E0
1.166040683E1,9.875822984E-1,1.014395437E0,-4.623957673E-1,1.489337686E0
1.167043583E1,9.808349039E-1,7.257324332E-1,-7.296985996E-1,1.421683762E0
1.168046583E1,9.096606215E-1,5.549797028E-1,-1.004505164E0,1.464416451E0
1.169049583E1,8.839590389E-1,6.302930099E-1,-1.126708463E0,1.564648465E0
1.170052583E1,8.901601573E-1,8.311308342E-1,-8.625216115E-1,1.492349523E0
1.171055483E1,1.065926071E0,8.718198538E-1,-9.642745659E-1,1.681098952E0
1.172058483E1,1.572298455E0,7.637445974E-1,-1.733070281E0,2.461495651E0
1.173061483E1,2.409892801E0,6.083758914E-1,-2.639353916E0,3.625450818E0
1.174064483E1,3.338920936E0,4.397141254E-1,-2.679986217E0,4.303959532E0
1.175067383E1,3.946437287E0,4.677538633E-2,-2.198239675E0,4.517611411E0
1.176070383E1,3.928640409E0,-7.982794225E-1,-2.409448413E0,4.677275612E0
1.177073383E1,3.317414292E0,-1.472428304E0,-2.951469809E0,4.678082591E0
1.178076383E1,2.548047889E0,-9.293511933E-1,-2.035561949E0,3.391128740E0
1.179079283E1,1.782738284E0,8.703457707E-1,-4.109187810E-1,2.025959475E0
1.180082283E1,1.022717340E0,2.867511978E0,1.136502256E0,3.249648147E0
1.181085283E1,1.470989889E-1,4.014088402E0,2.149696090E0,4.555846474E0
1.182088283E1,-6.929646367E-1,4.234467037E0,1.915076562E0,4.698768914E0
1.183091183E1,-1.522221000E0,3.472794693E0,5.529257222E-1,3.831864638E0
1.184094183E1,-2.437596909E0,7.474220949E-1,-1.329689438E0,2.875516037E0
1.185097183E1,-2.432054041E0,-3.802022755E0,-4.977562777E0,6.719106718E0
1.186100183E1,-1.716960763E0,-9.704748364E0,-9.272487684E0,1.353178196E1
1.187103183E1,-1.470680864E0,-1.497710846E1,-8.104143831E0,1.709250793E1
1.188106083E1,-8.115096981E-1,-1.696430458E1,-4.133956908E0,1.747958173E1
1.189109083E1,5.937509087E-1,-1.229648168E1,-2.327405253E-1,1.231300816E1
1.190112083E1,2.192423011E-1,-3.684508338E0,1.371187419E0,3.937489532E0
1.191115083E1,-1.144546856E0,1.109341940E0,2.142195136E0,2.670136147E0
1.192117983E1,-1.882254387E0,3.925680841E0,2.843522022E0,5.199948954E0
1.193120983E1,-2.330141165E0,5.691837591E0,3.413436098E0,7.034068453E0
1.194123983E1,-2.461914017E0,6.429610611E0,3.473366550E0,7.711367481E0
1.195126983E1,-2.344369780E0,6.253118838E0,3.130322102E0,7.375397029E0
1.196129883E1,-1.924329635E0,5.455940446E0,2.819453713E0,6.435809967E0
1.197132883E1,-1.261110223E0,4.278210057E0,2.551703861E0,5.138547740E0
1.198135883E1,-6.816843344E-1,2.960359331E0,2.495128541E0,3.931168698E0
1.199138883E1,-2.525710648E-1,1.646623290E0,2.707976546E0,3.179354868E0
1.200141783E1,4.861471938E-2,5.089586073E-1,3.024543632E0,3.067452761E0
1.201144783E1,3.547505371E-1,-3.407307047E-1,3.331340021E0,3.367457749E0
1.202147783E1,6.237932450E-1,-8.895755088E-1,3.504234002E0,3.668803420E0
1.203150783E1,8.089452555E-1,-1.131180705E0,3.469259466E0,3.737609324E0
1.204153683E1,9.253560832E-1,-1.146973450E0,3.254224602E0,3.572367525E0
1.205156683E1,8.896139543E-1,-9.446399081E-1,2.927735960E0,3.202404627E0
1.206159683E1,8.031218673E-1,-5.709835321E-1,2.390770944E0,2.585887205E0
1.207162683E1,7.634609344E-1,-1.185856265E-1,1.150169538E0,1.385577539E0
1.208165583E1,5.770105496E-1,1.235832417E-1,-1.934738227E-1,6.210041160E-1
1.209168583E1,4.869886447E-1,7.400937796E-2,-1.303244966E0,1.393227465E0
1.210171583E1,3.866561617E-1,-2.557630599E-2,-2.384613242E0,2.415892681E0
1.211174583E1,2.143853114E-1,-6.004037976E-2,-3.256947650E0,3.264548040E0
1.212177483E1,-4.402563267E-2,-1.009352213E-1,-3.605152851E0,3.606834242E0
1.213180483E1,-3.527106263E-1,-1.266974688E-1,-3.179006020E0,3.201021135E0
1.214183483E1,-6.565579717E-1,-1.002019805E-1,-2.096559518E0,2.199243192E0
1.215186483E1,-7.948123160E-1,-5.181217790E-3,-8.786874086E-1,1.184839662E0
1.216189483E1,-7.183248150E-1,1.105205619E-1,1.346321404E-2,7.269020515E-1
1.217192383E1,-5.444613659E-1,1.760374439E-1,6.574381238E-1,8.715803160E-1
1.218195383E1,-3.857918701E-1,2.620821458E-1,1.124482135E0,1.217367032E0
1.219198383E1,-2.781450867E-1,3.811478287E-1,1.442368938E0,1.517585750E0
1.220201383E1,-1.905056298E-1,5.371591437E-1,1.636770147E0,1.733161520E0
1.221204283E1,-1.840167005E-1,6.296644342E-1,1.799252576E0,1.915110774E0
1.222207283E1,-2.684697173E-1,6.408098119E-1,1.907336018E0,2.029936918E0
1.223210283E1,-3.251509447E-1,5.925357842E-1,1.948455393E0,2.062353076E0
1.224213283E1,-3.487414632E-1,5.202419794E-1,1.926224279E0,2.025490631E0
1.225216183E1,-3.755595716E-1,4.257790411E-1,1.901018102E0,1.983986544E0
1.226219183E1,-4.272189910E-1,2.470659113E-1,1.847972746E0,1.912736495E0
1.227222183E1,-6.174656074E-1,-4.921542943E-2,1.719348035E0,1.827523899E0
1.228225183E1,-7.886311512E-1,-3.483531350E-1,1.570845714E0,1.791883159E0
1.229228083E1,-8.428024614E-1,-5.025734478E-1,1.395411118E0,1.705892215E0
1.230231083E1,-8.158314483E-1,-4.840295881E-1,1.183920910E0,1.517080853E0
1.231234083E1,-8.306768710E-1,-3.339865261E-1,9.377911375E-1,1.296542819E0
1.232237083E1,-8.778172698E-1,-1.231715977E-1,6.225466186E-1,1.083189131E0
1.233239983E1,-9.183272184E-1,1.123425543E-1,1.960401839E-1,9.457153288E-1
1.234242983E1,-8.893919794E-1,2.843430805E-1,-3.466983730E-1,9.960265268E-1
1.235245983E1,-8.050305446E-1,3.164811319E-1,-9.040070218E-1,1.251184711E0
1.236248983E1,-6.613049606E-1,2.448556638E-1,-1.417848639E0,1.583531910E0
1.237251883E1,-4.795971063E-1,1.110532433E-1,-1.852594385E0,1.916886059E0
1.238254883E1,-2.470039674E-1,1.878710389E-3,-2.149195130E0,2.163343291E0
1.239257883E1,-6.987861246E-3,-3.965055406E-2,-2.269560064E0,2.269917153E0
1.240260883E1,2.497534743E-1,2.720943332E-2,-2.234844999E0,2.248921813E0
1.241263783E1,4.437325878E-1,1.612358022E-1,-2.014596173E0,2.069176970E0
1.242266783E1,5.006294313E-1,3.250303459E-1,-1.642878733E0,1.747948822E0
1.243269783E1,4.346395097E-1,4.824332982E-1,-1.254376131E0,1.412484643E0
1.244272783E1,4.008812314E-1,5.651971275E-1,-8.767913027E-1,1.117549347E0
1.245275783E1,4.108581892E-1,4.857311279E-1,-5.564305432E-1,8.451947288E-1
1.246278683E1,5.052905028E-1,3.197795463E-1,-2.879152907E-1,6.636811471E-1
1.247281683E1,7.042013041E-1,4.051067948E-2,-1.031286581E-1,7.128647221E-1
1.248284683E1,9.454568372E-1,-3.174792516E-1,4.465854809E-2,9.983366627E-1
1.249287683E1,1.174196332E0,-6.716293162E-1,1.391998391E-1,1.359852771E0
1.250290583E1,1.360302097E0,-8.406495166E-1,1.915704261E-1,1.610531785E0
1.251293583E1,1.519820864E0,-8.479848486E-1,1.395518415E-1,1.745969209E0
1.252296583E1,1.665242579E0,-7.047748429E-1,-4.309909567E-2,1.808755914E0
1.253299583E1,1.719804995E0,-4.239740056E-1,-4.637305404E-1,1.830991314E0
1.254302483E1,1.709405429E0,-2.057605952E-1,-1.084416575E0,2.034788356E0
1.255305483E1,1.680408502E0,-2.150085515E-1,-1.826517850E0,2.491218350E0
1.256308483E1,1.669337530E0,-4.382739562E-1,-2.534425923E0,3.066282213E0
1.257311483E1,1.714272359E0,-8.160467720E-1,-3.165886622E0,3.691544414E0
1.258314383E1,1.901420975E0,-1.408196055E0,-3.588998163E0,4.298758620E0
1.259317375E1,2.290304962E0,-2.032118524E0,-3.764508773E0,4.852476565E0
1.260320375E1,2.687863002E0,-2.482294487E0,-3.807599244E0,5.280549729E0
1.261323375E1,3.036134275E0,-2.862390402E0,-3.701395097E0,5.577787717E0
1.262326275E1,3.345758085E0,-3.362944221E0,-3.489089713E0,5.888738237E0
1.263329275E1,3.460554716E0,-3.855748726E0,-3.244305970E0,6.112917340E0
1.264332275E1,3.212018230E0,-4.076028543E0,-3.041329234E0,6.015043915E0
1.265335275E1,2.662059239E0,-3.654006922E0,-2.867006194E0,5.353321445E0
1.266338175E1,2.068980394E0,-2.943930409E0,-2.642439784E0,4.464291000E0
1.267341175E1,1.886796504E0,-2.638026305E0,-2.151879587E0,3.892270493E0
1.268344175E1,1.933110106E0,-2.659193226E0,-1.341247775E0,3.550657529E0
1.269347175E1,1.830252028E0,-2.529201436E0,-4.277477986E-1,3.151134807E0
1.270350075E1,1.651084570E0,-2.094025919E0,5.337373165E-1,2.719540463E0
1.271353075E1,1.483593416E0,-1.482708294E0,1.346742404E0,2.492626809E0
1.272356075E1,1.424681841E0,-8.466353112E-1,1.971007519E0,2.575146663E0
1.273359075E1,1.337730382E0,-3.709789360E-1,2.410264392E0,2.781460477E0
1.274362075E1,1.140257850E0,-1.015620428E-1,2.651577812E0,2.888142605E0
1.275364975E1,8.493536087E-1,-2.777895212E-2,2.741796842E0,2.870474376E0
1.276367975E1,5.583113001E-1,-1.077185762E-1,2.787581710E0,2.844982704E0
1.277370975E1,3.395145569E-1,-1.377627397E-1,2.906204174E0,2.929210031E0
1.278373975E1,2.824685363E-1,1.559627831E-1,3.057947606E0,3.074923808E0
1.279376875E1,4.465817533E-1,5.453230262E-1,3.153199918E0,3.231018754E0
1.280379875E1,7.335095955E-1,7.010805720E-1,3.225942789E0,3.381753565E0
1.281382875E1,8.847636889E-1,5.974059302E-1,3.419772141E0,3.582532921E0
1.282385875E1,6.090465671E-1,3.455610895E-1,3.473088223E0,3.542977842E0
1.283388775E1,1.316378909E-1,1.219980615E-1,3.282005893E0,3.286909604E0
1.284391775E1,-2.074481382E-1,-5.006386042E-3,2.953353782E0,2.960634789E0
1.285394775E1,-5.620237704E-1,-8.825319529E-2,2.495477035E0,2.559504831E0
1.286397775E1,-9.184569535E-1,-1.401945966E-1,1.968397322E0,2.176650113E0
1.287400675E1,-1.145722877E0,-4.747588277E-2,1.646125838E0,2.006156810E0
1.288403675E1,-1.285419583E0,1.095955324E-1,1.550026849E0,2.016655131E0
1.289406675E1,-1.378008635E0,2.094788396E-1,1.649009539E0,2.159171517E0
1.290409675E1,-1.447467710E0,1.287855095E-1,1.838736484E0,2.343651070E0
1.291412575E1,-1.473209492E0,-7.233415067E-2,2.119700751E0,2.582384501E0
1.292415575E1,-1.462194069E0,-2.977291113E-1,2.495261858E0,2.907401908E0
1.293418575E1,-1.453643100E0,-4.149371338E-1,2.473673937E0,2.899019461E0
1.294421575E1,-1.344378959E0,-3.160776740E-1,2.221214554E0,2.615540858E0
1.295424475E1,-1.271520898E0,-5.031762958E-2,1.968053652E0,2.343615248E0
1.296427475E1,-1.156769144E0,3.044013691E-1,1.756725484E0,2.125290444E0
1.297430475E1,-1.049958568E0,6.022906941E-1,1.714426287E0,2.098672096E0
1.298433475E1,-1.051197373E0,7.928175384E-1,1.869418286E0,2.286547681E0
1.299436475E1,-1.127237636E0,8.736968100E-1,2.041297044E0,2.490161526E0
1.300439375E1,-1.224315668E0,8.341398114E-1,2.060586278E0,2.537864041E0
1.301442375E1,-1.313982208E0,6.865701216E-1,1.935145960E0,2.437768993E0
1.302445375E1,-1.441034311E0,6.005686891E-1,1.740170262E0,2.337831298E0
1.303448375E1,-1.497838549E0,6.577182055E-1,1.516160507E0,2.230438576E0
1.304451275E1,-1.470199638E0,7.533634508E-1,1.169025347E0,2.023774623E0
1.305454275E1,-1.463592138E0,7.630324066E-1,7.194042841E-1,1.800517404E0
1.306457275E1,-1.496550554E0,6.969401586E-1,3.825567153E-1,1.694620543E0
1.307460275E1,-1.413115025E0,5.350512224E-1,2.771027657E-1,1.536216075E0
1.308463175E1,-1.163081360E0,4.121690619E-1,2.717402843E-1,1.263520624E0
1.309466175E1,-7.764956206E-1,3.779055476E-1,2.519457051E-1,8.995747273E-1
1.310469175E1,-3.722658350E-1,3.629904699E-1,1.458701965E-1,5.400204139E-1
1.311472175E1,2.875660658E-3,4.103716278E-1,4.680696130E-4,4.103819701E-1
1.312475075E1,2.268653892E-1,4.426283777E-1,-3.791451573E-2,4.988239129E-1
1.313478075E1,2.542828007E-1,2.238740999E-1,-9.108324766E-2,3.508211985E-1
1.314481075E1,1.835647473E-1,-1.552266186E-1,-2.293371534E-1,3.322451648E-1
1.315484075E1,-4.562279049E-2,-5.396541506E-1,-2.920008865E-1,6.152825034E-1
1.316486975E1,-4.465582182E-1,-9.337377745E-1,-1.600324452E-1,1.047325574E0
1.317489975E1,-7.950064436E-1,-1.118722043E0,5.643089354E-2,1.373593353E0
1.318492975E1,-9.853246884E-1,-1.120997779E0,4.923033983E-2,1.493293136E0
1.319495975E1,-1.018061348E0,-9.110920930E-1,-4.853744477E-2,1.367074831E0
1.320498875E1,-9.437221145E-1,-4.990089852E-1,-8.611954629E-2,1.070998587E0
1.321501875E1,-7.712849475E-1,-5.538775027E-2,1.298994040E-1,7.841059420E-1
1.322504875E1,-5.146249978E-1,3.300133431E-1,4.151432481E-1,7.389801158E-1
1.323507875E1,-3.753982250E-1,5.154817611E-1,3.509577772E-1,7.278850423E-1
1.324510875E1,-3.775255882E-1,4.430341744E-1,-1.915927917E-2,5.823846903E-1
1.325513775E1,-2.819017218E-1,2.269912505E-1,-3.578256243E-1,5.089526363E-1
1.326516775E1,2.230918338E-1,1.114654720E-2,-8.099469566E-1,8.401834826E-1
1.327519775E1,1.138826232E0,-1.391175395E-1,-1.155407182E0,1.628264301E0
1.328522775E1,2.210889249E0,-9.711231172E-2,-1.187378734E0,2.511439891E0
1.329525675E1,3.126848271E0,8.621134758E-2,-7.967126611E-1,3.227903898E0
1.330528675E1,3.576312921E0,3.588003552E-1,4.820883125E-2,3.594589809E0
1.331531675E1,3.369447787E0,6.605704772E-1,9.301225872E-1,3.557338861E0
1.332534675E1,2.723682168E0,9.165481299E-1,1.991807527E0,3.496541469E0
1.333537575E1,2.049261391E0,9.980974925E-1,2.899539225E0,3.688224311E0
1.334540575E1,1.463616404E0,8.445420080E-1,3.674033636E0,4.044001402E0
1.335543575E1,7.192240436E-1,4.382529062E-1,4.381866572E0,4.462073901E0
1.336546575E1,-2.846721326E-1,-3.416931564E-1,4.421450468E0,4.443761546E0
1.337549475E1,-1.378827245E0,-1.435609556E0,3.657889473E0,4.164408094E0
1.338552475E1,-2.681932171E0,-2.726934974E0,1.243640789E0,4.021887235E0
1.339555475E1,-4.328947517E0,-4.250142252E0,-3.257653409E0,6.885913266E0
1.340558475E1,-5.365823743E0,-5.073751228E0,-6.133613445E0,9.599803637E0
1.341561375E1,-5.429297023E0,-4.466001574E0,-5.074102646E0,8.670003108E0
1.342564375E1,-4.955897673E0,-2.646484888E0,-1.862645018E0,5.918973768E0
1.343567375E1,-4.553854527E0,-2.310597432E-1,9.934125571E-1,4.666674208E0
1.344570375E1,-4.045099111E0,1.634500258E0,2.810370648E0,5.189662907E0
1.345573375E1,-2.971002725E0,2.659388523E0,3.793072422E0,5.503326531E0
1.346576275E1,-1.946298355E0,3.068720516E0,4.000543327E0,5.404578596E0
1.347579275E1,-1.163783318E0,2.790114139E0,3.777676703E0,4.838385039E0
1.348582275E1,-4.938179367E-1,1.914750872E0,3.452691088E0,3.978844406E0
1.349585175E1,1.093591405E-1,7.879690272E-1,3.214490433E0,3.311465439E0
1.350588175E1,5.384995448E-1,-2.144115508E-1,3.079162766E0,3.133240720E0
1.351591175E1,8.967425141E-1,-1.079684862E0,2.985443301E0,3.298899550E0
1.352594175E1,1.348738351E0,-1.741994301E0,2.860566655E0,3.610606718E0
1.353597175E1,2.044786516E0,-2.240482299E0,2.302392765E0,3.808139346E0
1.354600075E1,3.168412035E0,-2.465267980E0,9.428740489E-1,4.123759511E0
1.355603075E1,3.855225400E0,-1.927582002E0,4.541834991E-1,4.334122508E0
1.356606075E1,3.558960432E0,-8.824910223E-1,1.178306486E0,3.851414797E0
1.357609075E1,3.061460613E0,1.645581901E-2,1.812317594E0,3.557710913E0
1.358611975E1,2.676054257E0,4.806820571E-1,2.063922407E0,3.413516856E0
1.359614933E1,2.339468351E0,4.892160684E-1,1.986599558E0,3.107896770E0
1.360617933E1,2.125950255E0,2.415280133E-1,1.404540961E0,2.559440482E0
1.361620933E1,2.056248375E0,-1.155643702E-2,7.539269762E-1,2.190136255E0
1.362623833E1,2.110726883E0,-1.786792159E-1,2.564963007E-1,2.133748952E0
1.363626833E1,2.150614103E0,-1.906502205E-1,-8.103071451E-2,2.160568097E0
1.364629833E1,2.114932931E0,-3.575689316E-2,-2.346429900E-1,2.128209856E0
1.365632833E1,2.033666428E0,2.883121705E-1,-4.428322993E-2,2.054479022E0
1.366635733E1,2.011342782E0,6.095277929E-1,3.206064887E-1,2.125985051E0
1.367638733E1,2.081214670E0,8.244153070E-1,6.625562648E-1,2.334544046E0
1.368641733E1,2.177006096E0,8.911712140E-1,9.048344028E-1,2.520370403E0
1.369644733E1,2.302384433E0,7.801267415E-1,1.052055598E0,2.648847446E0
1.370647633E1,2.392851091E0,4.707388669E-1,1.072278779E0,2.664040766E0
1.371650633E1,2.374840205E0,2.520033002E-2,1.044527820E0,2.594521039E0
1.372653633E1,2.330965330E0,-4.678632063E-1,1.018256353E0,2.586337440E0
1.373656633E1,2.168152534E0,-7.692585218E-1,9.139279926E-1,2.475461262E0
1.374659633E1,1.786472609E0,-5.703561258E-1,6.645325506E-1,1.989571311E0
1.375662533E1,1.398793294E0,6.870595336E-2,4.059207638E-1,1.458120315E0
1.376665533E1,1.248965848E0,8.216554213E-1,3.144223638E-1,1.527708985E0
1.377668533E1,1.383356791E0,1.179044843E0,5.279778457E-1,1.892771344E0
1.378671533E1,1.701373109E0,7.893659270E-1,9.889945471E-1,2.120348848E0
1.379674433E1,1.924247335E0,-1.688225645E-1,1.599945552E0,2.508197487E0
1.380677433E1,1.979534367E0,-1.113840787E0,2.160224587E0,3.134608090E0
1.381680433E1,1.827445949E0,-1.610338978E0,2.542619627E0,3.521031793E0
1.382683433E1,1.593865325E0,-1.557006524E0,2.854256340E0,3.620974351E0
1.383686333E1,1.292593824E0,-1.129261065E0,3.089350662E0,3.534135943E0
1.384689333E1,1.013490872E0,-5.353324735E-1,3.166187754E0,3.367267363E0
1.385692333E1,6.008503422E-1,5.228580236E-3,3.214118550E0,3.269802215E0
1.386695333E1,2.111858612E-1,3.694399488E-1,3.156624048E0,3.185178287E0
1.387698233E1,-7.702738177E-2,4.557606393E-1,2.995195287E0,3.030651050E0
1.388701233E1,-2.980476018E-1,2.771112442E-1,2.823544425E0,2.852722583E0
1.389704233E1,-5.063033136E-1,-1.569626570E-2,2.636428261E0,2.684649585E0
1.390707233E1,-6.350764708E-1,-2.763850200E-1,2.341805191E0,2.442081562E0
1.391710233E1,-7.393928446E-1,-3.517983145E-1,2.072205865E0,2.228116016E0
1.392713133E1,-9.690328838E-1,-2.678884310E-1,1.885171562E0,2.136506672E0
1.393716133E1,-1.335513411E0,-7.053905547E-2,1.842474024E0,2.276682314E0
1.394719133E1,-1.635516066E0,2.306247103E-1,1.742666146E0,2.401038495E0
1.395722133E1,-1.894510881E0,4.521236712E-1,1.533444584E0,2.478919036E0
1.396725033E1,-2.039977182E0,4.432891130E-1,1.277811332E0,2.447613928E0
1.397728033E1,-2.055445552E0,2.185747683E-1,8.872249281E-1,2.249399791E0
1.398731033E1,-1.960221160E0,-5.569414437E-2,-9.533768177E-2,1.963328324E0
1.399734033E1,-1.345576615E0,-2.903195196E-1,-1.539376584E0,2.065076783E0
1.400736933E1,-3.559779773E-1,-4.360987920E-1,-1.721620263E0,1.811319631E0
1.401739933E1,4.358988903E-1,-5.031131458E-1,-1.189414880E0,1.363025472E0
1.402742933E1,9.757396401E-1,-5.017524987E-1,-7.213271409E-1,1.313063692E0
1.403745933E1,1.277287276E0,-3.833376110E-1,-4.313414973E-1,1.401594091E0
1.404748833E1,1.426938428E0,-2.934787703E-1,-2.905300377E-1,1.485493443E0
1.405751833E1,1.603334599E0,-2.295406365E-1,-2.039923789E-1,1.632477758E0
1.406754833E1,1.818384665E0,-1.453436548E-1,-2.310848862E-1,1.838762571E0
1.407757833E1,1.988068817E0,-7.588750362E-2,-2.114563680E-1,2.000722452E0
1.408760733E1,2.092950032E0,-1.679326183E-1,-4.305011611E-2,2.100117738E0
1.409763733E1,2.118063677E0,-4.696565473E-1,2.608290875E-1,2.185132221E0
1.410766733E1,2.060165863E0,-7.590340805E-1,5.849145234E-1,2.272122602E0
1.411769733E1,1.987421969E0,-9.806821454E-1,8.115479243E-1,2.360125756E0
1.412772733E1,1.901210475E0,-1.230465842E0,8.889861095E-1,2.432887947E0
1.413775633E1,2.020028382E0,-1.705654441E0,7.524489462E-1,2.748809042E0
1.414778633E1,2.383117670E0,-2.237577403E0,4.774801219E-1,3.303632808E0
1.415781633E1,2.846387450E0,-2.259671692E0,2.724907744E-1,3.644487466E0
1.416784633E1,3.161705863E0,-1.555669266E0,2.783134317E-1,3.534678089E0
1.417787533E1,3.283306898E0,-5.870341390E-1,2.964035475E-1,3.348517334E0
1.418790533E1,3.295730770E0,1.780728596E-1,-1.358344010E-1,3.303331990E0
1.419793533E1,3.283976405E0,5.782627308E-1,-1.144950314E0,3.525592154E0
1.420796533E1,3.074815654E0,5.976246160E-1,-2.496950533E0,4.005796856E0
1.421799433E1,2.621375482E0,2.652063131E-1,-3.516223133E0,4.393833056E0
1.422802433E1,2.048613811E0,-1.437941426E-1,-3.641272856E0,4.180474054E0
1.423805433E1,1.465705906E0,-4.281126648E-1,-3.157209939E0,3.507071265E0
1.424808433E1,9.335483247E-1,-7.121376568E-1,-2.304184059E0,2.586100674E0
1.425811333E1,6.168520153E-1,-9.245330876E-1,-9.407725596E-1,1.456132153E0
1.426814333E1,6.806834373E-1,-9.764084154E-1,4.983046880E-1,1.290353013E0
1.427817333E1,9.367046517E-1,-1.032018945E0,1.508001741E0,2.053423472E0
1.428820333E1,1.223042656E0,-1.232341629E0,2.058836060E0,2.693196085E0
1.429823233E1,1.597166663E0,-1.336574680E0,2.402446665E0,3.179484738E0
1.430826233E1,1.861592081E0,-1.259049371E0,2.746551797E0,3.548841666E0
1.431829233E1,2.167414762E0,-1.011823246E0,2.924199272E0,3.777884913E0
1.432832233E1,2.457980595E0,-6.133863705E-1,3.028807422E0,3.948618220E0
1.433835133E1,2.627704800E0,-2.462695205E-1,2.972142055E0,3.974809378E0
1.434838133E1,2.562849823E0,-1.658855081E-2,3.100413887E0,4.022566428E0
1.435841133E1,2.312624223E0,1.228295356E-1,3.472619568E0,4.174015400E0
1.436844133E1,2.036757851E0,2.477114439E-1,3.861083726E0,4.372380477E0
1.437847133E1,1.983299536E0,3.770454222E-1,3.854161792E0,4.350885360E0
1.438850033E1,2.049745540E0,5.274340546E-1,3.509721029E0,4.098510115E0
1.439853033E1,2.376366329E0,6.651845151E-1,2.622168657E0,3.600743789E0
1.440856033E1,2.762311505E0,6.284756953E-1,1.542631145E0,3.225687121E0
1.441859033E1,2.999050649E0,4.353825080E-1,7.844310232E-1,3.130366553E0
1.442861933E1,2.935336171E0,3.013187170E-2,3.174080618E-1,2.952601268E0
1.443864933E1,2.623217062E0,-5.600468999E-1,1.054216437E-1,2.684405709E0
1.444867933E1,2.192632779E0,-1.155054302E0,-3.881465073E-1,2.508474967E0
1.445870933E1,1.190828152E0,-1.653280930E0,-1.098992368E0,2.314993250E0
1.446873833E1,-3.731915224E-1,-1.863581888E0,-1.490189660E0,2.415134487E0
1.447876833E1,-1.698652107E0,-2.087483470E0,-1.074262154E0,2.897765587E0
1.448879833E1,-2.255970697E0,-2.369139755E0,-3.344702370E-1,3.288479482E0
1.449882833E1,-2.384550530E0,-2.429108799E0,4.484206295E-1,3.433326644E0
1.450885733E1,-2.366093209E0,-2.257135754E0,1.178249037E0,3.475820721E0
1.451888733E1,-2.375758511E0,-2.069865809E0,1.698524930E0,3.579603317E0
1.452891733E1,-2.492552258E0,-1.842283405E0,1.902964493E0,3.637045335E0
1.453894733E1,-2.724916515E0,-1.486231826E0,1.791428124E0,3.583750797E0
1.454897633E1,-3.005599238E0,-1.089131624E0,1.434475197E0,3.503934013E0
1.455900633E1,-3.320272996E0,-7.684884435E-1,1.049277148E0,3.565917804E0
1.456903633E1,-3.561066891E0,-3.659082305E-1,7.215736011E-1,3.651815261E0
1.457906633E1,-3.667278932E0,1.554862350E-1,5.353979623E-1,3.709415279E0
1.458909633E1,-3.689045777E0,7.229614377E-1,5.183515745E-1,3.794788577E0
1.459912558E1,-3.661780795E0,1.284228652E0,7.558404775E-1,3.953375349E0
1.460915558E1,-3.635435581E0,1.779465013E0,1.034127158E0,4.177595789E0
1.461918558E1,-3.633166861E0,2.152791021E0,1.172630448E0,4.382861256E0
1.462921558E1,-3.689379069E0,2.389419068E0,1.211691602E0,4.559499746E0
1.463924458E1,-3.784598052E0,2.453032097E0,1.263398238E0,4.683665657E0
1.464927458E1,-3.785375732E0,2.480239191E0,1.338591385E0,4.719373133E0
1.465930458E1,-3.656223017E0,2.468012663E0,1.360331333E0,4.616227311E0
1.466933458E1,-3.462350396E0,2.428263876E0,1.298102048E0,4.423731981E0
1.467936358E1,-3.126823128E0,2.345446252E0,1.207951431E0,4.091123031E0
1.468939358E1,-2.782522699E0,2.207476521E0,1.184159403E0,3.744011038E0
1.469942358E1,-2.394012202E0,2.023003299E0,1.146179398E0,3.337298906E0
1.470945358E1,-2.000498097E0,1.874462972E0,1.023261277E0,2.926203634E0
1.471948258E1,-1.656957367E0,1.744615023E0,7.371245635E-1,2.516454235E0
1.472951258E1,-1.308169784E0,1.661050125E0,3.567061749E-1,2.144209644E0
1.473954258E1,-8.899851063E-1,1.560380368E0,-2.564091772E-2,1.796529387E0
1.474957258E1,-4.897393942E-1,1.424001079E0,-6.046175936E-1,1.622709519E0
1.475960258E1,-1.337762542E-1,1.174326725E0,-1.299879601E0,1.756879712E0
1.476963158E1,2.204799373E-1,7.476787877E-1,-1.965146270E0,2.114103790E0
1.477966158E1,6.374102408E-1,2.546409792E-1,-2.603375705E0,2.692340786E0
1.478969158E1,1.400834411E0,-1.821916384E-1,-3.782976619E0,4.038123690E0
1.479972158E1,2.783320844E0,-5.595206505E-1,-5.793037691E0,6.451296301E0
1.480975058E1,4.400974104E0,-1.272892070E0,-7.461649436E0,8.755857444E0
1.481978058E1,5.721617460E0,-2.804112958E0,-7.158879440E0,9.583815038E0
1.482981058E1,6.117804912E0,-4.546721216E0,-4.820046681E0,9.018484394E0
1.483984058E1,5.250872161E0,-4.944568693E0,-1.547627006E0,7.376690814E0
1.484986958E1,3.784358608E0,-3.106886462E0,8.124226677E-1,4.963279577E0
1.485989958E1,2.216874020E0,9.767656803E-2,1.696861690E0,2.793458560E0
1.486992958E1,6.055622113E-1,2.960276885E0,2.106654736E0,3.683468339E0
1.487995958E1,-7.806813499E-1,4.727131208E0,2.244043546E0,5.290648757E0
1.488998858E1,-1.916332252E0,5.212705046E0,1.950783462E0,5.886440292E0
1.490001858E1,-2.858013469E0,4.426182035E0,1.232345138E0,5.410915166E0
1.491004858E1,-3.644814515E0,2.262615180E0,4.102043974E-1,4.309567025E0
1.492007858E1,-3.928776941E0,-1.453729493E0,-4.016591303E-1,4.208318875E0
1.493010858E1,-3.466532325E0,-6.725887274E0,-5.178820431E0,9.169219543E0
1.494013758E1,-1.606060278E0,-1.274501691E1,-9.242127771E0,1.582503749E1
1.495016758E1,-6.496600114E-2,-1.495764191E1,-2.930753124E0,1.524219754E1
1.496019758E1,1.521547108E0,-1.152170455E1,9.519360638E-1,1.166065880E1
1.497022758E1,2.268762212E0,-5.034789476E0,1.230960517E0,5.657883954E0
1.498025658E1,4.492971271E-1,2.791653711E-1,1.080602729E0,1.203122384E0
1.499028658E1,-1.456036220E0,3.401070991E0,7.510805516E-1,3.775108920E0
1.500031658E1,-2.654313725E0,5.015650370E0,4.433184222E-1,5.691982186E0
1.501034658E1,-3.161347429E0,5.589773857E0,7.851209946E-1,6.469629380E0
1.502037558E1,-3.149071784E0,5.398535991E0,1.485804394E0,6.424053132E0
1.503040558E1,-2.913876305E0,4.631183662E0,1.828191615E0,5.768953268E0
1.504043558E1,-2.405334020E0,3.469170004E0,1.986544740E0,4.665525937E0
1.505046558E1,-1.841415971E0,2.143591597E0,2.195938210E0,3.578818567E0
1.506049558E1,-1.324916209E0,9.161171901E-1,2.542864040E0,3.010121458E0
1.507052458E1,-9.242768334E-1,8.873149753E-3,2.887436950E0,3.031774817E0
1.508055458E1,-6.870991485E-1,-5.432308924E-1,3.075402714E0,3.197703378E0
1.509058458E1,-3.781793069E-1,-8.536747742E-1,3.118571538E0,3.255344628E0
1.510061458E1,2.693054306E-1,-1.007175879E0,2.923256993E0,3.103604375E0
1.511064358E1,9.502621521E-1,-9.964848304E-1,2.508971239E0,2.861977787E0
1.512067358E1,1.481818348E0,-7.161348134E-1,1.770298333E0,2.417145191E0
1.513070358E1,1.858899438E0,-4.374869210E-1,7.871720517E-1,2.065560884E0
1.514073358E1,2.135775185E0,-2.715341699E-1,-3.341321218E-1,2.178740628E0
1.515076258E1,2.306918217E0,-1.392812616E-1,-1.633342509E0,2.830031569E0
1.516079258E1,2.224182455E0,6.371301591E-2,-2.964568157E0,3.706711655E0
1.517082258E1,1.771024265E0,3.009076577E-1,-3.675425273E0,4.090944060E0
1.518085258E1,1.067378812E0,5.065425378E-1,-3.314411162E0,3.518693539E0
1.519088258E1,3.941085476E-1,6.958250946E-1,-2.119819742E0,2.265641156E0
1.520091158E1,-1.720635848E-1,7.570852035E-1,-8.152568132E-1,1.125800850E0
1.521094158E1,-6.020531875E-1,6.392129374E-1,1.870167424E-1,8.977953452E-1
1.522097158E1,-9.382312135E-1,4.456572354E-1,8.981305701E-1,1.373144822E0
1.523100158E1,-1.168946994E0,1.281756449E-1,1.402203244E0,1.830038253E0
1.524103058E1,-1.310442304E0,-1.203432995E-1,1.776396394E0,2.210729674E0
1.525106058E1,-1.321781809E0,-2.267351425E-1,2.024852189E0,2.428691492E0
1.526109058E1,-1.258511428E0,-1.407763946E-1,2.199225515E0,2.537767104E0
1.527112058E1,-1.297462655E0,1.226488566E-1,2.297100888E0,2.641046114E0
1.528114958E1,-1.369971783E0,4.570066810E-1,2.314289364E0,2.727932010E0
1.529117958E1,-1.467500855E0,7.940349287E-1,2.253183036E0,2.803726810E0
1.530120958E1,-1.558973528E0,9.852113986E-1,2.122700665E0,2.811920709E0
1.531123958E1,-1.562530535E0,1.029646729E0,1.994751307E0,2.735088086E0
1.532126958E1,-1.515550058E0,9.099483776E-1,1.813198770E0,2.532308789E0
1.533129858E1,-1.363021490E0,6.099096161E-1,1.641924468E0,2.219399306E0
1.534132858E1,-1.243898212E0,1.624789202E-1,1.494726076E0,1.951381102E0
1.535135858E1,-1.220241986E0,-2.298306584E-1,1.326085945E0,1.816677343E0
1.536138858E1,-1.191862744E0,-4.671428293E-1,1.073509033E0,1.670682755E0
1.537141758E1,-1.087438855E0,-4.690718257E-1,8.106205559E-1,1.435150628E0
1.538144758E1,-9.096716581E-1,-2.763370728E-1,5.610467738E-1,1.103919465E0
1.539147758E1,-6.992753904E-1,-3.377994955E-2,2.850470853E-1,7.558961552E-1
1.540150758E1,-4.483026619E-1,1.604347336E-1,-5.704667844E-2,4.795507314E-1
1.541153758E1,-7.684732407E-2,1.946064466E-1,-6.514600036E-1,6.842348403E-1
1.542156658E1,3.396636609E-1,1.534987664E-1,-1.365604936E0,1.415560001E0
1.543159658E1,7.012632975E-1,9.288243592E-2,-1.927001374E0,2.052737600E0
1.544162658E1,9.301135240E-1,4.888155341E-2,-2.257632183E0,2.442212859E0
1.545165658E1,1.024631134E0,9.288477480E-2,-2.405580918E0,2.616355499E0
1.546168558E1,1.081676789E0,1.486683816E-1,-2.380175351E0,2.618656462E0
1.547171558E1,1.144525367E0,1.760544008E-1,-2.175712838E0,2.464682499E0
1.548174558E1,1.270391216E0,9.661997616E-2,-1.896170906E0,2.284445965E0
1.549177558E1,1.389485842E0,-9.985874891E-2,-1.582521434E0,2.108320840E0
1.550180558E1,1.384616573E0,-2.567933393E-1,-1.217960987E0,1.861863271E0
1.551183458E1,1.303042214E0,-3.456733561E-1,-8.348451318E-1,1.585678238E0
1.552186458E1,1.142053018E0,-2.950540102E-1,-4.398597211E-1,1.258895762E0
1.553189458E1,9.940148934E-1,-2.450521302E-1,-7.910069481E-2,1.026826701E0
1.554192458E1,8.970043963E-1,-3.158969951E-1,1.978000496E-1,9.713560923E-1
1.555195358E1,8.752815516E-1,-5.136159146E-1,3.852408797E-1,1.085508930E0
1.556198358E1,8.544405401E-1,-8.030378866E-1,4.528675832E-1,1.256991461E0
1.557201358E1,8.192405212E-1,-1.103439760E0,3.930912052E-1,1.429424721E0
1.558204358E1,7.629187513E-1,-1.360879802E0,2.618886030E-1,1.581968551E0
1.559207258E1,7.220548269E-1,-1.536064721E0,6.947369277E-3,1.697323265E0
1.560210183E1,7.837440484E-1,-1.612021807E0,-3.494184977E-1,1.826187922E0
1.561213183E1,8.961004168E-1,-1.675108001E0,-7.421584314E-1,2.039554341E0
1.562216183E1,1.049742367E0,-1.801810148E0,-1.152112568E0,2.382402614E0
1.563219183E1,1.262714699E0,-2.064754173E0,-1.518612391E0,2.857243742E0
1.564222083E1,1.541750408E0,-2.476555445E0,-1.804216277E0,3.430090023E0
1.565225083E1,1.734521413E0,-2.730231049E0,-2.018444079E0,3.812721156E0
1.566228083E1,1.789976260E0,-2.805343212E0,-2.207303590E0,3.993263664E0
1.567231083E1,1.812828349E0,-2.665773098E0,-2.381947496E0,4.008287253E0
1.568233983E1,1.751406272E0,-2.315916059E0,-2.581155701E0,3.885003974E0
1.569236983E1,1.609532939E0,-1.830217676E0,-2.853163496E0,3.752443865E0
1.570239983E1,1.545201581E0,-1.230157109E0,-3.107675836E0,3.682198194E0
1.571242983E1,1.541451907E0,-6.321407300E-1,-3.403040333E0,3.788978674E0
1.572245983E1,1.459389305E0,3.715320826E-3,-3.839139710E0,4.107167474E0
1.573248883E1,1.263198556E0,5.214289641E-1,-4.359266499E0,4.568453039E0
1.574251883E1,9.168760125E-1,7.415859890E-1,-4.408428719E0,4.563425815E0
1.575254883E1,3.519444948E-1,6.257181484E-1,-3.639805205E0,3.709928579E0
1.576257883E1,-3.315412936E-1,3.221406519E-1,-2.064609747E0,2.115728630E0
1.577260783E1,-1.028190188E0,-6.838903427E-2,-3.990549266E-1,1.105032559E0
1.578263783E1,-1.691171180E0,-5.293642205E-1,1.034116341E0,2.051751214E0
1.579266783E1,-2.247082783E0,-1.057515728E0,2.098723572E0,3.251516751E0
1.580269783E1,-2.624612793E0,-1.554250731E0,2.755820804E0,4.110819377E0
1.581272783E1,-2.870301100E0,-2.081922183E0,3.030255193E0,4.664276462E0
1.582275683E1,-3.022993828E0,-2.284956806E0,3.140111511E0,4.921363590E0
1.583278683E1,-3.154155353E0,-2.167128979E0,2.933392557E0,4.821818733E0
1.584281683E1,-3.334678196E0,-1.877885932E0,2.314628356E0,4.472587469E0
1.585284683E1,-3.370316976E0,-1.484916787E0,1.505566814E0,3.978786978E0
1.586287583E1,-2.966566443E0,-1.071960105E0,7.329473126E-1,3.238337025E0
1.587290583E1,-2.520281801E0,-6.892580867E-1,3.315336192E-1,2.633782756E0
1.588293583E1,-2.173914234E0,-1.742698306E-1,4.658733988E-1,2.230092172E0
1.589296583E1,-1.738253399E0,2.270503074E-1,6.412324195E-1,1.866616119E0
1.590299483E1,-1.210681569E0,5.445909548E-1,7.752995726E-1,1.537341405E0
1.591302483E1,-7.743349282E-1,8.877190179E-1,7.549924850E-1,1.399161638E0
1.592305483E1,-6.616517736E-1,1.180618329E0,7.087231752E-1,1.527720932E0
1.593308483E1,-7.580375688E-1,1.476543574E0,8.964860407E-1,1.886395797E0
1.594311483E1,-1.000910369E0,1.690177445E0,1.202871662E0,2.303350082E0
1.595314383E1,-1.216662174E0,1.786943017E0,1.354527386E0,2.551112823E0
1.596317383E1,-1.385099261E0,1.739392290E0,1.418761535E0,2.637587875E0
1.597320383E1,-1.591611516E0,1.502953109E0,1.489470306E0,2.647756986E0
1.598323383E1,-1.790681581E0,1.192131497E0,1.423192117E0,2.579378575E0
1.599326283E1,-1.904492517E0,9.009530210E-1,1.089726578E0,2.371984846E0
1.600329283E1,-1.886068087E0,6.839499843E-1,8.064102682E-1,2.162252975E0
1.601332283E1,-1.877282353E0,5.083434802E-1,8.725969487E-1,2.131672480E0
1.602335283E1,-1.806765955E0,4.145629120E-1,1.144471427E0,2.178550085E0
1.603338283E1,-1.694947750E0,4.818760586E-1,1.224878536E0,2.146014874E0
1.604341183E1,-1.568722444E0,6.888914663E-1,1.023910903E0,1.995959693E0
1.605344183E1,-1.477285001E0,9.139975744E-1,6.955023283E-1,1.871225809E0
1.606347183E1,-1.523083756E0,1.097784918E0,6.087793493E-1,1.973709237E0
1.607350183E1,-1.688962102E0,1.231525943E0,7.472057480E-1,2.219812055E0
1.608353083E1,-1.823051620E0,1.414758385E0,8.805824912E-1,2.469915793E0
1.609356083E1,-1.810146669E0,1.597370439E0,8.854652086E-1,2.571433825E0
1.610359083E1,-1.703996901E0,1.760213640E0,7.582385668E-1,2.564543473E0
1.611362083E1,-1.544359728E0,1.877722210E0,6.250173596E-1,2.510285714E0
1.612365083E1,-1.351905495E0,1.918493090E0,5.363180217E-1,2.407467804E0
1.613367983E1,-1.066392240E0,1.937150386E0,4.980669987E-1,2.266674825E0
1.614370983E1,-6.866033046E-1,1.984995228E0,4.856568682E-1,2.155804432E0
1.615373983E1,-1.946323206E-1,2.037557019E0,4.878767636E-1,2.104173016E0
1.616376983E1,3.100133805E-1,2.130616626E0,3.250081265E-1,2.177444783E0
1.617379883E1,8.043171112E-1,2.138438446E0,1.681621215E-1,2.290878325E0
1.618382883E1,1.219763391E0,2.053245683E0,-2.002729833E-1,2.396612158E0
1.619385883E1,1.690740094E0,1.779391338E0,-7.838055173E-1,2.576661927E0
1.620388883E1,2.182138489E0,1.314590319E0,-1.178445942E0,2.806886341E0
1.621391883E1,2.675404047E0,7.294506776E-1,-1.546630932E0,3.175209024E0
1.622394783E1,3.187214926E0,1.990094000E-1,-2.114561341E0,3.830053967E0
1.623397783E1,3.733998002E0,-1.779073834E-1,-2.838621178E0,4.693843021E0
1.624400783E1,4.165884752E0,-4.573347098E-1,-3.640461262E0,5.551279943E0
1.625403783E1,4.656707343E0,-6.872688639E-1,-4.337940534E0,6.401170975E0
1.626406683E1,5.160787033E0,-1.071661313E0,-4.836404267E0,7.153529688E0
1.627409683E1,5.181197909E0,-1.873992271E0,-5.254621396E0,7.613652528E0
1.628412683E1,4.269328721E0,-2.672359402E0,-4.849868065E0,6.992130773E0
1.629415683E1,2.601792864E0,-2.484397731E0,-2.915630762E0,4.630600494E0
1.630418683E1,1.001483469E0,-8.692277831E-1,-7.613989869E-1,1.529135211E0
1.631421583E1,-1.056195720E-1,1.445579644E0,6.854816625E-1,1.603353083E0
1.632424583E1,-9.874333405E-1,3.443651585E0,1.059338598E0,3.735767539E0
1.633427583E1,-1.736259352E0,4.715342637E0,8.518447419E-1,5.096537274E0
1.634430583E1,-2.328383200E0,5.023061131E0,6.077610567E-1,5.569729343E0
1.635433483E1,-2.870884067E0,4.218662598E0,6.931241195E-1,5.149709748E0
1.636436483E1,-3.008935367E0,2.060355898E0,9.416063726E-1,3.766348501E0
1.637439483E1,-2.979370383E0,-1.625427133E0,2.135579304E-1,3.400627624E0
1.638442483E1,-2.936910827E0,-7.126223325E0,-5.558151530E0,9.502712903E0
1.639445483E1,-2.657224761E0,-1.311549416E1,-1.186349302E1,1.788349790E1
1.640448383E1,-3.134582676E0,-1.683752525E1,-8.588584478E0,1.915963591E1
1.641451383E1,-3.051897784E0,-1.738733192E1,-2.547862240E0,1.783605880E1
1.642454383E1,-2.811795614E0,-1.241170925E1,7.983004725E-1,1.275123542E1
1.643457383E1,-2.787251927E0,-3.870558554E0,1.895303472E0,5.132462574E0
1.644460283E1,-3.115362586E0,1.688727921E0,2.234184848E0,4.189136900E0
1.645463283E1,-3.251993597E0,4.651329074E0,2.457198822E0,6.184508918E0
1.646466283E1,-2.972385592E0,6.472790544E0,2.715170960E0,7.622614176E0
1.647469283E1,-2.423815022E0,7.258982018E0,2.841689504E0,8.163510178E0
1.648472183E1,-2.122308171E0,7.026689681E0,2.982178216E0,7.922874905E0
1.649475183E1,-2.118009152E0,5.275604129E0,3.401083270E0,6.624600298E0
1.650478183E1,-2.119835383E0,2.586787155E0,3.947228123E0,5.173565471E0
