"Time (s)","Linear Acceleration x (m/s^2)","Linear Acceleration y (m/s^2)","Linear Acceleration z (m/s^2)","Absolute acceleration (m/s^2)"
-1.833624992E-3,7.279052585E-2,-1.418086621E0,1.529983617E0,2.087371072E0
8.200374999E-3,-3.755885884E-1,-1.298864525E0,2.684608734E-1,1.378472735E0
1.823437501E-2,-5.154966715E-1,-4.433519706E-1,-1.413109471E0,1.568176063E0
2.826837500E-2,-9.056667539E-1,-1.311393061E-1,-2.112798405E0,2.302465393E0
3.830337501E-2,-1.104046116E0,-1.236624715E-1,-2.900610727E0,3.106083197E0
4.833737500E-2,-1.197025909E0,1.406416163E-1,-3.338758968E0,3.549642593E0
5.837137501E-2,-1.298052054E0,3.997729647E-1,-3.540099653E0,3.791709787E0
6.840537500E-2,-1.659044530E0,4.535401592E-1,-3.858791032E0,4.224736165E0
7.844037500E-2,-2.457430665E0,3.912386611E-1,-3.960733144E0,4.677546387E0
8.847437501E-2,-3.599129342E0,4.710619256E-1,-3.337347450E0,4.930874097E0
9.850800001E-2,-4.451216889E0,7.179334170E-1,-2.417845307E0,5.116125107E0
1.085420000E-1,-5.073958805E0,8.162093246E-1,-1.757208756E0,5.431301706E0
1.185770000E-1,-5.610530888E0,6.910058194E-1,-1.371507701E0,5.816921803E0
1.286110000E-1,-5.885607301E0,3.574449706E-1,-1.206819702E0,6.018683743E0
1.386450000E-1,-6.603786886E0,-1.424416816E-1,-1.489974629E0,6.771286086E0
1.486790000E-1,-7.666390861E0,-1.479031272E-1,8.533625329E-1,7.715157275E0
1.587140000E-1,-8.345527418E0,-9.105374846E-1,5.056114272E0,9.800061118E0
1.687480000E-1,-7.458026501E0,-2.261596449E0,8.251877827E0,1.135035090E1
1.787820000E-1,-6.214618431E0,-2.211798637E0,1.124826068E1,1.303981993E1
1.888160000E-1,-5.332600449E0,-6.795796292E-1,1.525038861E1,1.617012086E1
1.988510000E-1,-5.262778847E0,-1.415751243E-1,1.815060640E1,1.889871417E1
2.088850000E-1,-6.681526203E0,-2.250923672E0,1.872837797E1,2.001153645E1
2.189190000E-1,-7.424728947E0,-6.110443268E0,1.718679347E1,1.969390735E1
2.289530000E-1,-3.916448087E0,-7.980503286E0,1.583396061E1,1.815878044E1
2.389870000E-1,3.036424005E0,-7.840577077E0,1.324040472E1,1.568447757E1
2.490220000E-1,9.097617345E0,-7.927646211E0,9.992547734E0,1.566732989E1
2.590560000E-1,1.343782543E1,-7.499156401E0,8.014328259E0,1.735056070E1
2.690900000E-1,1.542757678E1,-7.179316043E0,6.402294173E0,1.818081612E1
2.791240000E-1,1.521823009E1,-7.558603873E0,4.701530344E0,1.763041143E1
2.891590000E-1,1.345867660E1,-8.338511928E0,2.875935477E0,1.609154318E1
2.991930000E-1,1.090302470E1,-9.167551214E0,1.652556606E0,1.434053298E1
3.092270000E-1,8.129261130E0,-9.264724336E0,1.082573825E0,1.237303397E1
3.192610000E-1,5.959431907E0,-8.627057987E0,4.439007318E-1,1.049466560E1
3.292960000E-1,4.530260135E0,-7.979000552E0,-3.809776747E-1,9.183291931E0
3.393300000E-1,3.860677929E0,-7.107857221E0,-1.018530880E0,8.152537856E0
3.493640000E-1,3.365460863E0,-5.755673983E0,-9.970929408E-1,6.741535741E0
3.593980000E-1,3.208864827E0,-4.201975521E0,-4.507489908E-1,5.306278018E0
3.694330000E-1,3.424158137E0,-2.685479676E0,2.782485276E-1,4.360513993E0
3.794670000E-1,3.470550531E0,-1.862119938E0,1.321262284E0,4.154268368E0
3.895010000E-1,4.227702978E0,-1.652135314E0,2.765117584E0,5.314969315E0
3.995350000E-1,5.798678500E0,-1.329673504E0,4.286453462E0,7.332556666E0
4.095700000E-1,7.689271016E0,-1.010066743E0,5.365840116E0,9.430660832E0
4.196040000E-1,8.358707626E0,-9.070949364E-1,5.688536253E0,1.015136735E1
4.296380000E-1,7.334906359E0,-2.008635521E-1,5.141442690E0,8.959666868E0
4.396720000E-1,6.153360077E0,1.697462784E0,7.821715128E-1,6.430941798E0
4.497070000E-1,4.858071417E0,4.811228203E0,-7.735662240E0,1.032420675E1
4.597410000E-1,4.380946805E0,7.134828672E0,-2.790600042E0,8.825300204E0
4.697750000E-1,9.608337718E-1,7.051827446E0,-8.813741457E0,1.132843812E1
4.798090000E-1,1.269268550E0,8.384503788E0,-1.066521844E1,1.362563139E1
4.898440000E-1,7.166651559E-1,8.494227374E0,-1.120881771E1,1.408201342E1
4.998780000E-1,-6.162158382E-1,7.464510478E0,-8.636462064E0,1.143184655E1
5.099120000E-1,-2.249742535E0,6.015107925E0,-4.615906641E0,7.908821590E0
5.199460000E-1,-4.161606052E0,4.442878175E0,-1.721917301E0,6.326383691E0
5.299800000E-1,-5.835635242E0,3.137971430E0,-9.911376978E-1,6.699541574E0
5.400150000E-1,-6.685667201E0,2.276546171E0,-1.396234406E0,7.199324892E0
5.500490000E-1,-7.224182314E0,1.600515656E0,-1.608908311E0,7.572255042E0
5.600830000E-1,-7.976037183E0,1.228254426E0,-8.490513808E-1,8.114595882E0
5.701170000E-1,-8.924464917E0,1.419769449E0,-6.296705738E-2,9.036912315E0
5.801520000E-1,-9.742265854E0,1.915491714E0,-2.336342722E-1,9.931537517E0
5.901860000E-1,-1.091568158E1,2.012159638E0,-1.470782897E0,1.119661079E1
6.002200000E-1,-1.129062493E1,2.201505345E0,-3.045990342E0,1.189970144E1
6.102540000E-1,-1.066087279E1,2.450666898E0,-4.089775931E0,1.167845212E1
6.202890000E-1,-9.740307621E0,2.191756867E0,-4.054461088E0,1.077571554E1
6.303230000E-1,-8.302619964E0,2.016983591E0,-3.148787025E0,9.105854205E0
6.403570000E-1,-7.087583755E0,1.923010357E0,-1.624331950E0,7.521320801E0
6.503910000E-1,-6.770288106E0,1.678808704E0,-2.572245714E-1,6.980069067E0
6.604260000E-1,-6.786428175E0,1.414498477E0,2.563764328E-1,6.937012483E0
6.704600000E-1,-6.314366083E0,1.335403775E0,-2.177361314E-1,6.457703253E0
6.804940000E-1,-6.348217953E0,1.054782740E0,-1.099247599E0,6.528459473E0
6.905280000E-1,-7.886268974E0,6.306251317E-1,-1.397334267E0,8.033895035E0
7.005630000E-1,-9.237019059E0,1.674964160E-1,-8.189266719E-1,9.274762371E0
7.105970000E-1,-9.483472767E0,-6.522107130E-1,4.618464214E-1,9.517086563E0
7.206310000E-1,-9.374966571E0,-1.753900402E0,2.335461693E0,9.819396424E0
7.306650000E-1,-8.571749759E0,-1.678839256E0,3.920415423E0,9.574082320E0
7.407000000E-1,-7.462045292E0,-2.346244397E0,3.804448764E0,8.698322431E0
7.507340000E-1,-6.093023828E0,-2.343361135E0,3.981068006E0,7.646252889E0
7.607680000E-1,-4.347483190E0,-2.434814365E0,3.674540005E0,6.191217597E0
7.708020000E-1,-2.176940607E0,-3.343388209E0,3.358003909E0,5.214739243E0
7.808360000E-1,-2.785116524E-1,-4.025555962E0,2.819913596E0,4.922863215E0
7.908710000E-1,1.399273204E0,-4.706223319E0,1.923773418E0,5.273272949E0
8.009050000E-1,2.906374912E0,-6.320050161E0,9.801553112E-1,7.025009154E0
8.109390000E-1,5.135531740E0,-6.833442128E0,1.586704825E0,8.694092808E0
8.209730000E-1,6.987386452E0,-6.587707627E0,1.803185998E0,9.771025584E0
8.310080000E-1,7.869252992E0,-7.093959559E0,2.296973127E0,1.084091742E1
8.410420000E-1,8.011576560E0,-8.281015087E0,1.801882653E0,1.166221895E1
8.510760000E-1,8.446656767E0,-8.484504624E0,-4.816298908E-1,1.198185280E1
8.611100000E-1,8.528517786E0,-7.195500551E0,-3.082118534E0,1.157628172E1
8.711450000E-1,9.063109417E0,-5.047306026E0,-7.519780115E0,1.281258535E1
8.811790000E-1,1.004836642E1,-3.257753981E0,-1.270047984E1,1.651922568E1
8.912130000E-1,1.073786308E1,-2.438652478E0,-1.468089553E1,1.835149648E1
9.012470000E-1,1.021828885E1,-1.307367546E0,-1.299679568E1,1.658430990E1
9.112820000E-1,1.001798312E1,-6.331547834E-1,-1.090445961E1,1.482120475E1
9.213160000E-1,1.062458263E1,-1.014994557E0,-8.723649312E0,1.378455757E1
9.313500000E-1,1.150921022E1,-1.791929523E0,-6.325837151E0,1.325477827E1
9.413840000E-1,1.219476585E1,-1.883362142E0,-5.204936435E0,1.339218916E1
9.514190000E-1,1.207731166E1,-1.367443593E0,-5.713101575E0,1.343022295E1
9.614530000E-1,1.021424375E1,-9.353967758E-1,-5.952325201E0,1.185900155E1
9.714870000E-1,5.861364745E0,-8.210435101E-1,-4.962700909E0,7.723866223E0
9.815210000E-1,4.289160722E-1,-1.363433281E-1,-2.953826821E0,2.987917568E0
9.915560000E-1,-6.663797445E0,1.092898692E-1,2.214619772E-1,6.668372070E0
1.001590000E0,-1.494758353E1,1.420376683E0,3.322552825E0,1.537813644E1
1.011624000E0,-2.184921355E1,2.114184488E0,4.744067084E0,2.245805159E1
1.021658000E0,-2.633794559E1,1.868964542E0,6.697190893E0,2.724027849E1
1.031693000E0,-2.507167724E1,1.342668210E0,8.644356390E0,2.655403274E1
1.041727000E0,-2.050983396E1,-9.014418483E-2,9.049930378E0,2.241790924E1
1.051761000E0,-1.774567970E1,-1.853750818E0,8.509897327E0,1.976774880E1
1.061795000E0,-1.571382021E1,-2.872697874E0,7.621232230E0,1.769914459E1
1.071830000E0,-1.386703796E1,-3.289764563E0,5.950341825E0,1.544421770E1
1.081864000E0,-1.207822266E1,-3.028307485E0,3.046238557E0,1.281926980E1
1.091898000E0,-9.633951446E0,-1.782132951E0,7.975502747E-1,9.829806955E0
1.101932625E0,-8.030967096E0,-1.414868605E0,-9.021825443E-1,8.204402417E0
1.111967625E0,-6.813630592E0,-2.058742651E0,-9.828263193E-1,7.185397046E0
1.122001625E0,-2.970651015E0,-4.645618683E0,-3.727459645E-1,5.526796537E0
1.132035625E0,-1.991637665E0,-6.873252895E0,-1.968078064E0,7.421695037E0
1.142069625E0,-2.764126773E0,-3.708611146E0,-2.775235314E0,5.394082359E0
1.152104625E0,-3.887889701E-1,-6.172888023E-1,-1.860370743E0,1.998294681E0
1.162138625E0,2.026563669E0,-9.970428009E-1,-2.937717158E0,3.705568344E0
1.172172625E0,4.662866215E0,-9.346395613E-1,-5.221674675E0,7.062701952E0
1.182206625E0,7.110243469E0,6.430913955E-3,-7.729789297E0,1.050263044E1
1.192240625E0,1.132889964E1,4.660526159E-1,-9.403968760E0,1.473077732E1
1.202275625E0,1.493228955E1,2.238990967E-1,-1.030945864E1,1.814685481E1
1.212309625E0,1.636696238E1,1.152036847E0,-7.259343960E0,1.794164767E1
1.222343625E0,1.569125463E1,2.074968236E0,1.474695854E0,1.589640503E1
1.232377625E0,1.495699170E1,2.270061317E0,-8.345923859E-1,1.515128125E1
1.242412625E0,1.421950227E1,3.224085129E0,-3.721889003E0,1.504797087E1
1.252446625E0,1.294482797E1,3.075593626E0,-3.594153653E0,1.378208213E1
1.262480625E0,1.202908734E1,3.223985726E0,-3.200006587E0,1.285819071E1
1.272514625E0,1.048724089E1,3.189837402E0,-2.755482250E0,1.130265308E1
1.282549625E0,7.707697347E0,3.311510943E0,-6.558155215E-1,8.414558641E0
1.292583625E0,5.029863197E0,3.187092427E0,1.286441823E0,6.091963106E0
1.302617625E0,3.047940096E0,3.611408787E0,3.409721654E0,5.827384835E0
1.312651625E0,-5.528407913E-1,3.846247293E0,3.223046079E0,5.048492568E0
1.322686625E0,-4.118472311E0,3.474991199E0,2.937185061E0,6.137135659E0
1.332720625E0,-5.894148914E0,3.960793078E0,5.512308190E0,8.989683799E0
1.342754625E0,-6.153536078E0,3.883207251E0,6.017311156E0,9.442104551E0
1.352788625E0,-6.214251226E0,2.978659654E0,5.118004711E0,8.583897941E0
1.362823625E0,-5.643034390E0,2.987075259E0,3.716027754E0,7.387510948E0
1.372857625E0,-5.247593628E0,3.928210346E0,2.897676010E0,7.166910189E0
1.382891625E0,-4.746381996E0,4.121781543E0,3.006513158E0,6.968238408E0
1.392925625E0,-3.397395431E0,3.376354226E0,3.508217710E0,5.937141995E0
1.402960625E0,-1.705417044E0,1.526156614E0,3.758452812E0,4.400405532E0
1.412994625E0,-8.520597732E-1,-8.781032717E-1,3.934653101E0,4.120505580E0
1.423028625E0,-9.921573061E-1,-3.525625455E0,4.101967376E0,5.499140599E0
1.433062625E0,-1.963475720E0,-6.477758923E0,3.036024348E0,7.418493204E0
1.443097625E0,-4.529697633E0,-7.656197995E0,1.795216243E0,9.075149020E0
1.453131625E0,-6.167933092E0,-4.789599352E0,2.551366184E0,8.215420256E0
1.463165625E0,-3.894533308E0,1.315086601E0,2.510788554E0,4.816731424E0
1.473199625E0,-4.614100437E0,1.862397827E0,5.655678409E-1,5.007825425E0
1.483234625E0,-5.479462625E0,2.707423107E-1,-4.210369492E-1,5.502279907E0
1.493268625E0,-5.580720028E0,8.997397238E-1,-1.323955804E-1,5.654334284E0
1.503302625E0,-7.311567197E0,-4.436395805E-2,-8.168560266E-3,7.311706351E0
1.513336625E0,-6.883159833E0,-1.987838290E0,5.038110110E-1,7.182145633E0
1.523370625E0,-3.301023377E0,-3.382560461E0,1.216626652E0,4.880435536E0
1.533405625E0,2.679340392E-1,-4.232479860E0,3.429099035E0,5.453842188E0
1.543439625E0,3.650990344E0,-3.354418104E0,5.207572945E0,7.190317606E0
1.553473625E0,3.744255772E0,-2.805005828E0,3.342737998E0,5.749904895E0
1.563507625E0,2.832601177E0,-2.427962306E0,2.380292295E0,4.425428996E0
1.573542625E0,3.050743251E0,-1.397036352E0,1.473691887E0,3.664766395E0
1.583576625E0,3.688407846E0,4.108086706E-1,6.190287875E-1,3.762487587E0
1.593610625E0,3.354411964E0,3.711813227E-1,7.902808701E-1,3.466179317E0
1.603644625E0,3.230287855E0,-6.070331515E-1,2.180198675E-1,3.294052449E0
1.613679625E0,4.076468838E0,-8.673949733E-2,-1.446213482E0,4.326274998E0
1.623713625E0,6.497759909E0,7.746337941E-1,-3.756817346E0,7.545503159E0
1.633747625E0,7.403465547E0,1.559014458E0,-5.137320988E0,9.145156921E0
1.643781625E0,6.569309363E0,2.217476576E0,-5.387326879E0,8.780450944E0
1.653816625E0,5.497958538E0,3.468093531E0,-5.271837938E0,8.369438217E0
1.663850625E0,5.330755067E0,4.830015014E0,-5.050655311E0,8.789488819E0
1.673884625E0,3.953148721E0,4.685833493E0,-4.827324418E0,7.803043084E0
1.683918625E0,8.952087164E-1,3.594926363E0,-2.666350218E0,4.564462475E0
1.693953625E0,-2.349818800E0,3.270432791E0,1.346794005E0,4.246319951E0
1.703987625E0,-3.945147391E0,3.948722379E0,4.290461143E0,7.040216842E0
1.714021625E0,-3.794658771E0,4.315025296E0,5.257456126E0,7.788435235E0
1.724055625E0,-3.492019753E0,4.229895684E0,5.020801767E0,7.436038585E0
1.734090625E0,-3.359815961E0,4.516666528E0,4.394441010E0,7.141411037E0
1.744124625E0,-3.417218077E0,4.203759214E0,3.059103016E0,6.221501602E0
1.754158625E0,-4.116791237E0,2.804754397E0,1.181641299E0,5.119657555E0
1.764192625E0,-4.135390061E0,2.373848518E0,4.918405911E-1,4.793591024E0
1.774227625E0,-3.118798410E0,1.042932919E0,3.161437476E-1,3.303719035E0
1.784261625E0,-1.213631709E0,-9.371405616E-1,-1.470948958E-1,1.540380234E0
1.794295625E0,8.651961279E-1,-3.075548310E0,-7.646649492E-1,3.285159696E0
1.804329625E0,1.142029045E0,-4.998074809E0,-2.237124828E0,5.593720554E0
1.814364625E0,2.497385566E0,-7.048969327E0,-2.394511116E0,7.852298181E0
1.824398625E0,3.120132744E0,-8.990736675E0,-2.069215014E0,9.739108022E0
1.834432625E0,2.907128034E0,-1.012248924E1,-3.233850564E0,1.101698558E1
1.844466625E0,1.299902113E0,-9.767699488E0,-4.205930285E0,1.071389511E1
1.854501625E0,1.319511335E0,-9.023858228E0,-5.375006211E0,1.058592553E1
1.864535625E0,1.906059571E0,-7.229045443E0,-7.690174996E0,1.072524837E1
1.874569625E0,2.036536680E0,-4.548227459E0,-9.079723696E0,1.035737597E1
1.884603625E0,1.345421517E0,-3.653069614E0,-9.465445801E0,1.023473209E1
1.894637625E0,-1.606426606E0,-4.726828322E0,-9.496208003E0,1.072853573E1
1.904672625E0,-3.916080297E0,-5.480059626E0,-7.289310941E0,9.924756540E0
1.914706625E0,-4.482712331E0,-5.491361709E0,-3.997084115E0,8.137963178E0
1.924740625E0,-3.477038017E0,-5.470949664E0,-5.733709137E-1,6.507675299E0
1.934774625E0,-2.990847298E0,-5.383312765E0,1.980222731E0,6.468887536E0
1.944809625E0,-2.547293891E0,-5.244588743E0,3.132445811E0,6.618658022E0
1.954843625E0,-2.003915064E0,-5.096073559E0,4.929718519E0,7.368023207E0
1.964877625E0,-8.719718814E-2,-4.555287095E0,7.612384808E0,8.871676636E0
1.974911625E0,1.840394170E0,-2.299598234E0,7.420378618E0,7.983559455E0
1.984946625E0,1.392523763E0,-3.543465310E-1,4.891710448E0,5.098383568E0
1.994980625E0,1.399290161E0,8.577061370E-1,3.058669152E0,3.471185641E0
2.005014625E0,3.281500694E0,2.257418175E0,1.502956763E0,4.257119055E0
2.015048625E0,4.923353240E0,3.679022188E0,2.452792946E-1,6.150997750E0
2.025083625E0,5.556532436E0,4.724240929E0,-5.847733131E-1,7.316793348E0
2.035117625E0,5.620110381E0,5.980616954E0,-9.758713487E-1,8.264728957E0
2.045151625E0,5.707190040E0,7.406217831E0,-1.201688478E0,9.426989759E0
2.055185625E0,5.778306801E0,8.424149079E0,-1.284922131E0,1.029592842E1
2.065220625E0,5.115099814E0,8.635946925E0,-1.160450990E0,1.010398297E1
2.075254625E0,4.255235177E0,8.310230116E0,-6.313367379E-1,9.357645915E0
2.085288625E0,4.023121181E0,8.684164234E0,-3.342306474E-1,9.576634201E0
2.095322625E0,3.481670181E0,9.743178020E0,-1.479895198E-1,1.034762997E1
2.105357625E0,1.603647425E0,1.021842684E1,-2.819723269E-1,1.034733978E1
2.115391625E0,-1.413874871E0,9.794960377E0,-6.831331283E-1,9.920028317E0
2.125425625E0,-5.343732963E0,8.278330631E0,-8.966769522E-1,9.893951160E0
2.135459625E0,-8.249530170E0,7.093758414E0,-1.564454708E0,1.099198231E1
2.145494625E0,-9.748914723E0,6.322701874E0,-3.160537004E-1,1.162401769E1
2.155528625E0,-1.047065468E1,5.700456972E0,1.813729697E0,1.205899807E1
2.165562625E0,-1.071175526E1,5.154993612E0,2.899488646E0,1.223612252E1
2.175596625E0,-1.244887064E1,3.335901434E0,1.543553250E0,1.298018395E1
2.185631625E0,-1.309559024E1,1.653792561E0,-2.790232837E-2,1.319963227E1
2.195665625E0,-1.218110676E1,-2.191352239E-1,-1.382788149E0,1.226130030E1
2.205699625E0,-9.997679250E0,-2.763131577E0,-3.625446197E0,1.098782720E1
2.215733625E0,-7.203528194E0,-5.293548065E0,-5.888437353E0,1.070449270E1
2.225767625E0,-5.078758784E0,-7.634528214E0,-7.406339453E0,1.178701302E1
2.235802625E0,-3.435506998E0,-9.163585632E0,-7.561105896E0,1.236706644E1
2.245836625E0,-3.405676843E0,-1.004618658E1,-7.004633399E0,1.271178149E1
2.255870625E0,-5.790716931E0,-9.397155000E0,-6.800883077E0,1.296498883E1
2.265904625E0,-7.825591248E0,-7.564073943E0,-6.580440123E0,1.271838375E1
2.275939625E0,-6.752213777E0,-6.899220965E0,-6.057623030E0,1.139677312E1
2.285973625E0,-3.390941859E0,-6.135707917E0,-6.917295293E0,9.848572105E0
2.296007625E0,3.086979032E-1,-4.770823358E0,-8.190009608E0,9.483264590E0
2.306041625E0,3.909677011E0,-5.425771737E0,-1.168141891E1,1.346031653E1
2.316076625E0,4.841583438E0,-5.626479753E0,-5.963748906E0,9.521791093E0
2.326110625E0,4.930762247E0,-7.251205806E0,6.614247555E-1,8.793741222E0
2.336144625E0,6.092636742E0,-9.257163302E0,6.196332434E-1,1.109951531E1
2.346178625E0,6.570024478E0,-9.058491286E0,1.527611402E-1,1.119128330E1
2.356213625E0,5.113959607E0,-8.505083899E0,3.976626169E0,1.069123897E1
2.366247625E0,4.903761560E0,-7.732141632E0,6.126788574E0,1.101682485E1
2.376281625E0,6.512229429E0,-6.388305879E0,5.305748280E0,1.055322458E1
2.386315625E0,8.511804689E0,-4.459194538E0,4.220805602E0,1.049525773E1
2.396350625E0,9.450388636E0,-2.912892804E0,3.161090443E0,1.038206543E1
2.406384625E0,9.977270129E0,-1.651060596E0,2.465583730E0,1.040917977E1
2.416418625E0,1.142304215E1,-3.307958467E-1,2.852737234E0,1.177851550E1
2.426452625E0,1.368645606E1,1.438651278E0,3.459432635E0,1.419001307E1
2.436487625E0,1.479700369E1,2.885513801E0,2.613473555E0,1.530058012E1
2.446521625E0,1.535835043E1,3.741243871E0,1.328389455E0,1.586317913E1
2.456555625E0,1.540768806E1,4.055898918E0,5.119509199E-1,1.594080491E1
2.466589625E0,1.523685698E1,3.881176513E0,3.176160765E-1,1.572660872E1
2.476624625E0,1.456523994E1,3.380663916E0,6.207491845E-2,1.495255685E1
2.486658625E0,1.319992444E1,2.565538373E0,-7.481725851E-1,1.346773012E1
2.496692625E0,1.172510346E1,2.011210050E0,-1.746640499E0,1.202388332E1
2.506726625E0,9.716593654E0,1.604702116E0,-1.736894067E0,1.000020310E1
2.516761625E0,7.358532618E0,1.428690400E0,-9.690368307E-1,7.558319319E0
2.526795625E0,5.131397758E0,1.632396430E0,6.378660312E-1,5.422438025E0
2.536829625E0,2.445722492E0,1.403420927E0,1.842716391E0,3.368494101E0
2.546863625E0,2.502374411E-1,7.924104260E-1,2.449412378E0,2.586533212E0
2.556898625E0,-1.608545052E0,2.406874761E-1,2.732509417E0,3.179930087E0
2.566932625E0,-3.169191468E0,-1.231341755E-1,2.518623531E0,4.049987787E0
2.576966625E0,-4.097714696E0,-6.407792602E-1,2.169175212E0,4.680511178E0
2.587000625E0,-6.245219834E0,-1.802017139E0,1.501261509E0,6.671118547E0
2.597034625E0,-1.054122005E1,-3.162484420E0,-3.904127419E-2,1.100546010E1
2.607069625E0,-1.655646830E1,-5.512664870E0,-3.001027300E0,1.770627803E1
2.617103625E0,-2.448474543E1,-9.033734175E0,-8.633524423E0,2.748906793E1
2.627137625E0,-3.038949067E1,-1.002052549E1,-1.811787369E1,3.677212832E1
2.637172625E0,-3.231459988E1,-6.218152488E0,-2.484143026E1,4.123100100E1
2.647206625E0,-3.268812703E1,-8.202732857E-1,-2.421381118E1,4.068777641E1
2.657240625E0,-3.171117190E1,1.356700796E0,-1.821562744E1,3.659573942E1
2.667274625E0,-2.857661993E1,5.804829186E-1,-1.116569098E1,3.068603627E1
2.677308625E0,-2.052891927E1,8.907779887E-1,-6.480545121E0,2.154593875E1
2.687343625E0,-1.267037954E1,1.583473361E0,-5.373114052E0,1.385338443E1
2.697377625E0,-6.260750039E0,2.424262041E0,-2.518315675E0,7.170491708E0
2.707411625E0,-1.060532892E0,2.680749864E0,1.977975646E-1,2.889684018E0
2.717445625E0,3.276710070E0,2.439066899E0,1.441232239E0,4.331630938E0
2.727480625E0,6.630489365E0,2.349966004E0,1.530734400E0,7.199227545E0
2.737514625E0,1.011910955E1,2.537472323E0,-4.524057993E-1,1.044221312E1
2.747548625E0,1.241351370E1,2.329119949E0,-4.652814559E0,1.345989619E1
2.757582625E0,1.202721038E1,1.347800457E0,-3.300883336E0,1.254456800E1
2.767617625E0,1.294122842E1,8.337665398E-1,-2.578584681E0,1.322193854E1
2.777651625E0,1.574898185E1,7.785674353E-1,-4.563006881E0,1.641516459E1
2.787685625E0,1.661909198E1,7.586826628E-1,-5.062760217E0,1.738969116E1
2.797719625E0,1.788388566E1,9.328803534E-1,-4.966372960E0,1.858409246E1
2.807754625E0,1.742451787E1,1.441204026E0,-4.528808856E0,1.806103546E1
2.817788625E0,1.538797125E1,1.686805502E0,-3.058676754E0,1.577943204E1
2.827822625E0,1.431016919E1,1.299210534E0,-3.394201097E0,1.476446719E1
2.837856625E0,1.271210411E1,6.902067974E-1,-3.756953878E0,1.327360835E1
2.847891625E0,1.179269376E1,4.240527968E-1,-3.266570413E0,1.224409773E1
2.857925625E0,1.155460918E1,3.821214632E-1,-2.440789781E0,1.181577187E1
2.867959625E0,1.138025807E1,4.403403987E-1,-1.601787718E0,1.150086507E1
2.877993625E0,1.137035055E1,5.212910064E-1,-9.958404672E-1,1.142577411E1
2.888028625E0,1.144123049E1,5.171458056E-1,-6.385492784E-1,1.147069920E1
2.898062625E0,1.159963391E1,4.233960449E-1,-4.863728598E-1,1.161754404E1
2.908096625E0,1.172180329E1,3.672298109E-1,-5.268215588E-1,1.173938121E1
2.918130625E0,1.174712290E1,4.237922303E-1,-5.550571784E-1,1.176786237E1
2.928165625E0,1.178062511E1,4.795218965E-1,-4.799660656E-1,1.180014562E1
2.938199625E0,1.190119587E1,5.751125069E-1,-5.670121032E-1,1.192856740E1
2.948233625E0,1.166437779E1,5.305093246E-1,-7.722446948E-1,1.170194476E1
2.958267625E0,1.044730441E1,2.397943870E-1,-9.142259082E-1,1.048997043E1
2.968302625E0,9.451445228E0,2.391821835E-1,-1.239419976E0,9.535365063E0
2.978336625E0,9.183479614E0,5.730648485E-1,-1.472200263E0,9.318372967E0
2.988370625E0,9.064604550E0,1.005501822E0,-1.657166405E0,9.269535590E0
2.998404625E0,9.070414928E0,1.900192182E0,-1.877917214E0,9.455671862E0
3.008439625E0,6.426191159E0,3.178237696E0,-1.818970118E0,7.396335576E0
3.018473625E0,-6.520726018E0,1.430556539E0,-8.871877983E-2,6.676393550E0
3.028507625E0,-2.149007756E1,-1.588855577E0,4.289839584E0,2.197158663E1
3.038541625E0,-5.639929051E1,-9.808417743E0,1.335867284E1,5.878383425E1
3.048575625E0,-7.405792388E1,-1.602468158E1,1.798562721E1,7.787714232E1
3.058610625E0,-7.790535903E1,-2.081571818E1,8.913499634E0,8.112946176E1
3.068644625E0,-6.224668392E1,-1.783205945E1,7.018963755E0,6.512985379E1
3.078678625E0,-3.714074199E1,-1.019235177E1,1.018239747E1,3.983716818E1
3.088712625E0,-1.689588982E1,-2.164137397E0,4.864032068E0,1.771477890E1
3.098747625E0,-6.235141574E0,2.014580093E0,2.222761728E0,6.919262467E0
3.108781625E0,1.168263162E0,3.040035538E0,2.004489845E-1,3.262948771E0
3.118815625E0,5.889628431E0,3.333478348E0,-1.432911066E0,6.917588820E0
3.128849625E0,8.538272696E0,2.924154249E0,-2.535593320E0,9.374540638E0
3.138884625E0,1.020656401E1,1.205799656E0,-5.616484523E0,1.171207924E1
3.148918625E0,1.140336860E1,-1.935157765E-1,-5.114072458E0,1.249912001E1
3.158952625E0,1.200350460E1,-2.622080364E0,-4.849500860E0,1.320897750E1
3.168986625E0,1.129631427E1,-6.031242732E0,-5.054941320E0,1.376717243E1
3.179021625E0,1.067436348E1,-9.046431404E0,-4.116323460E0,1.458506345E1
3.189055625E0,1.236832993E1,-1.176285308E1,-3.928782204E0,1.751501149E1
3.199089625E0,1.583564461E1,-1.412884236E1,-5.269244113E0,2.186679583E1
3.209123625E0,1.005290152E1,-1.170515978E1,-3.973522467E0,1.593299957E1
3.219158625E0,1.042085628E1,-1.037000188E1,-2.718017970E0,1.495054535E1
3.229192625E0,1.251460621E1,-8.527853542E0,-1.522117358E0,1.522026596E1
3.239226625E0,1.591688231E1,-8.751896042E0,-1.376708799E0,1.821642539E1
3.249260625E0,2.104509743E1,-8.011523935E0,-2.072844965E0,2.261365357E1
3.259295625E0,2.010231811E1,-7.646696270E0,-1.059063048E0,2.153361957E1
3.269329625E0,1.786594406E1,-7.375415869E0,4.470588130E-1,1.933361265E1
3.279363625E0,1.742709766E1,-7.238533135E0,1.706994038E0,1.894766275E1
3.289397625E0,1.629292494E1,-7.542731606E0,1.525363147E0,1.801884946E1
3.299432625E0,1.398693745E1,-7.854037952E0,9.942728287E-1,1.607199147E1
3.309466625E0,1.166828022E1,-8.146408675E0,4.137174046E-1,1.423670958E1
3.319500625E0,9.629119307E0,-8.229794063E0,-1.452787324E-1,1.266769730E1
3.329534625E0,8.251063310E0,-8.022535411E0,-4.077766335E-1,1.151552873E1
3.339569625E0,7.656411418E0,-7.447888598E0,-3.310483734E-1,1.068649959E1
3.349603625E0,7.638803113E0,-6.405135920E0,-6.930602387E-2,9.969046217E0
3.359637625E0,7.964952616E0,-5.336325125E0,5.639136636E-1,9.603896846E0
3.369671625E0,7.734616174E0,-4.397122543E0,8.616853134E-1,8.938762531E0
3.379706625E0,6.344569876E0,-4.004967331E0,1.436494971E0,7.639165401E0
3.389740625E0,3.757589763E0,-3.315875305E0,2.424310573E0,5.567027180E0
3.399774625E0,-1.284119893E0,1.544237959E-1,1.084137224E0,1.687650476E0
3.409808625E0,-6.736583585E0,1.182773145E1,-6.095012466E0,1.491395208E1
3.419843625E0,-1.427606589E1,2.754047226E1,-1.025940062E1,3.267321489E1
3.429877625E0,-2.541684540E1,3.669514908E1,-4.784052683E0,4.489362044E1
3.439911625E0,-4.795247762E1,3.487359639E1,1.821010065E0,5.932051848E1
3.449945625E0,-3.271092416E1,2.849307959E1,1.494928975E1,4.588399947E1
3.459980625E0,-1.934261277E1,1.646395249E1,1.803692366E1,3.115331468E1
3.470014625E0,-1.675512629E1,2.487926525E0,1.153145654E1,2.049142565E1
3.480048625E0,-2.265933592E1,-7.372628501E0,6.890223854E0,2.480476446E1
3.490082625E0,-2.684948340E1,-1.059515242E1,3.127302600E0,2.903329184E1
3.500117625E0,-2.165231441E1,-1.161668439E1,-1.318267779E0,2.460707023E1
3.510151625E0,-9.381745833E0,-1.102724997E1,-6.587134016E0,1.590621675E1
3.520185625E0,4.179388604E0,-8.945917182E0,-8.311900665E0,1.290675854E1
3.530219625E0,1.388176475E1,-6.346464958E0,-9.784196822E0,1.813040313E1
3.540254625E0,1.537367013E1,-3.924625418E0,-1.135338193E1,1.951029726E1
3.550288625E0,1.438103979E1,-1.682194096E0,-6.471650337E0,1.585958197E1
3.560322625E0,1.435493665E1,5.207588732E-2,-1.559078193E-1,1.435587773E1
3.570356625E0,1.314705743E1,1.447056943E0,9.594064665E-1,1.326120483E1
3.580391625E0,1.262573605E1,2.672063825E0,2.175897464E0,1.308753857E1
3.590425625E0,1.277235382E1,3.849196921E0,3.178792596E0,1.371328047E1
3.600459625E0,1.238225682E1,4.732409490E0,2.557377999E0,1.350022836E1
3.610493625E0,1.197400890E1,5.422973260E0,2.311934105E0,1.334655639E1
3.620528625E0,1.119589068E1,5.886048766E0,1.921483941E0,1.279396884E1
3.630562625E0,1.089527714E1,6.486214582E0,3.168761698E0,1.306977790E1
3.640596625E0,1.054875828E1,6.829278910E0,4.003503188E0,1.318875996E1
3.650630625E0,1.034852388E1,7.483898091E0,4.128060576E0,1.342168251E1
3.660665625E0,1.033770887E1,8.282237740E0,4.116478411E0,1.387116005E1
3.670699625E0,8.933404725E0,8.559530248E0,4.101568011E0,1.303434456E1
3.680733625E0,7.333659148E0,8.469147497E0,3.325552447E0,1.168624469E1
3.690767625E0,7.830445021E0,8.951775507E0,4.743311623E0,1.280426332E1
3.700802625E0,7.669305114E0,9.202575451E0,4.307175994E0,1.273017678E1
3.710836625E0,6.804249904E0,8.679195855E0,3.149891564E0,1.146944089E1
3.720870625E0,5.941514284E0,7.482062650E0,1.638814626E0,9.693738539E0
3.730904625E0,5.842007537E0,6.282782933E0,2.473280127E-1,8.582749244E0
3.740939625E0,5.992219584E0,5.487772104E0,-1.251932141E0,8.221293833E0
3.750973625E0,6.185199335E0,4.777326631E0,-3.084244874E0,8.401910913E0
3.761007625E0,5.631291427E0,3.922588248E0,-4.703730651E0,8.320049503E0
3.771041625E0,3.122865148E0,2.313214645E0,-4.581782291E0,6.007992817E0
3.781076625E0,-3.181242580E0,-1.437019905E0,-5.195331214E0,6.259137080E0
3.791110625E0,-2.197617999E1,-1.531739653E1,-1.463551061E1,3.052496182E1
3.801144625E0,-4.189118371E1,-3.929305062E1,-1.722274800E1,5.996197252E1
3.811178625E0,-4.296581307E1,-5.193496007E1,7.019477141E-1,6.740766945E1
3.821213625E0,-4.067185681E1,-5.037107780E1,8.481868114E0,6.529462078E1
3.831247625E0,-3.141062268E1,-3.075317111E1,8.434016256E0,4.476066778E1
3.841281625E0,-2.027004666E1,-4.798093894E0,1.132310271E1,2.370884121E1
3.851315625E0,-2.079639196E1,4.813060135E0,1.539477858E1,2.631833342E1
3.861349625E0,-1.829644415E1,5.139338862E0,1.297669997E1,2.301233179E1
3.871384625E0,-1.087547964E1,5.624281200E0,9.104853859E0,1.525801298E1
3.881418625E0,-1.527048315E0,6.154326037E0,4.678875892E0,7.880322654E0
3.891452625E0,4.417290759E0,5.946121305E0,1.720749612E0,7.604590420E0
3.901486625E0,4.906634881E0,5.043430492E0,1.052908123E-2,7.036431471E0
3.911521625E0,4.943783412E0,4.399300338E0,-3.383103667E0,7.432377030E0
3.921555625E0,7.688430771E0,4.504990808E0,-4.815096136E0,1.012877390E1
3.931589625E0,9.806318008E0,4.721013266E0,-5.619210495E0,1.224856586E1
3.941623625E0,1.098414429E1,5.074983237E0,-5.847716174E0,1.343884910E1
3.951658625E0,1.170364886E1,5.467262410E0,-4.891551989E0,1.381280694E1
3.961692625E0,1.225264978E1,5.349445108E0,-3.082732199E0,1.372032169E1
3.971726625E0,1.245627088E1,5.044078948E0,-1.027788484E0,1.347804755E1
3.981761625E0,1.300372112E1,4.971313273E0,2.205435258E-1,1.392333861E1
3.991795625E0,1.414941286E1,5.099748534E0,7.057600987E-1,1.505693916E1
4.001829625E0,1.493315962E1,5.086267194E0,6.829536188E-1,1.579037035E1
4.011863625E0,1.554852995E1,4.872634200E0,1.355972818E0,1.635047430E1
4.021898625E0,1.615611646E1,4.601678027E0,2.769710280E0,1.702547606E1
4.031932625E0,1.676687919E1,4.120532870E0,2.937745224E0,1.751391949E1
4.041966625E0,1.661992229E1,3.449318999E0,3.009457816E0,1.723880665E1
4.052000625E0,1.591129354E1,2.621289820E0,3.293252428E0,1.645861276E1
4.062035625E0,1.480068627E1,1.735299678E0,3.552638422E0,1.531968729E1
4.072069625E0,1.331203545E1,1.065333748E0,3.555441577E0,1.381978251E1
4.082103625E0,1.182159655E1,9.347436418E-1,3.307058873E0,1.231099221E1
4.092137625E0,1.092969034E1,1.185671493E0,2.921202282E0,1.137529651E1
4.102172875E0,1.010081244E1,1.153750958E0,2.606625003E0,1.049533454E1
4.112206875E0,9.310510958E0,9.542777275E-1,2.444279984E0,9.673198278E0
4.122240875E0,8.562704117E0,7.067092480E-1,2.584889733E0,8.972234654E0
4.132274875E0,7.449017696E0,2.673978496E-1,3.522859138E0,8.244386135E0
4.142309875E0,6.451324831E0,-3.284404421E-1,1.894351691E0,6.731718467E0
4.152343875E0,4.317616197E0,-8.258170308E-1,2.472279523E-1,4.402829211E0
4.162377875E0,-3.787943244E0,-2.090303436E0,-3.699072583E0,5.692189425E0
4.172411875E0,-1.887833215E1,-6.074550135E0,-5.573635542E0,2.059992712E1
4.182446875E0,-2.244082547E1,-5.262788202E0,-1.261660738E1,2.627672676E1
4.192480875E0,-2.282338072E1,1.345530568E0,-1.014349945E1,2.501215187E1
4.202514875E0,-2.931668564E1,9.732987492E0,-5.383839015E0,3.135577817E1
4.212548875E0,-3.957198152E1,1.162806190E1,4.679065634E0,4.150960371E1
4.222582875E0,-3.974526024E1,6.394885751E0,1.822149570E1,4.418826973E1
4.232617875E0,-3.203816224E1,4.056260276E0,2.509816747E1,4.090006231E1
4.242651875E0,-2.231003729E1,1.795144030E0,2.214094517E1,3.148303922E1
4.252685875E0,-1.252140535E1,-2.660219997E-1,1.167298138E1,1.712059736E1
4.262719875E0,-6.537539102E0,-3.156140264E-1,5.479050981E0,8.535750077E0
4.272754875E0,-3.103273467E0,3.290124094E-1,2.668176304E0,4.105815408E0
4.282788875E0,-1.019000119E-1,1.038101730E0,9.684369063E-1,1.423344251E0
4.292822875E0,2.612028415E0,1.557110020E0,-4.245639896E-1,3.070429715E0
4.302856875E0,4.857580835E0,1.849592717E0,-1.350177643E0,5.370294634E0
4.312891875E0,7.692464765E0,1.947774192E0,-2.932803742E0,8.459856752E0
4.322925875E0,1.306423513E1,2.408203102E0,-6.101802253E0,1.461867547E1
4.332959875E0,1.459475786E1,1.976718787E0,-6.024673970E0,1.591260728E1
4.342994875E0,1.275428124E1,1.196122441E0,-3.611035150E0,1.330946933E1
4.353028875E0,1.084424381E1,1.912376903E0,-1.321385368E0,1.109057566E1
4.363062875E0,9.425115800E0,1.874812489E0,6.234143454E-1,9.629972750E0
4.373096875E0,8.886940995E0,1.007781066E0,2.257116458E0,9.224311229E0
4.383130875E0,9.631710793E0,-1.971100782E-1,3.607981149E0,1.028718782E1
4.393165875E0,1.071493147E1,-1.395313031E0,4.058382815E0,1.154240555E1
4.403199875E0,1.163157608E1,-2.275989516E0,2.495130880E0,1.211195147E1
4.413233875E0,1.274342179E1,-2.695721952E0,-7.226584788E-1,1.304545711E1
4.423267875E0,1.451720156E1,-2.012964361E0,-1.803428657E0,1.476663542E1
4.433302875E0,1.693534917E1,5.123154938E-2,-8.060281527E-1,1.695459694E1
4.443336875E0,1.772495249E1,2.047250241E0,6.384247327E-1,1.785420848E1
4.453370875E0,1.635187657E1,2.832698241E0,2.111781574E0,1.672924589E1
4.463405875E0,1.380986739E1,2.817363333E0,2.323034459E0,1.428448328E1
4.473439875E0,1.114846041E1,2.887662653E0,1.529704851E0,1.161751961E1
4.483473875E0,9.305816814E0,2.670786208E0,9.436212500E-1,9.727371002E0
4.493507875E0,7.761601074E0,2.148719898E0,5.995301505E-1,8.075821000E0
4.503542875E0,5.892811655E0,1.892821475E0,-3.587957505E-1,6.199736828E0
4.513576875E0,4.169921962E0,1.953794047E0,-1.745643110E0,4.924716257E0
4.523610875E0,2.884571230E0,1.925113015E0,-3.082462642E0,4.639869313E0
4.533644875E0,1.437569543E0,1.618177902E0,-4.131996337E0,4.664600694E0
4.543679875E0,-1.508381664E0,1.288411165E0,-4.166318908E0,4.614480666E0
4.553713875E0,-6.453540925E0,1.706988629E-1,-2.993665656E0,7.116133967E0
4.563747875E0,-1.370449355E1,-1.478475641E0,4.830332226E-1,1.379247457E1
4.573781875E0,-2.388773769E1,-3.211567702E0,5.728188561E0,2.477398481E1
4.583816875E0,-3.799180189E1,-7.744834768E0,6.538494537E0,3.932062293E1
4.593850875E0,-4.515535676E1,-1.438529656E1,5.764194546E0,4.774064244E1
4.603884875E0,-3.026645589E1,-1.166616470E1,8.485164190E0,3.352843215E1
4.613918875E0,-1.838326828E1,-3.117174930E0,1.127606302E1,2.179015671E1
4.623952875E0,-1.251041259E1,3.357927310E0,1.138825589E1,1.724756421E1
4.633987875E0,-8.966679475E0,6.723934304E0,9.278022659E0,1.454971951E1
4.644021875E0,-8.944921986E0,6.293695006E0,5.590063294E0,1.228295705E1
4.654055875E0,-9.311003879E0,4.116596232E0,2.719237991E0,1.053733425E1
4.664090875E0,-7.200630898E0,1.890433764E0,1.248094613E0,7.548547232E0
4.674124875E0,-3.498432979E0,9.781723011E-2,5.656233895E-1,3.545212453E0
4.684158875E0,-3.784902692E-2,-1.022518900E0,-1.633799762E-2,1.023349589E0
4.694192875E0,1.180125409E0,-1.504993933E0,-4.024042118E-1,1.954387850E0
4.704227875E0,9.094186199E-1,-1.632485892E0,-1.449641705E-1,1.874317749E0
4.714261875E0,2.690909693E0,-1.576927988E0,-3.934565100E-1,3.143645158E0
4.724295875E0,5.243415792E0,-1.637049498E0,-9.737678128E-1,5.578670449E0
4.734329875E0,7.132087498E0,-1.660661870E0,-1.322293441E0,7.441298937E0
4.744364875E0,9.601958406E0,-1.502056877E0,-1.697230649E0,9.865818363E0
4.754398875E0,1.341030492E1,-6.563781698E-1,-2.310644209E0,1.362373617E1
4.764432875E0,1.787005232E1,1.138562669E0,-2.356432293E0,1.806067186E1
4.774466875E0,2.148760068E1,3.115695000E0,-1.427838607E0,2.175921095E1
4.784501875E0,2.216049592E1,4.481681760E0,1.158394817E0,2.263879258E1
4.794535875E0,2.074866465E1,4.469258473E0,4.648252269E0,2.172757707E1
4.804569875E0,1.772432333E1,3.321024948E0,6.314143889E0,1.910626225E1
4.814603875E0,1.493919628E1,2.861378249E0,4.297342147E0,1.580614502E1
4.824638875E0,1.372550025E1,3.707654541E0,3.015065880E0,1.453363966E1
4.834672875E0,1.364338780E1,4.989407482E0,6.464264134E0,1.590040655E1
4.844706875E0,1.463717122E1,4.548176881E0,7.371129860E0,1.700782907E1
4.854740875E0,1.444703146E1,3.109208976E0,4.997797067E0,1.560006007E1
4.864775875E0,1.299761780E1,2.174667794E0,4.172482750E0,1.382305541E1
4.874809875E0,1.095903050E1,1.779085383E0,4.062126203E0,1.182228250E1
4.884843875E0,8.282451748E0,1.450971508E0,3.811322751E0,9.232036958E0
4.894877875E0,5.616031948E0,7.977974658E-1,3.045553848E0,6.438298990E0
4.904912875E0,2.696805441E0,-3.145432185E-1,1.794388862E0,3.254462845E0
4.914946875E0,-7.746888310E-1,-1.556781553E0,3.689663243E-1,1.777596055E0
4.924980875E0,-4.402418366E0,-2.694278859E0,-1.421556358E0,5.353620132E0
4.935014875E0,-6.895605047E0,-3.206585290E0,-4.584631639E0,8.879775079E0
4.945049875E0,-8.100074168E0,-2.063200568E0,-8.783487963E0,1.212508387E1
4.955083875E0,-1.075599997E1,-1.858409587E-1,-9.165874232E0,1.413291628E1
4.965117875E0,-1.580997182E1,1.177172199E0,-4.547552106E0,1.649306441E1
4.975151875E0,-2.126861544E1,2.015636977E0,8.118531489E0,2.285448202E1
4.985186875E0,-2.700490473E1,4.492984135E0,2.523556534E1,3.723285571E1
4.995220875E0,-3.356230215E1,4.154440874E0,3.263261825E1,4.699548146E1
5.005254875E0,-3.897932177E1,-1.000687005E-1,3.086609721E1,4.972035294E1
5.015288875E0,-3.408067185E1,-1.521418323E0,2.227520426E1,4.074299488E1
5.025323875E0,-2.200663696E1,1.989478946E-1,1.078298136E1,2.450723032E1
5.035357875E0,-1.337100579E1,2.894990456E-1,3.936249975E0,1.394136540E1
5.045391875E0,-7.994615541E0,-8.663946609E-1,5.398649427E-1,8.059526755E0
5.055425875E0,-3.655592687E0,-1.880589392E0,-1.606652601E0,4.413763353E0
5.065460875E0,4.321396422E-1,-2.021427621E0,-3.177978372E0,3.791102851E0
5.075494875E0,4.332443567E0,-1.447238207E0,-3.438330034E0,5.717226523E0
5.085528875E0,7.775815655E0,-2.208357404E-1,-2.756235371E0,8.252812305E0
5.095562875E0,9.904029075E0,1.272393887E0,-2.393551442E0,1.026829424E1
5.105597000E0,9.961337636E0,2.306547212E0,-2.483849262E0,1.052225806E1
5.115631000E0,9.747674528E0,3.105807943E0,-2.417498567E0,1.051225480E1
5.125665000E0,1.048045110E1,3.922019314E0,-1.964628791E0,1.136141968E1
5.135699000E0,1.187693226E1,4.817345852E0,-1.162896588E0,1.286936943E1
5.145734000E0,1.313362287E1,5.160170152E0,2.988921225E-1,1.411413271E1
5.155768000E0,1.365813799E1,4.830348305E0,2.733891406E0,1.474283420E1
5.165802000E0,1.325181848E1,3.957427713E0,5.869301755E0,1.502400181E1
5.175836000E0,1.277457108E1,3.136751408E0,9.203572401E0,1.605411538E1
5.185871000E0,1.279379439E1,2.529637054E0,1.225203582E1,1.789392691E1
5.195905000E0,1.308797950E1,1.833003289E0,1.427776977E1,1.945532878E1
5.205939000E0,1.350384985E1,1.122543198E0,1.446179919E1,1.981811545E1
5.215973000E0,1.420093385E1,6.627598210E-1,1.213888051E1,1.869380092E1
5.226008000E0,1.519168373E1,1.018464953E0,6.453607584E0,1.653703650E1
5.236042000E0,1.534458374E1,1.884755387E0,3.694691849E-1,1.546431572E1
5.246076000E0,1.422661365E1,2.417044092E0,-7.521665257E-1,1.445006549E1
5.256111000E0,1.284016748E1,2.512587742E0,2.089186764E-1,1.308535996E1
5.266145000E0,1.155081316E1,2.570298299E0,1.111955645E0,1.188546017E1
5.276179000E0,1.005411073E1,2.445900248E0,1.343667645E0,1.043422318E1
5.286213000E0,8.113412252E0,2.102404102E0,8.855257273E-1,8.428031632E0
5.296248000E0,5.529059878E0,1.428040043E0,1.318697695E-1,5.712021633E0
5.306282000E0,2.783323182E0,5.236149457E-1,-3.420377035E-1,2.852726825E0
5.316316000E0,-4.647080487E-1,-6.169419162E-1,-4.006921470E-1,8.701293554E-1
5.326350000E0,-3.503384401E0,-1.440684209E0,-9.522892356E-2,3.789240267E0
5.336385000E0,-5.345519287E0,-1.409430110E0,-7.646251881E-1,5.580835185E0
5.346419000E0,-5.815590402E0,-8.437348730E-1,-2.708241425E0,6.470514035E0
5.356453000E0,-7.539126213E0,1.082165689E0,-3.847658519E0,8.533110963E0
5.366487000E0,-1.313726217E1,2.187770089E0,-9.506797895E-1,1.335207053E1
5.376522000E0,-1.847415272E1,3.033871695E0,3.798593363E0,1.910308896E1
5.386556000E0,-2.374763607E1,3.191790957E0,1.256615760E1,2.705634981E1
5.396590000E0,-3.828417671E1,-1.348817434E0,2.382298797E1,4.511133173E1
5.406624000E0,-3.809330956E1,-4.498690433E0,3.465664130E1,5.169546629E1
5.416659000E0,-2.596218714E1,-2.754416887E0,3.201006753E1,4.130697758E1
5.426693000E0,-2.125826119E1,-1.046734486E0,2.022372736E1,2.935998075E1
5.436727000E0,-1.636340026E1,-1.268993293E0,1.128537881E1,1.991810701E1
5.446761000E0,-1.024451010E1,-1.618639832E0,4.976500922E0,1.150371869E1
5.456796000E0,-5.528493868E0,-2.284285692E0,1.006773591E-2,5.981831402E0
5.466830000E0,-1.585964275E0,-3.064142146E0,-3.111817419E0,4.646251976E0
5.476864000E0,2.336901716E0,-3.130769414E0,-4.493636100E0,5.954459854E0
5.486898000E0,5.990736730E0,-2.690395723E0,-4.318571048E0,7.859848065E0
5.496933000E0,8.767088277E0,-1.618292215E0,-3.016345836E0,9.411644317E0
5.506967000E0,1.070535841E1,-4.463028411E-1,-1.517569394E0,1.082159423E1
5.517001000E0,1.202314072E1,3.895680751E-1,-6.516460182E-1,1.204708756E1
5.527035000E0,1.294144360E1,1.120873453E0,-3.520652398E-1,1.299466312E1
5.537070000E0,1.376021283E1,1.838191524E0,-2.320365205E-2,1.388246893E1
5.547104000E0,1.509933982E1,2.659182116E0,4.592637062E-1,1.533858650E1
5.557138000E0,1.635109304E1,3.617641334E0,8.558066690E-1,1.676836240E1
5.567172000E0,1.677314507E1,4.448970973E0,1.042200117E0,1.738441599E1
5.577207000E0,1.648437330E1,5.168758543E0,1.070592442E0,1.730886467E1
5.587241000E0,1.522889892E1,5.911744940E0,8.669024185E-1,1.635908342E1
5.597275000E0,1.344450295E1,6.900168214E0,6.442450511E-1,1.512554239E1
5.607309000E0,1.141581031E1,7.808877566E0,5.867015786E-1,1.384353685E1
5.617344000E0,9.361222690E0,8.480411573E0,1.162501316E0,1.268468683E1
5.627378000E0,7.799579324E0,8.661339628E0,2.348113167E0,1.188973832E1
5.637412000E0,6.834667704E0,8.207295147E0,4.071215992E0,1.143009956E1
5.647446000E0,6.701168169E0,7.011644211E0,5.920195920E0,1.136298944E1
5.657481000E0,7.789674141E0,5.234992293E0,6.826349455E0,1.160530975E1
5.667515000E0,8.644792008E0,3.811943725E0,6.851536921E0,1.167077127E1
5.677549000E0,8.441035253E0,2.589747600E0,6.666141593E0,1.106324150E1
5.687584000E0,7.633924781E0,1.415049284E0,6.466029993E0,1.010389608E1
5.697618000E0,6.532699946E0,3.162706321E-1,6.136512494E0,8.968443638E0
5.707652000E0,5.090104721E0,-7.398964360E-1,5.581922801E0,7.590419946E0
5.717686000E0,3.286895919E0,-1.754804089E0,4.718662393E0,6.012386960E0
5.727721000E0,1.110120789E0,-2.844179834E0,3.690982375E0,4.790102085E0
5.737755000E0,-1.243089981E0,-4.126050595E0,2.182693244E0,4.830498526E0
5.747789000E0,-3.700995147E0,-5.364692307E0,5.252040727E-1,6.538587611E0
5.757823000E0,-6.448736853E0,-5.942051643E0,-1.823430812E0,8.956510741E0
5.767858000E0,-9.663444217E0,-5.115257689E0,-4.987366219E0,1.201756370E1
5.777892000E0,-1.274030640E1,-3.081610411E0,-5.997361041E0,1.441457836E1
5.787926000E0,-1.975980927E1,-2.522751957E-2,-2.835958648E0,1.996229847E1
5.797960000E0,-3.264277369E1,1.332680288E0,3.180230427E0,3.282438996E1
5.807995000E0,-6.030581996E1,-2.263438907E0,1.050608296E1,6.125596180E1
5.818029000E0,-5.550737494E1,-4.734199030E0,2.334504124E1,6.040258491E1
5.828063000E0,-3.403657215E1,-2.869422556E0,1.992795180E1,3.954548131E1
5.838097000E0,-2.175878285E1,-1.609315423E0,9.750380035E0,2.389779149E1
5.848132000E0,-1.084658971E1,-1.968157440E-1,4.483707820E0,1.173843604E1
5.858166000E0,-3.684300177E0,5.706607658E-1,2.246280983E0,4.352642848E0
5.868200000E0,1.377070157E0,9.258142857E-1,9.052268972E-1,1.890208995E0
5.878234000E0,5.160415151E0,9.227355804E-1,-3.660461517E-1,5.255027618E0
5.888269000E0,7.455360171E0,6.704698133E-1,-1.110538865E0,7.567378781E0
5.898303000E0,8.752831596E0,5.844851185E-1,-1.432829790E0,8.888570471E0
5.908337000E0,9.342336769E0,5.631005717E-1,-1.438415051E0,9.469180345E0
5.918371000E0,9.540786005E0,5.087997092E-1,-1.143563281E0,9.622536657E0
5.928406000E0,9.642280805E0,4.588324375E-1,-5.065523319E-1,9.666473069E0
5.938440000E0,9.695419716E0,6.126803923E-1,1.029251750E-1,9.715304130E0
5.948474000E0,9.846664381E0,7.897745743E-1,7.303070024E-1,9.905245662E0
5.958508000E0,1.012021350E1,1.005316173E0,1.361219086E0,1.026071632E1
5.968543000E0,1.059857188E1,1.244441857E0,2.168934745E0,1.088956561E1
5.978577000E0,1.128222599E1,1.472173804E0,3.356559062E0,1.186264759E1
5.988611000E0,1.189848276E1,1.719386773E0,4.440615887E0,1.281597645E1
5.998645000E0,1.250029691E1,1.849919576E0,5.612940525E0,1.382695652E1
6.008680000E0,1.322519494E1,1.963448238E0,7.000936790E0,1.509218427E1
6.018714000E0,1.362314240E1,2.024492439E0,8.155360762E0,1.600620154E1
6.028748000E0,1.366403783E1,2.011022793E0,9.055055462E0,1.651496812E1
6.038783000E0,1.308525938E1,1.878884782E0,9.493614178E0,1.627522446E1
6.048817000E0,1.194370746E1,1.706526114E0,9.672853557E0,1.546377946E1
6.058851000E0,1.049229756E1,1.545101447E0,9.628473775E0,1.432421564E1
6.068885000E0,8.817561443E0,1.442524766E0,9.321076877E0,1.291172884E1
6.078920000E0,7.096000822E0,1.384893439E0,8.817066184E0,1.140227230E1
6.088954000E0,5.513246083E0,1.328248830E0,8.344738628E0,1.008934042E1
6.098988000E0,4.273563859E0,1.249060134E0,8.019055148E0,9.172172303E0
6.109022375E0,3.659374666E0,1.042407546E0,7.575298843E0,8.477192283E0
6.119057375E0,3.261289793E0,7.494231583E-1,6.996728548E0,7.755762797E0
6.129091375E0,2.026816853E0,3.499722290E-1,6.569905195E0,6.884338849E0
6.139125375E0,-1.019836271E0,-4.345337847E-1,5.035240297E0,5.155824907E0
6.149159375E0,-4.171030594E0,-1.501503291E0,2.225492962E0,4.960325319E0
6.159194375E0,-6.819830394E0,-2.661592339E0,-1.055286185E0,7.396471410E0
6.169228375E0,-9.440792186E0,-3.332902397E0,-4.905577705E0,1.114905772E1
6.179262375E0,-1.147501337E1,-1.761504413E0,-7.689741132E0,1.392519114E1
6.189296375E0,-1.525067746E1,3.162938748E0,-7.010891089E0,1.708039632E1
6.199331375E0,-2.472010989E1,7.363192849E0,-6.524310946E0,2.660577147E1
6.209365375E0,-3.840571225E1,5.173631027E0,-1.469941951E1,4.144681080E1
6.219399375E0,-5.318156774E1,-1.991482860E0,-4.119971538E1,6.730276144E1
6.229433375E0,-4.478837148E1,-5.428754402E0,-4.696396605E1,6.512360326E1
6.239468375E0,-2.115013214E1,-1.584644558E0,-1.734243934E1,2.739706900E1
6.249502375E0,-7.369920071E0,1.470363798E0,-5.004553524E0,9.029022512E0
6.259536375E0,-1.110596752E0,1.133350022E0,-4.012607887E-1,1.636739943E0
6.269570375E0,2.233235845E0,1.398142353E0,2.417799114E0,3.576016909E0
6.279605375E0,4.442668260E0,2.592744590E0,3.889352674E0,6.448774302E0
6.289639375E0,6.091849122E0,3.211042037E0,3.720561100E0,7.827131760E0
6.299673375E0,7.044700275E0,1.537590552E0,3.088282961E0,7.844072814E0
6.309707375E0,8.031368800E0,-7.842708825E-1,2.879910707E0,8.568071620E0
6.319742375E0,8.926367016E0,-1.802667203E0,3.455874020E0,9.740261927E0
6.329776375E0,9.236044913E0,-1.841437021E0,4.398883724E0,1.039449825E1
6.339810375E0,9.202381323E0,-1.472762472E0,5.296105052E0,1.071921546E1
6.349845375E0,9.198999878E0,-9.558648080E-1,6.218260077E0,1.114459666E1
6.359879375E0,9.218807321E0,-5.376713598E-1,7.214637904E0,1.171863896E1
6.369913375E0,9.096056723E0,-4.678145647E-1,7.922276713E0,1.207143598E1
6.379947375E0,8.892616303E0,-3.817019986E-1,8.334977286E0,1.219410380E1
6.389982375E0,8.622185503E0,-2.783924422E-1,8.505675053E0,1.211470566E1
6.400016375E0,8.363136308E0,-8.950669214E-2,8.698498684E0,1.206706011E1
6.410050375E0,8.287666295E0,1.844272482E-1,9.088440725E0,1.230118616E1
6.420084375E0,8.333921864E0,4.467091495E-1,9.512440458E0,1.265465630E1
6.430119375E0,8.178221621E0,7.691298831E-1,9.577569669E0,1.261763490E1
6.440153375E0,8.020854921E0,1.236310427E0,9.181511441E0,1.225409032E1
6.450187375E0,7.960739697E0,1.866053652E0,8.020684767E0,1.145368573E1
6.460221375E0,7.752837267E0,2.522267515E0,6.573153908E0,1.047256756E1
6.470256375E0,7.275109808E0,3.076015210E0,5.695007951E0,9.737669529E0
6.480290375E0,6.792227443E0,3.476592459E0,5.761725267E0,9.561303615E0
6.490324375E0,6.277942023E0,3.633824965E0,6.186988583E0,9.533942922E0
6.500359375E0,5.403920692E0,3.468542890E0,6.280228869E0,8.981894192E0
6.510393375E0,3.714281191E0,3.127035090E0,6.026105368E0,7.738745320E0
6.520427375E0,2.757680803E0,2.879498478E0,6.112372264E0,7.297767439E0
6.530461375E0,1.573775169E0,2.478165768E0,6.002449872E0,6.681876857E0
6.540496375E0,5.458884519E-1,1.758367382E0,5.309412730E0,5.619583044E0
6.550530375E0,-3.108964562E-1,9.503760266E-1,4.686405351E0,4.791895900E0
6.560564375E0,-3.068963760E0,-2.750960013E-1,4.150603054E0,5.169305764E0
6.570598375E0,-6.460762237E0,-1.211776972E0,3.300533088E0,7.355499356E0
6.580633375E0,-9.817758086E0,-1.082497811E0,1.743260516E0,1.002991189E1
6.590667375E0,-1.380116673E1,-2.931757383E-1,7.229497433E-2,1.380446963E1
6.600701375E0,-2.271834134E1,-1.636668113E0,-8.017702103E-2,2.277736034E1
6.610735375E0,-3.589069149E1,-5.355703967E0,2.526067328E0,3.637590296E1
6.620770375E0,-4.860817503E1,-1.000071045E1,1.718411311E0,4.965603515E1
6.630804375E0,-5.428490458E1,-1.378049098E1,-2.253895227E0,5.605205474E1
6.640838375E0,-4.546589069E1,-1.367435583E1,-9.278695673E0,4.837591774E1
6.650872375E0,-2.201287711E1,-6.611273661E0,-1.150237015E1,2.570175514E1
6.660907375E0,-6.002721768E0,-1.020637778E0,-1.064354983E1,1.226211740E1
6.670941375E0,3.027302933E0,3.409096002E0,-1.154491098E1,1.241255285E1
6.680975375E0,8.460225230E0,6.331405454E0,-1.146295758E1,1.559042983E1
6.691009375E0,1.085462496E1,6.568679034E0,-6.992760043E0,1.448686026E1
6.701044375E0,1.146040468E1,5.705292619E0,-3.012995674E0,1.315178248E1
6.711078375E0,1.133969944E1,3.939828471E0,-5.465123498E-1,1.201705902E1
6.721112375E0,1.126587601E1,2.645034193E0,8.818082137E-1,1.160576382E1
6.731146375E0,1.105156854E1,1.863560838E0,1.434860090E0,1.129906410E1
6.741181375E0,1.084996940E1,1.346789766E0,1.686081178E0,1.106248383E1
6.751215375E0,1.067653631E1,8.346619678E-1,2.047531492E0,1.090309467E1
6.761249375E0,1.049810735E1,3.789079431E-1,2.532333205E0,1.080585678E1
6.771284375E0,1.042278820E1,1.118047932E-2,3.085866891E0,1.087001441E1
6.781318375E0,1.040943316E1,-3.936349963E-1,3.789738339E0,1.108482584E1
6.791352375E0,1.053179667E1,-6.170484817E-1,4.410453025E0,1.143466597E1
6.801386375E0,1.066374728E1,-6.067482459E-1,4.912416608E0,1.175650826E1
6.811421375E0,1.063380954E1,-5.086126714E-1,5.195971484E0,1.184629528E1
6.821455375E0,1.046618857E1,-4.398192291E-1,5.577749058E0,1.186784853E1
6.831489375E0,1.034825491E1,-3.794163951E-1,6.054225798E0,1.199516513E1
6.841523375E0,1.031618644E1,-3.158889186E-1,6.315591660E0,1.210000771E1
6.851558375E0,1.028372738E1,-2.812041307E-1,6.596981896E0,1.222105948E1
6.861592375E0,1.026543027E1,-2.211649387E-1,6.920970268E0,1.238256040E1
6.871626375E0,1.031736758E1,-1.736041982E-1,6.950764171E0,1.244151658E1
6.881660375E0,1.016824253E1,-6.383920614E-2,6.597938501E0,1.212146955E1
6.891695375E0,9.702942744E0,1.519104434E-1,5.662169988E0,1.123522780E1
6.901729375E0,9.204056550E0,5.912096357E-1,4.144471079E0,1.011142059E1
6.911763375E0,8.430546518E0,1.184660144E0,1.934442540E0,8.730383851E0
6.921798375E0,7.428323815E0,1.875961467E0,3.041993478E-1,7.667578716E0
6.931832375E0,5.777769442E0,2.181952840E0,3.384169614E-1,6.185310336E0
6.941866375E0,1.140033975E0,1.571985775E0,2.754913316E0,3.370513925E0
6.951900375E0,-7.951518638E0,1.347790517E-1,6.894932617E0,1.052544108E1
6.961935375E0,-1.875070264E1,-1.586297712E0,1.279546435E1,2.275585854E1
6.971969375E0,-3.291054810E1,-4.680004989E0,1.732561690E1,3.748577895E1
6.982003375E0,-4.317713612E1,-7.586542454E0,1.706278455E1,4.704210164E1
6.992037375E0,-4.827001885E1,-8.724764376E0,1.450405585E1,5.115157739E1
7.002072375E0,-4.959524584E1,-8.781895766E0,7.415678626E0,5.090974752E1
7.012106375E0,-4.068023938E1,-6.461016591E0,-2.733969759E0,4.128076068E1
7.022140375E0,-2.106817756E1,1.045599468E0,-9.411756082E0,2.309853971E1
7.032174375E0,-6.654813198E0,6.088642509E0,-1.462210295E1,1.718033762E1
7.042209375E0,2.653444244E0,3.272733086E0,-1.941815879E1,1.986998840E1
7.052243375E0,7.854427376E0,-1.705348485E0,-1.904486085E1,2.067140459E1
7.062277375E0,1.056152626E1,-3.881099330E0,-1.377799889E1,1.778881734E1
7.072312375E0,1.232392851E1,-3.744879670E0,-8.474720478E0,1.541830810E1
7.082346375E0,1.259681105E1,-2.501600239E0,-4.534827980E0,1.361992354E1
7.092380375E0,1.233693739E1,-1.188957336E0,-1.798987112E0,1.252397694E1
7.102414500E0,1.214466106E1,-3.266504632E-1,-1.686969955E-1,1.215022434E1
7.112449500E0,1.186949226E1,1.929847214E-1,6.131622760E-1,1.188688595E1
7.122483500E0,1.135526473E1,6.882276611E-1,1.312876354E0,1.145160857E1
7.132517500E0,1.080766129E1,1.170693704E0,1.970362863E0,1.104800417E1
7.142551500E0,1.047133412E1,1.556589618E0,2.402739025E0,1.085564205E1
7.152586500E0,1.010862432E1,1.804824972E0,2.865862771E0,1.066090279E1
7.162620500E0,9.822835808E0,1.997640855E0,3.469960839E0,1.060751151E1
7.172654500E0,9.642640994E0,2.151540594E0,4.282427069E0,1.076795402E1
7.182688500E0,9.264159495E0,2.367803374E0,5.019764471E0,1.079949903E1
7.192723500E0,8.347240652E0,2.497985198E0,5.819975814E0,1.047799957E1
7.202757500E0,7.398559148E0,2.739815220E0,6.593798672E0,1.028219071E1
7.212791500E0,6.703297725E0,3.241357219E0,7.639432858E0,1.066778006E1
7.222826500E0,5.951890168E0,3.864690581E0,8.732218992E0,1.125222104E1
7.232860500E0,5.419764892E0,4.598433992E0,8.720750263E0,1.125037474E1
7.242894500E0,5.170992764E0,5.331841480E0,7.584762561E0,1.061585243E1
7.252928500E0,4.928071944E0,5.608192002E0,7.174482150E0,1.035426988E1
7.262963500E0,4.979451427E0,5.455868526E0,7.808942471E0,1.074900090E1
7.272997500E0,4.906608569E0,5.124387531E0,8.359282992E0,1.096411270E1
7.283031500E0,4.407144670E0,4.679708535E0,7.994072335E0,1.025805969E1
7.293065500E0,3.655892649E0,4.072667855E0,6.849252999E0,8.767236803E0
7.303100500E0,2.553753310E0,3.289533014E0,6.153444861E0,7.430179478E0
7.313134500E0,5.059642482E-1,2.361461776E0,6.332895910E0,6.777763063E0
7.323168500E0,-3.856234630E0,7.577436000E-1,8.313765342E0,9.195836832E0
7.333202500E0,-1.196155083E1,-2.195851672E0,1.142607685E1,1.668699179E1
7.343237500E0,-2.443381150E1,-6.427046022E0,1.107649171E1,2.758635050E1
7.353271500E0,-3.766924843E1,-9.352261248E0,5.938777202E0,3.926456599E1
7.363305500E0,-4.639888178E1,-9.084388019E0,3.382513683E0,4.740067230E1
7.373340500E0,-4.789710683E1,-8.275964262E0,-1.338816941E0,4.862526975E1
7.383374500E0,-4.286290207E1,-5.667526038E0,-5.244537288E0,4.355289195E1
7.393408500E0,-2.970990154E1,-2.990028103E0,-8.429885783E0,3.102710898E1
7.403442500E0,-1.491185587E1,-2.260453172E0,-1.050872005E1,1.838222759E1
7.413477500E0,-3.897920600E0,-1.017340825E0,-1.069845167E1,1.143178182E1
7.423511500E0,4.674185255E0,2.661827251E-1,-1.220004706E1,1.306751733E1
7.433545500E0,1.083221492E1,6.544963165E-1,-1.117915829E1,1.558007784E1
7.443579500E0,1.413336460E1,4.353894516E-1,-7.652497877E0,1.607800617E1
7.453614500E0,1.488128312E1,6.151612929E-1,-3.800731105E0,1.537129037E1
7.463648500E0,1.505100908E1,6.517027362E-1,-1.726414834E0,1.516370993E1
7.473682500E0,1.438259398E1,3.724447233E-1,-4.528867328E-1,1.439454171E1
7.483716500E0,1.358767086E1,3.650851984E-1,5.123963316E-1,1.360222910E1
7.493751500E0,1.296444304E1,4.585919342E-1,1.216733510E0,1.302948695E1
7.503785500E0,1.232036405E1,4.670364100E-1,1.897639580E0,1.247439494E1
7.513819500E0,1.180384674E1,5.323683372E-1,2.284190383E0,1.203460592E1
7.523854500E0,1.124317828E1,6.082797047E-1,2.603888799E0,1.155678584E1
7.533888500E0,1.078915251E1,6.503138032E-1,3.022926292E0,1.122349337E1
7.543922500E0,1.047844668E1,7.174470017E-1,3.417293214E0,1.104492951E1
7.553956500E0,1.017409092E1,8.752758506E-1,3.932169203E0,1.094258600E1
7.563991500E0,9.988718977E0,9.396797881E-1,4.637121802E0,1.105261976E1
7.574025500E0,9.931425619E0,7.442052492E-1,5.879673547E0,1.156536283E1
7.584059500E0,9.237233067E0,3.709174306E-1,7.225647626E0,1.173345806E1
7.594093500E0,7.973487212E0,-4.742713161E-2,8.493206450E0,1.164960529E1
7.604128500E0,6.900197450E0,-2.278795888E-1,9.790104849E0,1.197959961E1
7.614162500E0,6.157082414E0,-2.420363008E-1,1.076505263E1,1.240381407E1
7.624196500E0,5.759427896E0,-1.584128030E-1,1.106945868E1,1.247914339E1
7.634231500E0,5.655664376E0,5.971880117E-3,1.037160167E1,1.181341172E1
7.644265500E0,5.802239454E0,1.839452914E-1,8.804244994E0,1.054583086E1
7.654299500E0,5.864042770E0,2.362610608E-1,7.245208316E0,9.323940178E0
7.664333500E0,4.912264581E0,4.112926739E-1,6.253812318E0,7.963019118E0
7.674368500E0,2.588270593E0,7.051902144E-1,5.511904147E0,6.130050997E0
7.684402500E0,-1.991676841E0,8.616651405E-1,5.431500254E0,5.848969009E0
7.694436500E0,-1.185483563E1,3.002276631E-1,5.613955017E0,1.312035653E1
7.704470500E0,-2.872888376E1,-1.487558121E0,5.261620513E0,2.924459338E1
7.714505500E0,-4.512788421E1,-3.280075142E0,3.562180786E0,4.538693598E1
7.724539500E0,-5.258354259E1,-4.177142689E0,-1.086794199E0,5.276038849E1
7.734573500E0,-4.550881393E1,-4.019294178E0,-1.512082366E1,4.812323950E1
7.744607500E0,-2.828968536E1,-4.012373414E0,-4.285370090E1,5.150577753E1
7.754642500E0,1.654006569E0,-1.615326068E0,-7.022280998E1,7.026085722E1
7.764676500E0,8.397791001E0,-5.147526133E-1,-3.425747995E1,3.527552688E1
7.774710500E0,1.804855378E0,-1.597708700E0,-1.368503518E1,1.389569588E1
7.784745500E0,2.784455203E0,-1.904302336E0,-5.060571020E0,6.081853107E0
7.794779500E0,3.620062081E0,-1.735895070E0,-7.671497235E-1,4.087383009E0
7.804813500E0,4.948095734E0,-1.400027787E0,1.996197324E0,5.516206391E0
7.814847500E0,6.437266370E0,-1.151493640E0,3.368803424E0,7.356165607E0
7.824882500E0,7.114327165E0,-9.285395998E-1,3.732014042E0,8.087259462E0
7.834916500E0,7.822043742E0,-6.671996849E-1,4.478090692E0,9.037854832E0
7.844950500E0,7.967391490E0,-2.288706918E-1,5.511271479E0,9.690501651E0
7.854984500E0,7.067118500E0,4.361790450E-1,6.702945138E0,9.750071260E0
7.865019500E0,5.716014073E0,8.237088172E-1,8.019569119E0,9.882550377E0
7.875053500E0,4.044976319E0,9.634970324E-1,9.468855312E0,1.034163338E1
7.885087500E0,2.795541524E0,1.315909012E0,1.044793123E1,1.089522537E1
7.895122500E0,1.417609488E0,1.705720806E0,1.105715029E1,1.127739654E1
7.905156500E0,-1.177556142E-1,1.937003182E0,1.125978905E1,1.142579088E1
7.915190500E0,-7.513911849E-1,2.053000393E0,1.074602228E1,1.096614765E1
7.925224500E0,-7.335595161E-1,2.091173648E0,1.028249128E1,1.051859038E1
7.935259500E0,-1.467747315E0,1.977202351E0,1.033744341E1,1.062668093E1
7.945293500E0,-3.251992720E0,1.312905297E0,1.096687162E1,1.151396761E1
7.955327500E0,-5.287526602E0,5.495453006E-1,1.239296892E1,1.348501451E1
7.965361500E0,-7.176339226E0,-8.432890959E-2,1.360796771E1,1.538452928E1
7.975396500E0,-8.085810471E0,-4.932675310E-1,1.480797424E1,1.687897345E1
7.985430500E0,-7.348622172E0,-6.522775175E-1,1.564618663E1,1.729829096E1
7.995464500E0,-4.649983337E0,-6.676634422E-1,1.570505991E1,1.639259059E1
8.005499500E0,-1.650974496E0,-4.493604232E-1,1.516372819E1,1.525995722E1
8.015533500E0,3.838789169E-1,-3.347732690E-1,1.446288794E1,1.447185419E1
8.025567500E0,1.931548315E0,-5.331067674E-1,1.367362025E1,1.381965891E1
8.035601500E0,3.329948676E0,-5.719044685E-1,1.214576268E1,1.260694983E1
8.045636500E0,2.271507187E0,-7.541744596E-1,9.740189508E0,1.002994595E1
8.055670500E0,5.986416661E-1,-2.699960964E-1,8.138586270E0,8.165038653E0
8.065704500E0,3.259919790E0,2.278974228E-1,5.467889231E-1,3.313305359E0
8.075738500E0,9.429053900E0,4.914376449E-1,-1.881084476E1,2.104748082E1
8.085773500E0,3.390293696E0,2.269678032E0,-2.323425989E1,2.358975121E1
8.095807500E0,-2.992050187E1,-3.083123670E0,-3.574735050E1,4.671846692E1
8.105841792E0,-5.862253756E1,-1.290416409E1,-5.199459699E1,7.941383681E1
8.115876792E0,-5.271856181E1,-1.495295946E1,-4.219526231E1,6.916124578E1
8.125910792E0,-1.631532913E1,-1.197097654E1,-5.072979747E1,5.461690759E1
8.135944792E0,1.185675469E1,-6.645911397E0,-3.134073676E1,3.416127267E1
8.145978792E0,2.093437923E1,-2.198403689E0,-1.092064353E1,2.371374428E1
8.156013792E0,1.962249325E1,1.229108411E0,-7.784094143E-1,1.967635307E1
8.166047792E0,1.244201888E1,1.685063909E0,6.475335252E-1,1.257229389E1
8.176081792E0,6.377087996E0,9.872789010E-1,3.046335036E-1,6.460245546E0
8.186115792E0,2.580941401E0,7.615248482E-1,1.175016696E0,2.936297472E0
8.196150792E0,-4.919174820E-2,4.266946419E-1,3.650735405E0,3.675915824E0
8.206184792E0,-1.612407723E0,1.978252658E-1,6.149479864E0,6.360432069E0
8.216218792E0,-3.309482544E0,2.301004343E-1,7.484474627E0,8.186756461E0
8.226253792E0,-5.422948117E0,2.699017735E-1,8.180131906E0,9.818134815E0
8.236287792E0,-7.447627228E0,4.334285147E-1,8.363725707E0,1.120744928E1
8.246321792E0,-9.093564055E0,7.347402882E-1,8.519796664E0,1.248277556E1
8.256355792E0,-1.025376858E1,1.057356757E0,8.734291829E0,1.351094472E1
8.266390792E0,-1.097180316E1,1.282692588E0,8.834665718E0,1.414486066E1
8.276424792E0,-1.077787908E1,1.497837380E0,9.594258792E0,1.450710157E1
8.286458792E0,-1.032899301E1,1.596744202E0,1.046656747E1,1.479144088E1
8.296492792E0,-9.957451576E0,1.581346729E0,1.145651979E1,1.526117116E1
8.306527792E0,-9.435039695E0,1.607017467E0,1.199482733E1,1.534530423E1
8.316561792E0,-8.536364164E0,1.900726618E0,1.228843825E1,1.508270498E1
8.326595792E0,-7.141179918E0,2.014689143E0,1.267300027E1,1.468537908E1
8.336630792E0,-5.625006255E0,1.919490333E0,1.325566244E1,1.452713755E1
8.346664792E0,-4.234260630E0,1.841089842E0,1.388607298E1,1.463357775E1
8.356698792E0,-2.841875738E0,1.770578122E0,1.419655078E1,1.458606385E1
8.366732792E0,-1.330689165E0,1.816165208E0,1.446006841E1,1.463430109E1
8.376767792E0,2.042593518E0,2.052588456E0,1.433986837E1,1.462932441E1
8.386801792E0,6.720942868E0,2.277061896E0,1.241484803E1,1.429980894E1
8.396835792E0,8.347941148E0,1.610603857E0,8.152399732E0,1.177895528E1
8.406869792E0,5.075166839E0,1.049316324E0,5.465701203E0,7.532082902E0
8.416904792E0,1.766205575E0,1.754569762E0,5.547672150E0,6.080679523E0
8.426938792E0,4.902966338E-1,1.610369091E0,5.328254213E0,5.587841476E0
8.436972792E0,5.853291494E0,-1.465034500E-2,-9.254419788E0,1.095013797E1
8.447007792E0,4.542773469E0,-1.748133147E0,-1.732900477E1,1.799964352E1
8.457041792E0,-1.900906420E1,-5.378761293E0,-2.945814148E1,3.546910901E1
8.467075792E0,-4.965001320E1,-1.634207663E1,-5.568351179E1,7.637303690E1
8.477109792E0,-3.936019536E1,-1.360056747E1,-5.148233880E1,6.621655098E1
8.487144792E0,-1.703411215E1,-3.904150223E0,-4.749010320E1,5.060349066E1
8.497178792E0,4.709312403E-1,-3.625045078E0,-3.521266473E1,3.540189946E1
8.507212792E0,1.360073938E1,-3.764582740E0,-1.736412081E1,2.237554215E1
8.517246792E0,2.164489546E1,-2.278589919E0,-2.380160587E0,2.189426034E1
8.527281792E0,2.023516685E1,-7.278586270E-1,5.271501138E0,2.092320434E1
8.537315792E0,1.235241848E1,5.100802495E-1,4.020363050E0,1.300022089E1
8.547349792E0,5.607031329E0,1.000157028E0,2.227744725E0,6.115714265E0
8.557384792E0,1.079145749E0,9.034874967E-1,3.041544997E0,3.351393914E0
8.567418792E0,-1.215977904E0,7.820946220E-1,5.675454862E0,5.856710865E0
8.577452792E0,-3.189086620E0,6.212194468E-1,7.516346630E0,8.188507418E0
8.587486792E0,-5.331827447E0,2.905956544E-1,8.333975074E0,9.897877060E0
8.597521792E0,-7.461848826E0,-4.564395010E-2,8.534276708E0,1.133645228E1
8.607555792E0,-9.154752828E0,-1.768303263E-1,8.661426752E0,1.260401054E1
8.617589792E0,-1.067700760E1,-3.222278485E-1,8.910936799E0,1.391068354E1
8.627623792E0,-1.194909860E1,-3.459839894E-1,9.075528903E0,1.500886029E1
8.637658792E0,-1.290565747E1,-1.223572268E-1,9.380646556E0,1.595517144E1
8.647692792E0,-1.290689825E1,2.208401989E-1,9.965288014E0,1.630778213E1
8.657726792E0,-1.208180817E1,6.287034443E-1,1.061453828E1,1.609452639E1
8.667761792E0,-1.124403549E1,1.089393725E0,1.103498232E1,1.579195832E1
8.677795792E0,-1.032027599E1,1.567999290E0,1.158809033E1,1.559649178E1
8.687829792E0,-9.189406936E0,1.824620136E0,1.190140520E1,1.514654694E1
8.697863792E0,-8.034464900E0,1.963163918E0,1.169925175E1,1.432756540E1
8.707898792E0,-6.842118226E0,1.934775539E0,1.179054550E1,1.376862017E1
8.717932792E0,-5.634516166E0,1.814841253E0,1.188198542E1,1.327490109E1
8.727966792E0,-4.616179414E0,1.665735061E0,1.156258829E1,1.256094079E1
8.738001792E0,-3.727599686E0,1.621372382E0,1.111488686E1,1.183488732E1
8.748035792E0,-2.803180912E0,1.697436910E0,1.037092691E1,1.087636153E1
8.758069792E0,-1.978778468E0,1.798920600E0,9.394562345E0,9.767777700E0
8.768103792E0,-1.313599508E0,1.928705106E0,8.123008118E0,8.451550623E0
8.778138792E0,-1.537539974E0,1.949865741E0,7.788563755E0,8.174822991E0
8.788172792E0,1.422429348E0,2.194864954E0,2.087355416E0,3.346309915E0
8.798206792E0,1.118064348E1,1.940826530E0,-1.749140885E1,2.085001151E1
8.808240792E0,1.548738912E1,1.560711028E0,-2.827904810E1,3.228001862E1
8.818275792E0,4.246377230E0,-1.250751295E0,-3.182580540E1,3.213219550E1
8.828309792E0,-3.463950896E1,-1.471985436E1,-4.770293717E1,6.076298139E1
8.838343792E0,-4.489759279E1,-1.843312632E1,-3.503368146E1,5.985760453E1
8.848378792E0,-3.337257871E1,-9.962507079E0,-2.392584985E1,4.225431159E1
8.858412792E0,-8.827825645E0,-5.513163053E0,-2.780845483E1,2.969234973E1
8.868446792E0,4.684612010E0,-4.613159035E0,-2.038203019E1,2.141620837E1
8.878480792E0,1.282008464E1,-3.798500977E0,-1.228491939E1,1.815770978E1
8.888515792E0,1.525847063E1,-2.774189832E0,-6.925676107E0,1.698475919E1
8.898549792E0,9.622539436E0,-1.440880237E0,-2.926067750E0,1.016027920E1
8.908583792E0,4.348845007E0,-6.030600415E-1,1.468995988E0,4.629695835E0
8.918617792E0,2.828067831E0,2.825997332E-1,4.152057549E0,5.031641099E0
8.928652792E0,2.588951794E0,1.054500466E0,5.799283102E0,6.437882192E0
8.938686792E0,2.657911224E0,1.588142509E0,7.342437572E0,7.968568140E0
8.948720792E0,2.631001753E0,1.845732678E0,8.471983981E0,9.061093307E0
8.958755792E0,1.784720198E0,1.749958355E0,9.231590504E0,9.563986808E0
8.968789792E0,-1.692331852E-1,1.431096383E0,9.739414752E0,9.845449529E0
8.978823792E0,-2.360547271E0,1.105362032E0,1.041727545E1,1.073841871E1
8.988857792E0,-4.153453279E0,8.853589354E-1,1.096138459E1,1.175529611E1
8.998892792E0,-5.852950017E0,7.288713647E-1,1.113377805E1,1.259957503E1
9.008926792E0,-7.418581184E0,6.941163920E-1,1.073105341E1,1.306417436E1
9.018960792E0,-7.717390861E0,7.545318706E-1,1.042180353E1,1.299005115E1
9.028995792E0,-7.589412852E0,1.064018856E0,1.043964572E1,1.295058016E1
9.039029792E0,-6.343617364E0,4.991006695E0,9.626846495E0,1.256295357E1
9.049063792E0,-5.570925942E0,8.962336164E0,9.879892938E0,1.445582823E1
9.059097792E0,-6.182542360E0,4.120304537E0,1.296248422E1,1.494077430E1
9.069132792E0,-5.927361099E0,-1.003207374E0,1.478304756E1,1.595865062E1
9.079166792E0,-4.340721762E0,-1.097854281E0,1.430647726E1,1.499074518E1
9.089200792E0,-2.904826862E0,-3.442418846E-1,1.295994185E1,1.328595553E1
9.099234792E0,-1.951725302E0,8.400066152E-1,1.232932315E1,1.251107718E1
9.109269625E0,-3.848505415E-1,3.032830891E0,1.204803816E1,1.242985908E1
9.119303625E0,1.471147471E0,5.008700370E0,1.124115398E1,1.239414769E1
9.129337625E0,2.194831771E0,4.111610312E0,1.065450400E1,1.162931990E1
9.139372625E0,1.659125953E0,8.968516378E-1,9.306689218E0,9.495867838E0
9.149406625E0,6.963694704E-1,-1.358221219E0,5.183055570E0,5.403125055E0
9.159440625E0,-6.169313620E0,-4.016410624E0,-2.515787923E-1,7.365818130E0
9.169474625E0,-1.897027611E1,-8.214143406E0,-8.541174084E0,2.236727928E1
9.179509625E0,-3.170336002E1,-1.384712351E1,-2.025403230E1,4.008829868E1
9.189543625E0,-3.152044508E1,-1.975168397E1,-2.860898777E1,4.692698221E1
9.199577625E0,-2.501023470E1,-2.348714261E1,-3.163388107E1,4.666754910E1
9.209611625E0,-2.192801998E1,-2.271945933E1,-2.686361495E1,4.145679318E1
9.219646625E0,-1.918405148E1,-1.765111619E1,-2.369453633E1,3.522812493E1
9.229680625E0,-7.984273571E0,-9.466003625E0,-2.571830211E1,2.854443750E1
9.239714625E0,8.754275274E0,-2.987494504E-1,-2.767894368E1,2.903188782E1
9.249749625E0,1.676626523E1,5.594598395E0,-2.201884127E1,2.823537767E1
9.259783625E0,1.259355298E1,5.700375695E0,-9.005012067E0,1.649794236E1
9.269817625E0,9.203319216E0,2.682807207E0,1.460170786E0,9.696939612E0
9.279851625E0,8.248881714E0,1.222392592E-1,6.763170875E0,1.066768355E1
9.289886625E0,8.841364288E0,-2.488282621E-2,7.318555790E0,1.147743876E1
9.299920625E0,9.467398186E0,5.697658494E-1,5.959229009E0,1.120127992E1
9.309954625E0,1.027499982E1,1.347109024E0,5.867121329E0,1.190854470E1
9.319989625E0,1.088799852E1,2.213070260E0,6.514927334E0,1.287984744E1
9.330023625E0,1.069166423E1,2.870425353E0,7.037123453E0,1.311762677E1
9.340057625E0,9.951308491E0,3.228891248E0,7.604334362E0,1.293368395E1
9.350091625E0,8.582483493E0,3.407127537E0,7.956615656E0,1.218914573E1
9.360126625E0,7.029603934E0,3.692714028E0,8.007106363E0,1.127675577E1
9.370160625E0,5.456843841E0,4.045943449E0,7.935420084E0,1.044594156E1
9.380194625E0,3.306129166E0,4.160573726E0,7.526200942E0,9.213281957E0
9.390229625E0,5.577466418E-1,3.948666830E0,6.664508466E0,7.766512998E0
9.400263625E0,-2.593822232E0,3.351788319E0,5.502548018E0,6.945533341E0
9.410297625E0,-6.498142317E0,2.417396826E0,4.274590631E0,8.145046718E0
9.420331625E0,-1.069395867E1,1.248192261E0,3.084989809E0,1.119981688E1
9.430366625E0,-1.412624152E1,3.049991007E-1,2.209624203E0,1.430126438E1
9.440400625E0,-1.553683084E1,-2.582434487E-1,2.294602958E0,1.570748245E1
9.450434625E0,-1.382131741E1,-2.602309173E-1,3.394293483E0,1.423438665E1
9.460468625E0,-1.040490040E1,5.727350655E-1,5.216837858E0,1.165355632E1
9.470503625E0,-8.324188589E0,1.650284232E0,6.219324855E0,1.052119553E1
9.480537625E0,-6.648988786E0,2.428063463E0,6.094969196E0,9.340941792E0
9.490571625E0,-4.659139492E0,2.639279364E0,4.966463592E0,7.303364771E0
9.500606625E0,-3.819300692E0,2.058580098E0,1.952375951E0,4.757791678E0
9.510640625E0,-5.164826875E0,9.949543217E-1,-4.302080145E0,6.795091193E0
9.520674625E0,-8.371681429E0,-4.679243097E-1,-1.442579671E1,1.668555105E1
9.530708625E0,-1.416028868E1,-2.793015235E0,-2.785987057E1,3.137653738E1
9.540743625E0,-2.084312057E1,-6.984274564E0,-4.184129994E1,4.726425867E1
9.550777625E0,-2.156500612E1,-1.137096334E1,-4.236040639E1,4.887486395E1
9.560811625E0,-1.311597597E1,-1.312273886E1,-3.850121834E1,4.273849452E1
9.570845625E0,-2.616383421E-1,-1.466963847E1,-3.907533305E1,4.173905127E1
9.580880625E0,9.913313284E0,-1.298429433E1,-3.144112410E1,3.543176490E1
9.590914625E0,9.879791197E0,-6.268875915E0,-1.598648523E1,1.981102696E1
9.600948625E0,7.840159001E0,-8.248990180E-1,-3.132870319E0,8.483126074E0
9.610983625E0,7.693769279E0,6.189814250E-1,2.524880928E0,8.121098905E0
9.621017625E0,7.026343526E0,9.315224107E-1,2.933927577E0,7.671060447E0
9.631051625E0,5.312221148E0,7.255972163E-1,2.958024538E0,6.123405426E0
9.641085625E0,3.761577564E0,2.206305031E-1,3.791963789E0,5.345758409E0
9.651120625E0,2.546543985E0,1.339754981E-1,5.303254443E0,5.884500267E0
9.661154625E0,1.767359523E0,5.205416492E-1,6.781922311E0,7.027730325E0
9.671188625E0,1.124162585E0,7.716611427E-1,7.609641294E0,7.730837152E0
9.681223625E0,-1.554852118E-1,1.058511509E0,7.362190052E0,7.439520457E0
9.691257625E0,-2.312488275E0,1.195636318E0,6.559522294E0,7.057228985E0
9.701291625E0,-5.640560433E0,1.230971334E0,5.316373841E0,7.848250967E0
9.711325625E0,-1.033749604E1,1.284997560E0,3.882934771E0,1.111720403E1
9.721360625E0,-1.566877911E1,1.464227584E0,2.875674691E0,1.599762814E1
9.731394625E0,-2.015440043E1,1.801372630E0,2.481050785E0,2.038628002E1
9.741428625E0,-2.229424513E1,1.906684638E0,2.962163782E0,2.257084904E1
9.751462625E0,-2.284392316E1,1.870962390E0,3.628564517E0,2.320585715E1
9.761497625E0,-2.244552897E1,2.010685555E0,4.765413514E0,2.303375334E1
9.771531625E0,-2.083594019E1,2.202423357E0,6.281272597E0,2.187330468E1
9.781565625E0,-1.840128706E1,2.253498055E0,7.645397603E0,2.005337187E1
9.791600625E0,-1.516146766E1,2.200544355E0,8.834034219E0,1.768481432E1
9.801634625E0,-1.178417320E1,2.109996420E0,9.694794064E0,1.540479974E1
9.811668625E0,-9.229345173E0,1.871385436E0,1.024522463E1,1.391572936E1
9.821702625E0,-7.520130948E0,1.501021188E0,1.118636089E1,1.356245199E1
9.831737625E0,-4.588287903E0,1.219912934E0,1.507790627E1,1.580771429E1
9.841771625E0,-1.321140370E0,1.026809660E0,1.974104672E1,1.981183171E1
9.851805625E0,-2.694956551E0,5.205521742E-1,1.394685713E1,1.421437966E1
9.861840625E0,-1.730564164E0,5.891370901E-1,7.389633374E0,7.612398849E0
9.871874625E0,1.123967580E1,1.369648286E0,1.203026029E1,1.652069645E1
9.881908625E0,2.322699297E1,8.673145741E-2,5.531322166E0,2.387668841E1
9.891942625E0,3.589415538E1,-3.252487394E0,-1.750027791E1,4.006530658E1
9.901977625E0,4.481764498E1,-7.587793173E0,-3.188987451E1,5.552621005E1
9.912011625E0,4.307338780E1,-1.755748823E1,-2.882278770E1,5.472051920E1
9.922045625E0,2.855629968E1,-1.933404192E1,-1.932766495E1,3.953259491E1
9.932080625E0,1.416524128E1,-8.865836640E0,-2.179029466E1,2.746040898E1
9.942114625E0,-1.058052269E1,-5.677146462E0,-2.074209238E1,2.396689067E1
9.952148625E0,-2.847036432E1,-3.976853918E0,-8.213166336E0,2.989704188E1
9.962182625E0,-1.892106126E1,-3.016507219E0,-1.575959104E0,1.922471124E1
9.972217625E0,-8.421244183E0,-3.243217803E0,-1.768875121E0,9.195908574E0
9.982251625E0,-1.740590385E-1,-2.963175935E0,-5.472303879E-1,3.018305695E0
9.992285625E0,4.442836075E0,-1.460687533E0,5.858532354E0,7.496319217E0
1.000231963E1,5.981265995E0,2.107598184E-1,9.796572454E0,1.148010429E1
1.001235463E1,5.112938098E0,1.450409298E0,1.041223164E1,1.169018352E1
1.002238863E1,2.845275894E0,2.123714280E0,1.031324646E1,1.090728242E1
1.003242263E1,6.724340393E-1,2.335183512E0,1.000294525E1,1.029388961E1
1.004245763E1,-7.200394379E-1,2.429985004E0,9.676069525E0,1.000247996E1
1.005249162E1,-1.676592171E0,2.466247096E0,9.264465305E0,9.732607740E0
1.006252563E1,-2.824686094E0,2.529527126E0,8.860053159E0,9.637318143E0
1.007255962E1,-4.486259837E0,2.588183177E0,8.763962356E0,1.017999291E1
1.008259463E1,-6.766252942E0,2.448853969E0,8.303040379E0,1.098724461E1
1.009262863E1,-9.622637669E0,2.593358256E0,6.989213122E0,1.217250027E1
1.010266263E1,-1.270136745E1,2.967081582E0,5.684114004E0,1.422805188E1
1.011269675E1,-1.550526523E1,3.314790354E0,4.512045473E0,1.648513389E1
1.012273075E1,-1.804435314E1,3.326279256E0,3.637789670E0,1.870551596E1
1.013276475E1,-2.015566343E1,3.240306475E0,3.337640980E0,2.068550704E1
1.014279875E1,-2.096593549E1,3.085028985E0,3.267219454E0,2.144207494E1
1.015283375E1,-1.906014898E1,2.450273380E0,2.946722454E0,1.944161238E1
1.016286775E1,-1.662178872E1,1.609308553E0,3.215216657E0,1.700621511E1
1.017290175E1,-1.399775831E1,1.172047188E0,3.760932031E0,1.454151100E1
1.018293675E1,-1.158661683E1,1.219133646E0,3.920266027E0,1.229245550E1
1.019297075E1,-9.963952510E0,1.443376998E0,4.005219053E0,1.083538031E1
1.020300475E1,-8.877219999E0,1.740703967E0,4.109906141E0,9.936116631E0
1.021303875E1,-8.232770880E0,1.903789682E0,4.118228483E0,9.400145603E0
1.022307375E1,-7.598625725E0,1.950219352E0,3.343284128E0,8.527603250E0
1.023310775E1,-1.705882482E0,2.650063091E0,-8.657603842E-1,3.268395703E0
1.024314175E1,2.824521611E1,4.353937932E0,-1.137230819E1,3.075838752E1
1.025317675E1,6.225417771E1,9.757332082E-1,-7.751883586E0,6.274254057E1
1.026321075E1,6.219204753E1,-7.263169209E0,-9.739908257E0,6.336773798E1
1.027324475E1,3.730935464E1,-1.423735265E1,-2.599805863E1,4.765069996E1
1.028327875E1,5.334658669E0,-1.130330637E1,-2.899957242E1,3.157845023E1
1.029331375E1,-3.008899524E1,-8.118614520E0,-1.831327126E1,3.614741264E1
1.030334775E1,-3.696378887E1,-6.562607285E0,-4.571376586E0,3.781913519E1
1.031338175E1,-2.210078181E1,-7.233267717E0,-1.281898653E1,2.655355220E1
1.032341575E1,-5.547313131E0,-4.960761972E0,-1.671785613E1,1.829941409E1
1.033345075E1,2.036278525E0,-1.229155043E0,-5.660856704E0,6.140240302E0
1.034348475E1,6.377677395E0,1.290561917E0,2.062820499E0,6.826093131E0
1.035351875E1,6.974125552E0,2.035987480E0,5.531815671E0,9.131519963E0
1.036355375E1,5.605951933E0,1.969200875E0,7.879533566E0,9.868713107E0
1.037358775E1,5.247872540E0,2.227516976E0,9.421608056E0,1.101220670E1
1.038362175E1,4.113549541E0,2.366546515E0,9.938596644E0,1.101351604E1
1.039365575E1,2.489377220E0,2.431902452E0,9.988268741E0,1.057717642E1
1.040369075E1,1.073708642E0,2.601675335E0,9.938864447E0,1.032969464E1
1.041372475E1,-3.201786187E-1,2.786560201E0,9.690321529E0,1.008810009E1
1.042375875E1,-1.915476073E0,2.950238970E0,9.247765657E0,9.894146159E0
1.043379375E1,-3.739225997E0,3.106202922E0,8.678177855E0,9.946913015E0
1.044382775E1,-5.834663435E0,3.112842436E0,8.297548674E0,1.061048535E1
1.045386175E1,-8.078187456E0,3.105175859E0,8.096266462E0,1.185110798E1
1.046389575E1,-1.069123036E1,3.082523453E0,8.048377765E0,1.373247036E1
1.047393075E1,-1.314766086E1,3.043761091E0,8.168187214E0,1.577481379E1
1.048396475E1,-1.513258943E1,2.875130900E0,8.434165360E0,1.756122962E1
1.049399875E1,-1.619332581E1,2.450045193E0,8.750279287E0,1.856862703E1
1.050403375E1,-1.489555734E1,1.992640316E0,9.229111869E0,1.763589379E1
1.051406775E1,-1.252926986E1,1.644869710E0,9.321099097E0,1.570258221E1
1.052410175E1,-1.047938691E1,1.244755999E0,9.096866562E0,1.393269352E1
1.053413575E1,-8.833174093E0,8.351040173E-1,8.856100441E0,1.253606311E1
1.054417075E1,-7.635768408E0,5.743595682E-1,8.575632311E0,1.149679597E1
1.055420475E1,-6.855630557E0,5.178852591E-1,8.343420081E0,1.081113010E1
1.056423875E1,-6.281387787E0,6.559027912E-1,8.015883619E0,1.020492191E1
1.057427375E1,-5.807570361E0,9.026060289E-1,7.022760352E0,9.157605261E0
1.058430775E1,-5.041326663E0,7.724372144E-1,4.360851095E0,6.710339488E0
1.059434175E1,-3.694844461E0,4.006788446E-1,-3.166091859E-2,3.716641164E0
1.060437575E1,4.601471035E0,-1.361226980E0,-1.956046599E1,2.014046435E1
1.061441075E1,2.272008849E1,-3.520342788E0,-4.137675503E1,4.733530491E1
1.062444475E1,3.620600142E1,-9.181258256E0,-4.303282216E1,5.698239926E1
1.063447875E1,2.353455885E1,-1.207126798E1,-3.390950046E1,4.300517634E1
1.064451275E1,-2.083290431E1,-1.345161433E1,-2.706836105E1,3.671038001E1
1.065454775E1,-3.838686551E1,-8.077988650E0,-1.351544839E1,4.149063375E1
1.066458175E1,-2.681613088E1,-2.170477679E0,-1.867204238E1,3.274845058E1
1.067461575E1,-7.608853090E-1,-1.341974584E0,-2.667062409E1,2.671520226E1
1.068465075E1,1.217110100E1,-6.910968898E-1,-1.324005739E1,1.799756746E1
1.069468475E1,1.363461230E1,-1.918060689E-1,-4.114067019E0,1.424306813E1
1.070471875E1,1.047218899E1,7.962799671E-1,-8.489782906E-1,1.053667728E1
1.071475275E1,4.130846774E0,1.122270572E0,7.382483983E-1,4.343776813E0
1.072478775E1,8.091903269E-1,1.292933986E0,4.329196023E0,4.590033277E0
1.073482175E1,1.564471080E0,2.123018754E0,7.246423953E0,7.711383695E0
1.074485575E1,2.912107815E0,2.663747915E0,8.793223577E0,9.638293716E0
1.075489075E1,3.010539258E0,2.209060093E0,9.693735133E0,1.038806016E1
1.076492475E1,2.206190426E0,1.548052537E0,1.026860063E1,1.061639778E1
1.077495875E1,7.776282263E-1,1.092876619E0,1.104378004E1,1.112493428E1
1.078499275E1,-9.937296224E-1,6.271887231E-1,1.184899777E1,1.190712444E1
1.079502775E1,-2.912406315E0,2.565992848E-1,1.261890417E1,1.295317321E1
1.080506175E1,-4.709597747E0,3.042949498E-2,1.356316634E1,1.435760141E1
1.081509575E1,-6.075327229E0,-7.172494389E-2,1.464655483E1,1.585674348E1
1.082513075E1,-6.862340237E0,-1.225641816E-1,1.533452887E1,1.680043188E1
1.083516475E1,-7.136803277E0,-7.638740402E-2,1.571191519E1,1.725700075E1
1.084519875E1,-6.451416632E0,-1.466192797E-1,1.551781569E1,1.680609644E1
1.085523275E1,-5.474322338E0,-2.248962845E-1,1.477273073E1,1.575602604E1
1.086526775E1,-5.036626087E0,-2.496726914E-1,1.375384288E1,1.464916833E1
1.087530175E1,-4.898667465E0,-2.839612208E-1,1.262477126E1,1.354483024E1
1.088533575E1,-4.946547976E0,-2.775384564E-1,1.137170710E1,1.240407541E1
1.089537075E1,-4.786223170E0,-1.981865506E-1,1.026368663E1,1.132653846E1
1.090540475E1,-4.347527044E0,-5.685028508E-2,9.572828747E0,1.051395613E1
1.091543875E1,-3.778606995E0,7.361673743E-2,9.273392249E0,1.001394498E1
1.092547275E1,-3.420636359E0,8.911580577E-2,9.175259013E0,9.792551899E0
1.093550775E1,-3.313235579E0,3.086423546E-2,8.968452351E0,9.560942432E0
1.094554175E1,-4.224765044E0,-5.249821709E-1,6.739455153E0,7.971480522E0
1.095557575E1,-6.792333863E0,-1.505624848E0,2.966442189E0,7.563232427E0
1.096560975E1,-1.071704348E1,-3.839956566E0,-4.760955597E0,1.233965095E1
1.097564475E1,-1.306454152E1,-7.688632500E0,-2.968982687E1,3.333591359E1
1.098567875E1,-1.101955503E1,-1.298991234E1,-6.093060665E1,6.326695221E1
1.099571275E1,-1.130304793E1,-1.658938813E1,-5.475085751E1,5.831486164E1
1.100574775E1,-2.242691377E1,-1.253288461E1,-3.412749635E1,4.271680776E1
1.101578175E1,-1.920090550E1,-4.453184477E0,-3.052340126E1,3.633433154E1
1.102581575E1,4.960515804E0,-8.866957551E-1,-4.006070116E1,4.037638819E1
1.103584975E1,2.408167346E1,-7.836078814E-1,-2.710677726E1,3.626731878E1
1.104588475E1,2.667204613E1,-1.447123601E0,-1.406426454E1,3.018767544E1
1.105591875E1,1.626774683E1,8.208970374E-1,-7.161252240E0,1.779317264E1
1.106595275E1,8.011789983E0,4.316121649E0,-4.341672227E0,1.008304530E1
1.107598775E1,2.266766703E0,4.700585141E0,-2.705727707E0,5.878324114E0
1.108602175E1,-9.830856434E-1,3.285859208E0,-1.580268502E-1,3.433409472E0
1.109605575E1,-1.636960474E0,2.491516716E0,2.563472552E0,3.931753637E0
1.110609013E1,-9.262311190E-1,2.638882045E0,5.369683490E0,6.054345821E0
1.111612513E1,-2.562960336E-1,2.837760175E0,7.738877624E0,8.246744652E0
1.112615913E1,-6.414446734E-2,3.039172196E0,8.915512830E0,9.419503765E0
1.113619312E1,-4.983396251E-1,3.278957155E0,9.373065641E0,9.942548059E0
1.114622713E1,-1.411799987E0,3.361204382E0,9.716824619E0,1.037822503E1
1.115626213E1,-2.682325981E0,3.460860525E0,9.989469759E0,1.090696724E1
1.116629613E1,-4.550283925E0,3.633149904E0,9.908098737E0,1.149240108E1
1.117633013E1,-7.185774878E0,3.772987821E0,9.678500798E0,1.263107974E1
1.118636513E1,-9.792209846E0,3.944854445E0,9.504418663E0,1.420504222E1
1.119639913E1,-1.171187472E1,4.221625382E0,9.397480690E0,1.559816571E1
1.120643313E1,-1.295502668E1,4.142713113E0,9.144528387E0,1.638954507E1
1.121646713E1,-1.327760237E1,3.736587149E0,8.528647009E0,1.621710911E1
1.122650213E1,-1.288941975E1,3.049272677E0,7.730149485E0,1.533591916E1
1.123653612E1,-1.234278110E1,1.878052431E0,6.437738240E0,1.404691425E1
1.124657013E1,-1.185486955E1,7.249072449E-1,4.987795989E0,1.288182950E1
1.125660513E1,-1.120012524E1,5.699851200E-2,3.788340855E0,1.182360269E1
1.126663913E1,-1.047865016E1,-3.533288231E-1,2.482995569E0,1.077460985E1
1.127667313E1,-9.557465188E0,-5.669488071E-1,7.838303679E-1,9.606298029E0
1.128670713E1,-8.235317343E0,-7.167138340E-1,-1.286855221E0,8.366010209E0
1.129674213E1,-6.378579621E0,-8.658228032E-1,-3.364745749E0,7.263431769E0
1.130677612E1,-3.789923111E0,-1.113399761E0,-5.502556204E0,6.773573724E0
1.131681013E1,-3.750778341E-1,-1.775947913E0,-8.711350279E0,8.898443575E0
1.132684513E1,4.004194329E0,-2.526816357E0,-1.246112758E1,1.333034409E1
1.133687913E1,7.158587079E0,-3.200363852E0,-1.571335594E1,1.756124291E1
1.134691313E1,7.995767443E0,-3.268589749E0,-1.696986294E1,1.904185454E1
1.135694713E1,4.395035672E0,-2.083317329E0,-2.136567922E1,2.191229787E1
1.136698213E1,-1.036915754E1,-2.685989554E0,-2.346878001E1,2.579762786E1
1.137701612E1,-2.197027196E1,-2.270889283E0,-2.205875670E1,3.121599807E1
1.138705013E1,-2.071477185E1,-1.833991469E0,-3.307364799E1,3.906829263E1
1.139708513E1,-2.804249783E0,-3.551758124E0,-4.357575718E1,4.381010633E1
1.140711913E1,1.459657517E1,-2.685156325E0,-2.578246945E1,2.974904708E1
1.141715313E1,2.222425864E1,3.767839055E-1,-1.036864766E1,2.452689325E1
1.142718713E1,1.907283861E1,1.297788345E0,-1.932367948E0,1.921435591E1
1.143722213E1,1.194933833E1,7.570008574E-1,2.264918983E-1,1.197543467E1
1.144725613E1,5.876063476E0,-3.061075866E-1,-2.173433447E-1,5.888043984E0
1.145729013E1,1.612857082E0,-1.035132879E0,-1.209736294E-1,1.920271507E0
1.146732513E1,-1.151357692E-1,-8.125969148E-1,2.295518047E0,2.437821383E0
1.147735912E1,-5.758700502E-1,-5.489380673E-1,5.501980838E0,5.559204300E0
1.148739313E1,-9.136449873E-2,1.625495254E-1,7.813835421E0,7.816059992E0
1.149742713E1,2.182310982E-1,8.851612996E-1,8.912082853E0,8.958591191E0
1.150746213E1,-8.837028578E-2,1.433671058E0,9.409794926E0,9.518795226E0
1.151749613E1,-1.052791471E0,1.838868923E0,9.569416312E0,9.801200812E0
1.152753013E1,-2.445812539E0,2.201233595E0,9.604807169E0,1.015281976E1
1.153756513E1,-4.100447100E0,2.528524913E0,9.479796038E0,1.063360887E1
1.154759912E1,-5.757873706E0,2.937987591E0,9.112204394E0,1.117215958E1
1.155763313E1,-7.123745275E0,3.375664839E0,8.766341003E0,1.178946964E1
1.156766713E1,-8.025594674E0,3.857758999E0,8.396049115E0,1.223871379E1
1.157770213E1,-8.602393262E0,4.266169471E0,7.828059357E0,1.238869990E1
1.158773613E1,-8.940533066E0,4.416190313E0,7.052999813E0,1.221395410E1
1.159777013E1,-9.093940031E0,4.461743924E0,6.482164215E0,1.202602832E1
1.160780413E1,-9.007900007E0,4.157405120E0,6.187746967E0,1.169249727E1
1.161783912E1,-8.784959707E0,3.651896077E0,5.778516131E0,1.113117742E1
1.162787313E1,-8.419554922E0,3.122089223E0,5.321688960E0,1.043823355E1
1.163790712E1,-8.088804245E0,2.538988213E0,4.658910574E0,9.673709888E0
1.164794213E1,-7.816616356E0,2.027758401E0,3.670107815E0,8.870230367E0
1.165797613E1,-7.531951094E0,1.674823096E0,2.305102218E0,8.052876252E0
1.166801013E1,-6.907996466E0,1.423684745E0,5.998319399E-1,7.078636294E0
1.167804413E1,-5.894129618E0,1.243573546E0,-1.768523703E0,6.278129913E0
1.168807913E1,-4.799509798E0,1.081448382E0,-5.135049344E0,7.111508748E0
1.169811313E1,-3.532859338E0,5.590180823E-1,-9.695035554E0,1.033379459E1
1.170814712E1,-1.724357929E0,-6.592183086E-1,-1.755682633E1,1.765361520E1
1.171818212E1,2.065072116E-1,-2.730802907E0,-2.872616831E1,2.885641481E1
1.172821613E1,-3.595047693E0,-5.473923558E0,-3.389215528E1,3.451907293E1
1.173825013E1,-1.728233932E1,-8.685709069E0,-3.038693192E1,3.602063889E1
1.174828413E1,-1.871065038E1,-1.010236195E1,-3.095700037E1,3.755638463E1
1.175831913E1,1.186881165E1,-1.086934825E1,-5.752144604E1,5.973046271E1
1.176835313E1,3.303500959E1,-1.014764630E1,-4.829406260E1,5.938520916E1
1.177838712E1,1.919170783E1,-7.056487677E0,-2.173497065E1,2.984165908E1
1.178842212E1,8.632391818E0,-2.328327067E0,-5.338910179E0,1.041360924E1
1.179845613E1,3.260957671E0,6.234168305E-1,-1.937542734E0,3.844029828E0
1.180849013E1,-8.695242369E-1,1.191005469E0,-1.673205317E0,2.230287528E0
1.181852413E1,-3.629151870E0,8.273601110E-1,-1.221089247E0,3.917438832E0
1.182855913E1,-4.720301660E0,7.398249538E-1,1.654087261E0,5.056144123E0
1.183859313E1,-3.460887715E0,1.428264576E0,6.037836052E0,7.104445627E0
1.184862713E1,-2.293241141E0,2.241786959E0,8.861511455E0,9.423956121E0
1.185866113E1,-2.400864847E0,2.675411356E0,1.021353857E1,1.082766587E1
1.186869613E1,-3.315761284E0,3.048620127E0,1.089786629E1,1.179202473E1
1.187873012E1,-4.977099677E0,3.551096511E0,1.108811363E1,1.266207217E1
1.188876413E1,-7.752067773E0,4.080627378E0,1.061345070E1,1.376195518E1
1.189879913E1,-1.082987018E1,4.610795006E0,9.721445088E0,1.526604118E1
1.190883313E1,-1.322301744E1,5.144421262E0,8.508252506E0,1.654399048E1
1.191886713E1,-1.527199173E1,5.535754940E0,7.423464779E0,1.786018319E1
1.192890113E1,-1.697382385E1,5.832102354E0,6.357603319E0,1.904056811E1
1.193893613E1,-1.747761761E1,5.940247777E0,4.906304514E0,1.910040536E1
1.194897012E1,-1.755973590E1,5.595262638E0,3.625495314E0,1.878285136E1
1.195900413E1,-1.744010655E1,4.897965800E0,2.462693451E0,1.828147271E1
1.196903913E1,-1.675469827E1,4.030305655E0,1.635439321E0,1.731005314E1
1.197907313E1,-1.536029170E1,3.183652217E0,1.275698149E0,1.573853895E1
1.198910713E1,-1.386504756E1,2.596269584E0,1.204705349E0,1.415738234E1
1.199914113E1,-1.274384747E1,2.144311389E0,1.145734718E0,1.297368212E1
1.200917613E1,-1.138364478E1,2.011409586E0,1.331968828E0,1.163646329E1
1.201921012E1,-9.916376055E0,2.167944373E0,1.448737433E0,1.025345488E1
1.202924413E1,-8.729560847E0,2.258096306E0,1.007758408E0,9.073026426E0
1.203927913E1,-7.867216406E0,2.027662214E0,4.277749881E-1,8.135570016E0
1.204931313E1,-6.767377362E0,1.592904920E0,-6.176307182E-1,6.979699861E0
1.205934713E1,-1.359627328E0,1.386927832E0,-4.548564551E0,4.945866431E0
1.206938113E1,1.379619894E1,1.007259495E0,-1.470094563E1,2.018582372E1
1.207941613E1,3.012356164E1,-3.373333554E0,-2.038443925E1,3.652853280E1
1.208945013E1,3.974860485E1,-9.216125203E0,-2.208764195E1,4.639776372E1
1.209948413E1,4.562543080E1,-9.709436077E0,-2.080325893E1,5.107571504E1
1.210952000E1,7.059616639E1,-2.619235401E0,2.099708711E1,7.369909613E1
1.211955400E1,6.873561512E1,6.520869275E0,2.452280145E1,7.326987316E1
1.212958800E1,1.725689691E1,6.572172160E0,-6.102265352E0,1.944817679E1
1.213962200E1,-2.734632131E1,7.331065761E-1,-1.863077507E1,3.309780226E1
1.214965700E1,-3.123437591E1,-6.841860949E0,-2.852063167E1,4.284651363E1
1.215969100E1,-1.523842871E1,-5.887028174E0,-3.248428374E1,3.636063119E1
1.216972500E1,-5.134383346E0,-3.499446009E0,-1.683476185E1,1.794483829E1
1.217976000E1,-1.937575625E0,-2.263603359E0,-3.046872395E0,4.261634764E0
1.218979400E1,5.624980527E-1,-1.329743232E0,4.567401064E0,4.790174694E0
1.219982800E1,1.764705764E0,-6.399445702E-1,9.059443213E0,9.251876934E0
1.220986200E1,1.854549109E0,-7.543872982E-2,1.091057696E1,1.106732728E1
1.221989700E1,1.493986257E0,2.680327110E-1,1.119803427E1,1.130043397E1
1.222993100E1,6.518848038E-1,4.697903024E-1,1.101735648E1,1.104661941E1
1.223996500E1,-5.229907189E-1,6.970782260E-1,1.094333307E1,1.097797686E1
1.225000000E1,-1.769248758E0,9.221290049E-1,1.110038226E1,1.127825560E1
1.226003400E1,-3.480246677E0,1.271741484E0,1.161263227E1,1.218944919E1
1.227006800E1,-5.509890951E0,1.665368002E0,1.183132983E1,1.315723050E1
1.228010200E1,-7.435230546E0,2.090589657E0,1.202267645E1,1.428978542E1
1.229013700E1,-9.195568732E0,2.665613469E0,1.228820670E1,1.557767644E1
1.230017100E1,-1.063563854E1,3.344193370E0,1.258827177E1,1.681561842E1
1.231020500E1,-1.126519890E1,3.902534637E0,1.240776940E1,1.720718525E1
1.232023900E1,-1.066797599E1,4.386791682E0,1.192731655E1,1.659248423E1
1.233027400E1,-9.611184728E0,4.718602459E0,1.134270842E1,1.559798434E1
1.234030800E1,-8.033332880E0,4.743244088E0,1.100584916E1,1.442780362E1
1.235034200E1,-6.348547152E0,4.309549963E0,1.128516597E1,1.364665684E1
1.236037700E1,-5.105374725E0,3.542737040E0,1.177250450E1,1.331193821E1
1.237041100E1,-4.111323798E0,3.046023379E0,1.194969267E1,1.299909215E1
1.238044500E1,-3.134624484E0,2.695682191E0,1.193094650E1,1.262695757E1
1.239047900E1,-2.220264382E0,2.495872307E0,1.151175610E1,1.198663760E1
1.240051400E1,-1.380863246E0,2.300220524E0,1.086828990E1,1.119453095E1
1.241054800E1,-6.356065209E-1,2.107057609E0,9.206422334E0,9.465827994E0
1.242058200E1,6.462067189E-1,2.058228973E0,7.542833347E0,7.845267652E0
1.243061700E1,1.548207780E0,1.956010142E0,6.667064869E0,7.118474343E0
1.244065100E1,1.674588330E0,1.279926709E0,2.235326225E0,3.072318633E0
1.245068500E1,5.100702800E0,-1.633446590E0,-1.421776681E1,1.519309745E1
1.246071900E1,1.335662865E1,-1.012932112E1,-4.742968976E1,5.030485212E1
1.247075400E1,2.845755073E0,-1.864205669E1,-5.527975921E1,5.840784518E1
1.248078800E1,-2.336369619E1,-1.797198449E1,-3.324641217E1,4.443172795E1
1.249082200E1,-3.617926561E1,-7.469801039E0,-2.224414151E1,4.312237261E1
1.250085700E1,-2.659392031E1,-4.160783933E0,-4.326995716E1,5.095917889E1
1.251089100E1,-2.670070801E0,-3.253653621E0,-3.827158648E1,3.850233593E1
1.252092500E1,6.688732896E0,-2.246330684E0,-1.689577053E1,1.830989381E1
1.253095900E1,5.994414629E0,-7.377446607E-1,-7.909570713E0,9.951813040E0
1.254099400E1,2.277581128E0,3.493978132E-1,-4.485100919E-1,2.347470113E0
1.255102800E1,2.364470753E-1,7.702825885E-1,3.975023739E0,4.055866888E0
1.256106200E1,-7.018649760E-1,9.134950063E-1,6.127667996E0,6.235014245E0
1.257109700E1,-7.870741108E-1,9.177268555E-1,8.436314796E0,8.522506414E0
1.258113100E1,-1.608245529E0,5.706379616E-1,1.027815849E1,1.041885902E1
1.259116500E1,-2.498146581E0,2.833001565E-1,1.134423571E1,1.161949565E1
1.260119900E1,-3.348164799E0,1.582824466E-1,1.199395960E1,1.245352672E1
1.261123400E1,-4.685450501E0,2.218486609E-1,1.253038434E1,1.337958127E1
1.262126800E1,-6.344105607E0,7.788670320E-1,1.315126976E1,1.462225038E1
1.263130200E1,-7.934096859E0,2.194819638E0,1.382576363E1,1.609095604E1
1.264133600E1,-9.171084686E0,3.693151692E0,1.446360013E1,1.751981428E1
1.265137100E1,-9.868568051E0,4.685145861E0,1.472180148E1,1.833223025E1
1.266140500E1,-9.630552460E0,5.465132854E0,1.452458191E1,1.826413692E1
1.267143900E1,-8.444339515E0,6.079755911E0,1.404959154E1,1.748317260E1
1.268147400E1,-6.451194438E0,6.066554652E0,1.368214666E1,1.629791803E1
1.269150800E1,-4.205167516E0,5.787044295E0,1.266213029E1,1.454313787E1
1.270154200E1,-1.732256348E0,5.493992372E0,1.165808735E1,1.300367890E1
1.271157600E1,1.787341797E-1,5.166821945E0,1.101514740E1,1.216805108E1
1.272161100E1,1.410349439E0,4.722630899E0,1.039952798E1,1.150836697E1
1.273164500E1,2.137680939E0,4.179099752E0,9.694463696E0,1.077112719E1
1.274167900E1,2.571283555E0,3.714601910E0,9.149528925E0,1.020409947E1
1.275171400E1,2.833109885E0,3.307334569E0,8.851458337E0,9.864749782E0
1.276174800E1,3.504578987E0,2.804801760E0,7.769114746E0,8.972632319E0
1.277178200E1,5.278820098E0,2.394733310E0,5.437617027E0,7.947853055E0
1.278181600E1,5.972156618E0,2.173987763E0,2.583233217E0,6.860464366E0
1.279185100E1,4.342873830E0,1.435920044E0,6.691787481E-1,4.622793492E0
1.280188500E1,1.727362229E0,-5.883585334E-1,-2.859782544E0,3.392388868E0
1.281191900E1,-6.495908681E-1,-3.951241359E0,-6.718962416E0,7.821683484E0
1.282195400E1,-5.444867574E0,-7.920022026E0,-1.153789900E1,1.501653906E1
1.283198800E1,-1.839882071E1,-6.322135279E0,-1.544354553E1,2.483926521E1
1.284202200E1,-1.979075273E1,-4.452143088E-1,-2.307086763E1,3.039962241E1
1.285205600E1,-1.722108973E1,-1.665332918E0,-5.341127443E1,5.614359716E1
1.286209100E1,-2.360201467E1,-4.122917072E0,-6.289374616E1,6.730287399E1
1.287212500E1,-1.865523515E1,-5.188019271E0,-4.390494607E1,4.798518138E1
1.288215900E1,7.472753298E-1,1.031537938E0,-2.271521893E1,2.275090464E1
1.289219400E1,1.288323807E1,6.375313366E0,-7.159247230E0,1.605855737E1
1.290222800E1,1.219371569E1,5.819545459E0,7.331402707E-1,1.353112362E1
1.291226200E1,7.109481577E0,3.454067523E0,3.107178238E0,8.492930434E0
1.292229600E1,8.734939116E-1,1.344416089E0,2.046786264E0,2.599957739E0
1.293233100E1,-3.160843399E0,2.715884028E-1,4.084384214E0,5.171739133E0
1.294236500E1,-2.912647220E0,5.241735010E-1,7.901847711E0,8.437859262E0
1.295239900E1,-2.677802575E0,7.453375626E-1,9.649499778E0,1.004186241E1
1.296243300E1,-3.121709738E0,6.142408680E-1,1.040891860E1,1.088429833E1
1.297246800E1,-3.229556369E0,6.400342519E-1,1.096127817E1,1.144505558E1
1.298250200E1,-3.452170686E0,1.185729015E0,1.159039297E1,1.215156965E1
1.299253600E1,-4.169143405E0,2.050403937E0,1.221237533E1,1.306629344E1
1.300257100E1,-5.314832515E0,2.888564293E0,1.282127162E1,1.417660941E1
1.301260500E1,-6.402115248E0,3.771173429E0,1.314019046E1,1.509547727E1
1.302263900E1,-7.323187954E0,4.757993397E0,1.317514394E1,1.580670747E1
1.303267300E1,-7.840749570E0,5.689334983E0,1.319496484E1,1.636926948E1
1.304270800E1,-7.531181601E0,6.403276505E0,1.297487330E1,1.631159046E1
1.305274200E1,-6.239039328E0,7.063338275E0,1.259576556E1,1.573116873E1
1.306277600E1,-4.935689111E0,6.983167101E0,1.252180998E1,1.516315848E1
1.307281100E1,-3.556009927E0,6.414009655E0,1.243962620E1,1.444053414E1
1.308284500E1,-1.817052377E0,5.687755065E0,1.210213192E1,1.349495588E1
1.309287900E1,-5.418044642E-2,5.113100066E0,1.178643257E1,1.284782941E1
1.310291300E1,1.567762331E0,4.641752212E0,1.123401921E1,1.225589368E1
1.311294788E1,2.874513142E0,4.201138785E0,1.039053496E1,1.157046281E1
1.312298187E1,3.743474000E0,3.698284963E0,9.621154230E0,1.096619888E1
1.313301588E1,4.407277695E0,3.433125135E0,8.660947865E0,1.030642823E1
1.314305088E1,4.998197601E0,3.494342852E0,7.845599835E0,9.937094545E0
1.315308487E1,5.622514172E0,3.499491325E0,6.826306770E0,9.510918424E0
1.316311888E1,5.095470711E0,3.025297923E0,4.118041956E0,7.216267653E0
1.317315288E1,1.730450143E0,1.511828305E0,-1.489127952E0,2.738171758E0
1.318318788E1,-6.413278168E0,-1.779671127E0,-9.598060652E0,1.167990302E1
1.319322188E1,-2.288852806E1,-1.130174400E1,-3.787670998E1,4.567558749E1
1.320325588E1,-3.534465978E1,-2.153482513E1,-5.604378915E1,6.966993592E1
1.321329088E1,-3.213762571E1,-1.598375692E1,-3.522394518E1,5.028949976E1
1.322332487E1,-2.865747990E1,5.021805149E0,-1.187907702E1,3.142581983E1
1.323335888E1,-3.696098455E1,8.897539074E0,-2.102957191E1,4.344563816E1
1.324339288E1,-2.961213843E1,3.335748821E-1,-2.279350613E1,3.737022794E1
1.325342788E1,-9.843153713E0,-2.408028270E0,-1.390392804E1,1.720481009E1
1.326346188E1,6.706981471E0,-2.551122063E0,-1.117152650E1,1.327760628E1
1.327349588E1,8.701598877E0,-1.038632292E0,-6.359229430E0,1.082757494E1
1.328352987E1,1.116189965E1,-4.040426016E-3,1.096823051E0,1.121566052E1
1.329356487E1,1.568224407E1,1.451235071E-2,2.201577850E0,1.583603280E1
1.330359888E1,1.748749706E1,5.324827964E-1,1.774546335E0,1.758536625E1
1.331363288E1,1.525638668E1,9.259777884E-1,2.208837168E0,1.544324225E1
1.332366788E1,1.308192529E1,9.178843649E-1,3.309849749E0,1.352532389E1
1.333370188E1,1.179916663E1,5.177768298E-1,2.998234085E0,1.218514808E1
1.334373588E1,1.020943149E1,-4.424027117E-2,3.756395761E0,1.087864686E1
1.335376988E1,9.593982219E0,-6.029128013E-1,4.836385848E0,1.076097703E1
1.336380487E1,9.493814152E0,-1.079818398E0,5.237813575E0,1.089647677E1
1.337383888E1,9.404090967E0,-1.463949841E0,5.696039400E0,1.109166087E1
1.338387287E1,9.080104934E0,-1.828798703E0,5.858905406E0,1.095990798E1
1.339390787E1,8.801873948E0,-2.155470654E0,6.160211844E0,1.095752019E1
1.340394188E1,8.689799196E0,-2.509193726E0,6.552189301E0,1.116869947E1
1.341397588E1,8.645934554E0,-2.928993697E0,7.534197010E0,1.183618659E1
1.342400988E1,8.540694028E0,-3.323120297E0,9.357881007E0,1.309795862E1
1.343404488E1,8.040793342E0,-3.576543302E0,1.114679512E1,1.420200905E1
1.344407888E1,7.665684518E0,-3.596108962E0,1.221502295E1,1.486275561E1
1.345411287E1,7.480673937E0,-3.395948246E0,1.234081527E1,1.482527128E1
1.346414787E1,7.301233998E0,-3.433105254E0,1.135540039E1,1.392980070E1
1.347418188E1,6.898337451E0,-3.703210365E0,9.412768235E0,1.224340771E1
1.348421588E1,6.470321265E0,-2.967426860E0,7.775362496E0,1.054167640E1
1.349424988E1,6.056443062E0,-1.669438249E0,7.039220849E0,9.434943391E0
1.350428488E1,5.008339012E0,-8.846767116E-1,7.390417485E0,8.971308887E0
1.351431888E1,3.068799453E0,-4.530159563E-2,7.508203797E0,8.111270343E0
1.352435287E1,-1.355527845E0,9.317850968E-1,6.753411287E0,6.950844784E0
1.353438787E1,-1.037824411E1,1.661663644E0,5.630641801E0,1.192364055E1
1.354442188E1,-3.020449646E1,4.544211884E-1,-3.571615561E0,3.041832577E1
1.355445587E1,-4.513081249E1,8.917885338E-1,-2.032973971E1,4.950640201E1
1.356448988E1,-3.247906335E1,3.402322588E0,-3.886883278E1,5.076663783E1
1.357452488E1,-1.700130459E1,3.726479944E0,-5.057225945E1,5.348349686E1
1.358455888E1,-1.695189562E1,-3.870691944E-1,-4.459865038E1,4.771327072E1
1.359459288E1,-2.028882792E1,-4.660612113E0,-3.137878810E1,3.765615735E1
1.360462688E1,-1.186094831E1,-4.952608615E0,-2.029260756E1,2.402083155E1
1.361466188E1,2.395399600E0,-4.463730515E0,-1.149498395E1,1.256174691E1
1.362469587E1,1.480335961E1,-4.807854067E0,-5.501090891E0,1.650808643E1
1.363472988E1,2.254592800E1,-3.003077919E0,-2.080437575E0,2.283999928E1
1.364476488E1,2.371709723E1,8.542106715E-1,-1.574520105E0,2.378464821E1
1.365479888E1,1.777170917E1,3.046967120E0,-1.083126533E-1,1.803134457E1
1.366483288E1,9.876440742E0,2.851977388E0,5.815675771E-1,1.029641091E1
1.367486688E1,3.044504272E0,1.570801568E0,1.120106664E0,3.604311691E0
1.368490188E1,-1.076905096E-1,7.272367756E-1,4.057591102E0,4.123653250E0
1.369493587E1,1.184587127E0,8.814690752E-1,7.075265425E0,7.227697782E0
1.370496988E1,2.348977678E0,7.880284495E-1,8.655367867E0,9.003003825E0
1.371500488E1,3.119932185E0,6.348876058E-1,9.369501178E0,9.895686507E0
1.372503888E1,3.349488609E0,4.410122438E-1,9.634816250E0,1.020995837E1
1.373507288E1,3.189973935E0,1.586470571E-1,9.778105778E0,1.028651813E1
1.374510688E1,2.613593130E0,7.659611307E-2,1.006978127E1,1.040371236E1
1.375514188E1,1.537885837E0,2.514805226E-1,1.053709776E1,1.065170242E1
1.376517587E1,2.580846968E-1,6.449381655E-1,1.126392888E1,1.128532883E1
1.377520988E1,-1.352509074E0,1.415353047E0,1.219672350E1,1.235283648E1
1.378524488E1,-3.307762878E0,2.386183219E0,1.320685456E1,1.382230708E1
1.379527887E1,-4.959759759E0,3.168479862E0,1.415304165E1,1.532798321E1
1.380531288E1,-5.797575130E0,3.438458088E0,1.458477198E1,1.606706088E1
1.381534688E1,-4.665345435E0,3.208614858E0,1.354206725E1,1.467815529E1
1.382538188E1,-2.053072460E0,2.740126584E0,1.186460399E1,1.234877436E1
1.383541588E1,-4.160624304E-1,2.304599796E0,1.067533997E1,1.092918897E1
1.384544988E1,5.353798360E-1,1.893408827E0,9.793681591E0,9.989385750E0
1.385548387E1,1.422706213E0,1.575672006E0,9.331156307E0,9.569603611E0
1.386551887E1,2.207841387E0,1.349727115E0,9.061773913E0,9.424015775E0
1.387555288E1,2.862598563E0,1.216263906E0,8.799810466E0,9.333296987E0
1.388558688E1,3.291393598E0,1.099638193E0,8.377370769E0,9.067679801E0
1.389562188E1,3.401528243E0,9.105655512E-1,7.848473741E0,8.602212743E0
1.390565588E1,2.828556658E0,6.803857409E-1,7.494823029E0,8.039653585E0
1.391568988E1,1.021088744E0,2.154522090E-1,7.000330433E0,7.077688044E0
1.392572387E1,-3.356333944E0,-7.261836190E-1,4.510619338E0,5.669039337E0
1.393575887E1,-1.025178053E1,-1.428898268E0,-1.088331724E0,1.040794025E1
1.394579288E1,-2.216259390E1,-2.291095652E0,-7.197036030E0,2.341424812E1
1.395582688E1,-2.959305078E1,-2.280346569E0,-1.418691223E1,3.289706846E1
1.396586188E1,-2.596978852E1,-1.650339488E0,-2.306070517E1,3.476995339E1
1.397589588E1,-1.438998837E1,-2.919158387E0,-5.887146522E1,6.067489323E1
1.398592988E1,-1.901613465E1,-4.664275686E0,-6.263592605E1,6.562490439E1
1.399596388E1,-2.181035529E1,-3.673972240E0,-3.859340086E1,4.448190935E1
1.400599887E1,-2.677825671E0,-3.578507674E-1,-2.497100690E1,2.511672736E1
1.401603288E1,1.403200311E1,1.583854453E0,-8.964477999E0,1.672625398E1
1.402606687E1,2.405512009E1,2.018353593E0,2.379054294E0,2.425659607E1
1.403610187E1,2.664132018E1,2.126075970E0,7.490802484E0,2.775594102E1
1.404613588E1,1.765840650E1,1.086656716E0,6.521955103E0,1.885566337E1
1.405616988E1,8.944002804E0,1.021665426E0,2.159051635E0,9.257455933E0
1.406620388E1,4.338374105E0,1.398531193E0,4.265380096E-1,4.578134341E0
1.407623888E1,1.364990248E0,1.201343419E0,7.343880665E-1,1.961058444E0
1.408627288E1,-5.040007532E-3,8.746390888E-1,3.878234779E0,3.975641324E0
1.409630687E1,3.811134763E-1,7.286101404E-1,6.808520125E0,6.857992892E0
1.410634088E1,8.418290462E-1,6.312416475E-1,8.348104286E0,8.414153987E0
1.411637554E1,1.224419383E0,5.956084961E-1,9.334933609E0,9.433712831E0
1.412640954E1,1.457553718E0,7.485986278E-1,9.820827874E0,9.956581887E0
1.413644354E1,1.171488633E0,1.193405313E0,1.006871240E1,1.020664348E1
1.414647854E1,3.824318773E-1,1.659362619E0,1.022554057E1,1.036635994E1
1.415651254E1,-5.681952873E-1,1.985250751E0,1.037156191E1,1.057512945E1
1.416654654E1,-1.364841582E0,2.162457346E0,1.083710670E1,1.113471580E1
1.417658054E1,-1.659808761E0,2.346324212E0,1.109590329E1,1.146207976E1
1.418661554E1,-1.178449012E0,2.495415055E0,1.109280310E1,1.143092818E1
1.419664954E1,-2.173936307E-2,2.480031323E0,1.090000286E1,1.117859966E1
1.420668354E1,1.218943904E0,2.324000712E0,1.062289746E1,1.094224630E1
1.421671854E1,2.410953194E0,2.293413780E0,1.026556125E1,1.079139425E1
1.422675254E1,3.665730590E0,2.125461428E0,9.804446315E0,1.068093323E1
1.423678654E1,5.088717177E0,1.856245240E0,9.290585402E0,1.075433243E1
1.424682054E1,6.421371299E0,1.658652475E0,8.536434916E0,1.080998883E1
1.425685554E1,7.479780482E0,1.499558361E0,7.687775298E0,1.083040537E1
1.426688954E1,8.280326285E0,1.287125070E0,6.865360324E0,1.083298974E1
1.427692354E1,8.783398501E0,1.061468446E0,5.808491297E0,1.058363716E1
1.428695854E1,8.714396093E0,8.097130680E-1,4.692855415E0,9.930721347E0
1.429699254E1,7.444335830E0,4.517946191E-1,4.167052149E0,8.543218243E0
1.430702654E1,4.365197915E0,-4.014802055E-1,5.489339157E0,7.024883172E0
1.431706054E1,-2.909138306E0,-2.640851388E0,8.470950193E0,9.337782334E0
1.432709554E1,-1.989503197E1,-8.758772367E0,1.054122005E1,2.415876054E1
1.433712954E1,-4.278751509E1,-1.579445448E1,9.189789344E0,4.652621270E1
1.434716354E1,-4.297338171E1,-1.116931743E1,3.645542493E0,4.455059110E1
1.435719754E1,-3.828083444E1,-3.706046264E0,3.378020682E0,3.860787598E1
1.436723254E1,-4.104351987E1,2.410647531E0,2.116342403E0,4.116868531E1
1.437726654E1,-3.600132081E1,5.550264221E0,1.988626057E0,3.648088768E1
1.438730054E1,-2.155655105E1,5.219371457E0,-1.588107572E0,2.223620510E1
1.439733554E1,-1.018363474E1,3.121010119E0,-7.211979175E0,1.286311643E1
1.440736954E1,-8.682173842E-1,1.790280462E0,-1.375881652E1,1.390194006E1
1.441740354E1,1.116394851E1,2.809116420E0,-1.964649724E1,2.277080884E1
1.442743754E1,2.394005858E1,5.268284585E0,-1.497170914E1,2.872339294E1
1.443747254E1,2.516552505E1,6.634099436E0,-5.027681601E0,2.650646164E1
1.444750654E1,2.124833261E1,7.567945384E0,1.667968551E0,2.261741708E1
1.445754054E1,1.746886900E1,1.008489281E1,4.685793148E0,2.070804444E1
1.446757554E1,1.222597595E1,9.484979010E0,5.401082454E0,1.638935650E1
1.447760954E1,7.157470846E0,4.233490552E0,4.593433453E0,9.500076949E0
1.448764354E1,4.813826705E0,1.098578824E0,5.296023776E0,7.240695465E0
1.449767754E1,4.775192982E0,-1.460434934E-1,6.310149071E0,7.914655900E0
1.450771254E1,5.410957816E0,-6.574798583E-1,7.255416386E0,9.074789870E0
1.451774654E1,5.989518170E0,-1.013836735E0,7.969896437E0,1.002104995E1
1.452778054E1,6.313370302E0,-1.245098792E0,8.418095457E0,1.059590707E1
1.453781554E1,6.396996011E0,-1.464979974E0,8.783662795E0,1.096450894E1
1.454784954E1,6.461521205E0,-1.765870237E0,9.203038550E0,1.138268301E1
1.455788354E1,6.478019709E0,-1.969013911E0,9.781106569E0,1.189587327E1
1.456791754E1,6.450182869E0,-2.034295004E0,1.000765694E1,1.207875874E1
1.457795254E1,6.164356935E0,-2.032717279E0,1.008095763E1,1.198986834E1
1.458798654E1,5.694929014E0,-2.019036840E0,1.028233808E1,1.192624009E1
1.459802054E1,5.012561871E0,-2.046348015E0,1.041460327E1,1.173785662E1
1.460805454E1,4.142536528E0,-2.123111140E0,1.049427626E1,1.148033292E1
1.461808954E1,3.122827141E0,-2.233066860E0,1.033307788E1,1.102320894E1
1.462812354E1,1.669677692E0,-2.423173875E0,9.656992984E0,1.009540037E1
1.463815754E1,-2.948481882E-1,-2.648189643E0,8.278255202E0,8.696513843E0
1.464819254E1,-2.647521307E0,-2.966836292E0,4.806417114E0,6.238039125E0
1.465822654E1,-5.073698019E0,-3.371209553E0,-2.041333151E0,6.424523832E0
1.466826054E1,-6.848905089E0,-3.085770704E0,-8.281488712E0,1.118090055E1
1.467829454E1,-8.986344831E0,-1.733439825E0,-1.140294527E1,1.462143522E1
1.468832954E1,-1.177282259E1,-6.862818539E-2,-1.682904796E1,2.053827930E1
1.469836354E1,-1.134105834E1,3.572958374E0,-2.550993541E1,2.814502514E1
1.470839754E1,-1.103928470E1,6.258913429E0,-2.933538036E1,3.196254597E1
1.471843254E1,-1.556632653E1,8.034982379E0,-2.594424554E1,3.130455782E1
1.472846654E1,-2.266875929E1,8.400000663E0,-1.792021207E1,3.009263464E1
1.473850054E1,-2.166964555E1,7.780067165E0,-1.547533567E1,2.774146711E1
1.474853454E1,-1.412269577E1,5.113870729E0,-1.746047123E1,2.303194011E1
1.475856954E1,-5.906297089E0,9.708867435E-1,-1.563454483E1,1.674114567E1
1.476860354E1,1.338739904E0,-4.209233962E0,-9.672269420E0,1.063309319E1
1.477863754E1,8.566148711E0,-8.626967356E0,-5.851993997E0,1.349256474E1
1.478867254E1,1.394661388E1,-6.169134110E0,-1.858110064E0,1.536290427E1
1.479870654E1,1.552411548E1,2.203895979E-2,1.075188938E0,1.556131995E1
1.480874054E1,1.334663810E1,4.595666797E0,2.730921605E0,1.437744187E1
1.481877454E1,1.012056433E1,6.229296697E0,4.503731902E0,1.270879856E1
1.482880954E1,7.675124847E0,6.800993589E0,5.230580569E0,1.151173437E1
1.483884354E1,5.557928751E0,6.115614545E0,3.942658231E0,9.156192833E0
1.484887754E1,3.749068615E0,4.566207940E0,2.871230807E0,6.568845925E0
1.485891254E1,2.941655257E0,3.131980957E0,3.617148998E0,5.616618845E0
1.486894654E1,2.646674922E0,2.013312270E0,5.666382322E0,6.570099167E0
1.487898054E1,2.380776299E0,1.173362081E0,7.472797737E0,7.930169000E0
1.488901454E1,1.884959309E0,3.874795593E-1,8.872318863E0,9.078615204E0
1.489904954E1,1.636064973E0,-1.978950486E-1,1.005489893E1,1.018905607E1
1.490908354E1,1.953735721E0,-6.931884389E-1,1.092943540E1,1.112430455E1
1.491911754E1,2.464492932E0,-1.067177302E0,1.140466435E1,1.171661050E1
1.492915154E1,2.975908539E0,-1.311615548E0,1.178227753E1,1.222286508E1
1.493918654E1,3.570813615E0,-1.465086832E0,1.183437389E1,1.244787510E1
1.494922054E1,4.194380865E0,-1.577995690E0,1.189975044E1,1.271561881E1
1.495925454E1,4.807381612E0,-1.650866322E0,1.170739458E1,1.276320357E1
1.496928954E1,5.075104859E0,-1.722215948E0,1.134910995E1,1.255089693E1
1.497932354E1,5.185403227E0,-1.755648134E0,1.084718847E1,1.215039936E1
1.498935754E1,5.282255337E0,-1.661951035E0,1.037839731E1,1.176330878E1
1.499939154E1,5.290765375E0,-1.248713979E0,1.007107935E1,1.144456745E1
1.500942654E1,5.123818012E0,-5.433215243E-1,9.802736589E0,1.107440084E1
1.501946054E1,4.553631164E0,1.612997561E-1,9.790242258E0,1.079863037E1
1.502949454E1,2.283485939E0,6.528399465E-1,9.363769737E0,9.660263543E0
1.503952954E1,-3.860364226E0,8.807715024E-1,7.087814720E0,8.118823061E0
1.504956354E1,-1.296250527E1,1.504024903E0,7.216703725E-1,1.306940863E1
1.505959754E1,-2.193232119E1,2.446053445E0,-9.741796907E0,2.412286254E1
1.506963154E1,-2.297783376E1,3.534617304E0,-2.746296859E1,3.598178716E1
1.507966654E1,-1.717976746E1,4.370862113E0,-4.368986209E1,4.714926187E1
1.508970054E1,-1.482460372E1,4.364584542E0,-4.332885032E1,4.600225803E1
1.509973454E1,-2.195957389E1,2.302953659E0,-2.947978553E1,3.683183726E1
1.510976988E1,-1.966810153E1,-3.042793085E-1,-2.616218530E1,3.273204460E1
1.511980388E1,-9.510876912E0,-3.798288138E0,-2.610709283E1,2.804396671E1
1.512983788E1,2.833313368E0,-8.144516516E0,-1.482686893E1,1.715216768E1
1.513987187E1,1.673548198E1,-1.121443220E1,-4.331832533E0,2.060593652E1
1.514990687E1,2.557485821E1,-8.380643456E0,8.006007671E-1,2.692488661E1
1.515994088E1,2.248319439E1,-3.137910034E0,5.109413981E-1,2.270686175E1
1.516997488E1,1.299273187E1,-1.134731573E0,-2.813042825E-1,1.304522247E1
1.518000888E1,5.952265559E0,-4.738403763E-1,-7.404054362E-1,6.016825592E0
1.519004388E1,9.450913131E-1,-2.443354078E-1,-1.146170043E0,1.505524211E0
1.520007788E1,-1.819432194E0,-4.501011193E-2,1.213054588E0,2.187203889E0
1.521011187E1,-1.072624641E0,1.024235131E0,4.662707171E0,4.892894786E0
1.522014687E1,-6.263625115E-2,2.110258667E0,6.431014527E0,6.768682500E0
1.523018088E1,9.652145058E-2,2.607426072E0,7.719243844E0,8.148295075E0
1.524021488E1,-1.459175590E-1,2.901323210E0,8.576640955E0,9.055260260E0
1.525024888E1,-3.322291455E-1,3.163138723E0,9.051261204E0,9.593808012E0
1.526028388E1,-3.553972757E-1,3.458397386E0,9.442176222E0,1.006188409E1
1.527031788E1,-5.350933224E-1,3.635019844E0,9.855784868E0,1.051837390E1
1.528035188E1,-5.138115039E-1,3.802554559E0,1.042454587E1,1.110831131E1
1.529038687E1,-8.095236182E-2,3.887436834E0,1.087956684E1,1.155351432E1
1.530042088E1,4.545151824E-1,3.782569653E0,1.124417699E1,1.187206525E1
1.531045487E1,1.012617591E0,3.396131848E0,1.142149965E1,1.195866883E1
1.532048888E1,1.853825809E0,2.931789543E0,1.113177830E1,1.165969760E1
1.533052388E1,2.813554749E0,2.395118642E0,1.064654009E1,1.126949420E1
1.534055788E1,3.661530827E0,1.990188433E0,1.016466637E1,1.098581360E1
1.535059188E1,4.327769303E0,1.627882233E0,9.593352474E0,1.064950700E1
1.536062688E1,4.754636803E0,1.254444251E0,8.872778454E0,1.014427913E1
1.537066088E1,4.951979454E0,8.124210598E-1,8.231248266E0,9.640309980E0
1.538069487E1,4.875554591E0,3.174121548E-1,7.736417701E0,9.150078791E0
1.539072888E1,4.626046883E0,-1.699926654E-1,7.484143674E0,8.800091693E0
1.540076388E1,3.962265700E0,-5.655412361E-1,7.610402602E0,8.598698397E0
1.541079788E1,2.170911543E0,-9.057572396E-1,7.980717879E0,8.320162917E0
1.542083188E1,-1.643880946E0,-1.592585954E0,7.818253577E0,8.146395742E0
1.543086588E1,-8.389231262E0,-2.480627154E0,4.790573498E0,9.974081746E0
1.544090088E1,-1.970219314E1,-1.504518262E0,-2.007565480E-1,1.976057421E1
1.545093487E1,-3.577060137E1,3.603984577E0,-4.294727272E0,3.620731017E1
1.546096888E1,-3.644910058E1,9.397324569E0,-1.268364688E1,3.972054305E1
1.547100388E1,-2.287150799E1,1.265597434E1,-3.537484544E1,4.398476161E1
1.548103787E1,-1.821671268E1,1.013807908E1,-5.563322106E1,5.941114840E1
1.549107188E1,-1.599130918E1,1.850223193E0,-4.136967756E1,4.439139012E1
1.550110588E1,3.495321091E0,-4.519858523E0,-2.557988448E1,2.621024381E1
1.551114088E1,2.594423384E1,-6.712773723E0,-1.128087996E1,2.907615610E1
1.552117488E1,3.414886441E1,-4.325205299E0,-1.869305727E0,3.447240412E1
1.553120888E1,1.923141861E1,-1.949045084E0,-8.488964295E-1,1.934856231E1
1.554124388E1,6.536668451E0,-5.339165702E-3,-2.392094754E0,6.960616371E0
1.555127787E1,9.887831703E-1,1.762419795E0,-3.044087366E0,3.653803988E0
1.556131188E1,-2.636851307E0,1.839149444E0,-1.809778733E0,3.689275614E0
1.557134588E1,-3.108825399E0,2.017092057E0,2.402777032E0,4.416649544E0
1.558138088E1,-2.043892623E0,2.676830183E0,5.650832822E0,6.578360621E0
1.559141488E1,-2.632533139E0,2.985307646E0,7.844675975E0,8.796660367E0
1.560144888E1,-4.430427114E0,3.026194594E0,9.341646212E0,1.077278479E1
1.561148287E1,-5.957107054E0,3.144118900E0,1.036000314E1,1.235727612E1
1.562151787E1,-6.802608590E0,3.501272679E0,1.122760013E1,1.358651533E1
1.563155188E1,-6.903412834E0,4.041035880E0,1.212273517E1,1.452404172E1
1.564158588E1,-6.047420223E0,4.694499652E0,1.299132620E1,1.507926307E1
1.565162088E1,-4.455202351E0,4.925913152E0,1.323618771E1,1.480912264E1
1.566165488E1,-2.853789440E0,4.798478056E0,1.277970260E1,1.394597807E1
1.567168888E1,-1.651691949E0,4.258019037E0,1.239273620E1,1.320752524E1
1.568172288E1,-7.616192807E-1,3.454788777E0,1.219904485E1,1.270166621E1
1.569175787E1,2.565756766E-1,2.651276973E0,1.244925422E1,1.273102633E1
1.570179188E1,1.152001617E0,1.948346488E0,1.260026909E1,1.280195075E1
1.571182587E1,1.830549944E0,1.592408199E0,1.222530235E1,1.246373518E1
1.572186087E1,2.405536626E0,1.183023874E0,1.169650239E1,1.199976333E1
1.573189488E1,2.576325901E0,7.972304320E-1,1.114850835E1,1.147005972E1
1.574192888E1,2.730685378E0,5.457251684E-1,1.058917657E1,1.094920632E1
1.575196288E1,2.826344364E0,4.414875859E-1,9.981671913E0,1.038349209E1
1.576199788E1,2.822017132E0,3.665074240E-1,9.259408633E0,9.686834189E0
1.577203188E1,2.516928130E0,2.983945245E-1,8.652446598E0,9.016030093E0
1.578206587E1,1.405909502E0,1.188417345E-2,7.820270281E0,7.945649755E0
1.579209988E1,-1.635429965E0,-1.488216225E0,4.417400687E0,4.939923838E0
1.580213488E1,-7.296914660E0,-5.591014051E0,-4.261970585E0,1.013256112E1
1.581216888E1,-1.359038162E1,-1.192091151E1,-1.235424515E1,2.189598085E1
1.582220288E1,-2.150781801E1,-1.467551258E1,-1.402971334E1,2.957684503E1
1.583223788E1,-2.488753906E1,-6.037649526E0,-1.495463527E1,2.965609429E1
1.584227188E1,-2.411430794E1,5.993808272E0,-1.954832951E1,3.161586266E1
1.585230587E1,-3.049093284E1,1.193461270E1,-3.669658047E1,4.918100227E1
1.586233988E1,-3.063851890E1,7.698885593E0,-5.163102648E1,6.052895650E1
1.587237488E1,-1.460678909E1,2.670836202E0,-4.158779274E1,4.415921374E1
1.588240888E1,1.343916912E1,2.117511407E0,-2.446600861E1,2.799429761E1
1.589244288E1,2.541400833E1,5.347106952E-1,-9.283716677E0,2.706187596E1
1.590247788E1,2.063246644E1,-3.540618082E-1,1.023623512E0,2.066087695E1
1.591251188E1,1.241582101E1,4.399661404E-1,2.692505983E0,1.271203249E1
1.592254588E1,5.401421592E0,1.118536175E0,7.445382482E-1,5.566041286E0
1.593257988E1,5.133516204E-1,7.328609931E-1,1.661626661E-1,9.100687628E-1
1.594261488E1,-1.733985077E0,8.846570503E-2,2.485665407E0,3.032006423E0
1.595264887E1,-1.064701372E0,1.384465076E-1,6.152482409E0,6.245462052E0
1.596268288E1,1.536940634E-1,5.656038013E-1,8.536652432E0,8.556749632E0
1.597271788E1,5.324044803E-1,6.242267429E-1,9.816766398E0,9.850990614E0
1.598275188E1,1.042488384E-1,3.700453914E-1,1.058916371E1,1.059614031E1
1.599278588E1,-7.718140474E-1,-3.474963717E-2,1.138598015E1,1.141216231E1
1.600281988E1,-1.980936237E0,-3.074488283E-1,1.183155553E1,1.200018081E1
1.601285488E1,-3.337888902E0,-3.929147289E-1,1.264748886E1,1.308643798E1
1.602288887E1,-4.374299691E0,-4.159237783E-2,1.371563366E1,1.439634796E1
1.603292288E1,-4.898218399E0,6.225367514E-1,1.461167736E1,1.542339816E1
1.604295688E1,-4.801760391E0,1.118980782E0,1.539791737E1,1.616802029E1
1.605299188E1,-3.165737810E0,1.595606480E0,1.482068024E1,1.523878009E1
1.606302588E1,-1.167963493E0,2.065832400E0,1.311614437E1,1.332910520E1
1.607305988E1,2.056875050E-1,2.145148418E0,1.155166218E1,1.175095180E1
1.608309488E1,1.201819164E0,1.937402109E0,1.013591211E1,1.038915831E1
1.609312887E1,1.676807494E0,1.787299551E0,8.987208465E0,9.315365750E0
1.610316288E1,1.901138554E0,1.570607294E0,8.197509246E0,8.560390933E0
1.611319650E1,1.869462433E0,1.192866345E0,7.724924414E0,8.036932070E0
1.612323150E1,2.146483045E0,1.064271894E0,7.089663025E0,7.483541002E0
1.613326550E1,2.460448705E0,9.516261613E-1,6.159989065E0,6.701109271E0
1.614329950E1,1.339639206E0,4.526486050E-1,4.504307853E0,4.721050010E0
1.615333450E1,-7.231888944E-1,-7.915561478E-1,7.210587537E-1,1.292087086E0
1.616336850E1,-2.086470147E0,-2.557791397E0,-3.840849436E0,5.064363622E0
1.617340250E1,-3.459570045E0,-3.411997391E0,-5.448693992E0,7.300590203E0
1.618343650E1,-5.661366581E0,-2.934618718E0,-3.535741723E0,7.291400971E0
1.619347150E1,-7.260107607E0,9.799427649E-1,2.759581733E-1,7.331139284E0
1.620350550E1,-1.217354280E1,7.899098350E0,3.409061211E0,1.490679702E1
1.621353950E1,-1.799666091E1,1.143915824E1,-2.858513113E0,2.151523280E1
1.622357450E1,-2.204695235E1,8.256597115E0,-2.605135717E1,3.511285682E1
1.623360850E1,-2.580343991E1,3.515766757E0,-4.557446179E1,5.249009140E1
1.624364250E1,-2.433660505E1,3.100785404E-1,-4.235367040E1,4.884874503E1
1.625367650E1,-1.046966182E1,-8.169474625E-1,-2.705028614E1,2.901722251E1
1.626371150E1,6.780927699E0,-5.621753960E-1,-1.091958401E1,1.286601479E1
1.627374550E1,1.785499691E1,1.580534551E-1,-1.650101214E0,1.793177987E1
1.628377950E1,2.391819935E1,8.144771601E-1,4.174603828E0,2.429343430E1
1.629381350E1,2.089250615E1,3.033688970E-2,6.209207418E0,2.179568743E1
1.630384850E1,1.301810761E1,-1.609828078E0,4.078413037E0,1.373667082E1
1.631388250E1,6.952455770E0,-2.448365141E0,2.967935568E0,7.946054030E0
1.632391650E1,3.546863712E0,-2.121354344E0,3.856232876E0,5.652514346E0
1.633395150E1,1.805757895E0,-1.514333398E0,5.757929839E0,6.221553122E0
1.634398550E1,1.952297013E0,-6.076536141E-1,7.654509319E0,7.922892115E0
1.635401950E1,2.776391308E0,4.197442029E-1,8.806026641E0,9.242869635E0
1.636405350E1,3.079226501E0,1.194626869E0,9.062888977E0,9.645969407E0
1.637408850E1,2.959216492E0,1.586862700E0,9.045530348E0,9.648663884E0
1.638412250E1,2.418602668E0,1.773763978E0,8.884133162E0,9.376763811E0
1.639415650E1,1.578720744E0,1.886162081E0,8.692367878E0,9.033671784E0
1.640419150E1,4.840886450E-1,1.940492801E0,8.581866612E0,8.811826636E0
1.641422550E1,-8.113866873E-1,1.918654035E0,8.624243138E0,8.872268671E0
1.642425950E1,-1.969300278E0,1.935611837E0,8.821974921E0,9.244023923E0
1.643429350E1,-2.912600735E0,1.966677948E0,9.014177577E0,9.675043286E0
1.644432850E1,-3.832819455E0,2.045682018E0,8.792388010E0,9.807211979E0
1.645436250E1,-4.492360237E0,2.128971658E0,7.850721411E0,9.292343488E0
1.646439650E1,-4.806829342E0,2.030008556E0,6.087460202E0,8.017712565E0
1.647443150E1,-5.308561376E0,1.768143780E0,3.683541209E0,6.698927686E0
1.648446550E1,-5.856125055E0,1.356858087E0,8.177436340E-1,6.066627496E0
1.649449950E1,-6.078354918E0,8.485869657E-1,-2.105188254E0,6.488321503E0
1.650453350E1,-5.840020069E0,3.003139461E-1,-4.459117647E0,7.353893735E0
1.651456850E1,-5.728983783E0,-1.739556889E-1,-6.369173205E0,8.568423605E0
1.652460250E1,-5.692305368E0,-6.112932501E-1,-8.504055959E0,1.025158464E1
1.653463650E1,-5.662951176E0,-8.087427226E-1,-1.149435362E1,1.283912948E1
1.654467050E1,-5.184768804E0,-4.538476131E-1,-1.688033739E1,1.766447270E1
1.655470550E1,-4.600583136E0,1.746907753E-2,-2.325681377E1,2.370748947E1
1.656473950E1,-6.374086035E0,6.856635109E-1,-2.595448986E1,2.673452171E1
1.657477350E1,-9.925486017E0,1.497876848E0,-2.458120578E1,2.655173413E1
1.658480850E1,-1.124968390E1,1.413824585E0,-2.435446011E1,2.686436329E1
1.659484250E1,-1.778377139E0,9.294428484E-1,-2.313339074E1,2.322025531E1
1.660487650E1,1.148057524E1,-4.386710552E-1,-1.914860800E1,2.233081343E1
1.661491050E1,2.187105173E1,-7.750134976E-1,-9.075151173E0,2.369181121E1
1.662494550E1,2.248334174E1,-1.210195300E-1,-9.034638155E-1,2.250181212E1
1.663497950E1,1.390795911E1,-5.945884493E-1,1.768824250E0,1.403259068E1
1.664501350E1,5.257259660E0,-1.777539817E0,7.409673536E-1,5.598880205E0
1.665504750E1,-1.965889451E-1,-2.562390817E0,3.484665710E-1,2.593438425E0
1.666508250E1,-2.747693174E0,-2.809233949E0,2.323786411E0,4.565259735E0
1.667511650E1,-2.551048973E0,-2.230091797E0,5.711563758E0,6.641018058E0
1.668515050E1,-9.371066478E-1,-7.999237327E-1,8.024881314E0,8.118914149E0
1.669518550E1,6.322258070E-2,3.780773827E-1,9.021752061E0,9.029892017E0
1.670521950E1,3.518276236E-1,1.254731934E0,9.307581503E0,9.398362003E0
1.671525350E1,2.633719685E-1,2.011714811E0,9.331939834E0,9.549945672E0
1.672528750E1,-1.379605583E-1,2.722795145E0,9.460186231E0,9.845190198E0
1.673532250E1,-1.118637551E0,3.300879536E0,9.670769609E0,1.027963718E1
1.674535650E1,-2.730132231E0,3.712549245E0,9.555936141E0,1.060907910E1
