"Time (s)","Linear Acceleration x (m/s^2)","Linear Acceleration y (m/s^2)","Linear Acceleration z (m/s^2)","Absolute acceleration (m/s^2)"
-6.112499977E-4,1.114190232E-1,-3.083862466E-1,-7.812184167E-1,8.472416954E-1
9.422749994E-3,-5.540223674E-1,-3.174886072E-1,-1.159827969E0,1.323986676E0
1.945675000E-2,-5.728758372E-1,-7.536359310E-2,-8.988690734E-1,1.068565397E0
2.949075001E-2,-2.548667731E-1,4.879150629E-2,-5.334718895E-1,5.932368330E-1
3.952475000E-2,1.566003123E-3,1.882230413E-1,-2.817644584E-1,3.388533247E-1
4.955875000E-2,5.967975274E-2,3.445167768E-1,-2.700220799E-1,4.417752891E-1
5.959375000E-2,3.005154101E-2,2.565582812E-1,-5.024003702E-1,5.649171433E-1
6.962775000E-2,-5.349485581E-2,1.627437991E-1,-7.251336783E-1,7.450946887E-1
7.966175000E-2,-2.891068619E-1,1.201608664E-1,-8.397847134E-1,8.962476088E-1
8.969574999E-2,-3.887434715E-1,-3.585571110E-2,-8.380276251E-1,9.244984689E-1
9.972975000E-2,-3.129398023E-1,-2.123036295E-1,-8.667356998E-1,9.456399549E-1
1.097637500E-1,-2.917413615E-1,-1.890381432E-1,-1.030606842E0,1.087657531E0
1.197987500E-1,-3.062516657E-1,-2.717493474E-2,-1.353805255E0,1.388278513E0
1.298327500E-1,-1.081324220E-1,6.408548355E-2,-1.412040015E0,1.417623566E0
1.398667500E-1,1.798608468E-1,1.041704857E-1,-1.322430850E0,1.338665294E0
1.499007500E-1,2.555148456E-1,8.366956294E-2,-1.428866547E0,1.453942242E0
1.599347500E-1,3.073056446E-1,-8.241065741E-3,-1.651898063E0,1.680259470E0
1.699697500E-1,2.098361411E-1,-7.904383063E-2,-2.000301484E0,2.012830137E0
1.800037500E-1,-3.798894896E-3,-1.615609074E-1,-2.387652040E0,2.393114836E0
1.900377500E-1,-3.982226120E-2,-3.697843498E-1,-2.416918523E0,2.445367340E0
2.000717500E-1,1.433664462E-1,-5.910874289E-1,-2.050175310E0,2.138494117E0
2.101057500E-1,3.462859981E-1,-7.103776449E-1,-1.590690579E0,1.776188872E0
2.201397500E-1,5.346843097E-1,-9.875970626E-1,-1.270220477E0,1.695492651E0
2.301747500E-1,6.630086931E-1,-1.178526195E0,-1.015663698E0,1.691176297E0
2.402087500E-1,6.230905558E-1,-1.329835179E0,-1.220602174E0,1.909600250E0
2.502427500E-1,3.856031147E-1,-1.347259297E0,-1.622827461E0,2.144146997E0
2.602767500E-1,1.391854769E-1,-1.436976635E0,-1.564814311E0,2.129065118E0
2.703107500E-1,-2.255070810E-1,-1.452064206E0,-9.953539789E-1,1.774844626E0
2.803447500E-1,-5.676807323E-1,-1.542218331E0,-1.164702208E0,2.014256694E0
2.903797500E-1,-7.280768743E-1,-1.427560864E0,-9.224719441E-1,1.849048524E0
3.004137500E-1,-4.761817842E-1,-1.168861333E0,-4.821502930E-1,1.351093931E0
3.104477500E-1,5.391679546E-1,-8.898286933E-1,-2.116820705E-1,1.061746903E0
3.204817500E-1,3.157051479E0,-5.046299136E-1,-1.428920342E0,3.501919293E0
3.305157500E-1,2.451387421E0,-4.034052551E-2,-5.470476040E0,5.994750683E0
3.405507500E-1,-7.954246949E0,2.692112466E0,1.529601209E0,8.535642560E0
3.505847500E-1,-5.954852952E0,5.022530789E0,7.802267289E0,1.102549156E1
3.606187500E-1,-2.332649475E0,2.437731687E0,1.212865139E1,1.258920068E1
3.706527500E-1,-2.155911827E0,5.449090433E-1,1.741902617E1,1.756039163E1
3.806867500E-1,-1.582082747E0,4.556015950E-1,1.775217011E1,1.782835108E1
3.907207500E-1,-3.555010638E0,1.233749054E0,2.072919342E1,2.106797801E1
4.007557500E-1,-2.095712549E0,1.146445447E0,2.386738938E1,2.398663428E1
4.107897500E-1,2.102536103E0,1.610277582E0,2.348139831E1,2.363027123E1
4.208237500E-1,2.964330175E0,3.227100538E0,2.077745400E1,2.123450084E1
4.308577500E-1,1.773854317E0,5.221198127E0,1.618564958E1,1.709920236E1
4.408917500E-1,-1.439265089E-1,6.170431607E0,1.145983867E1,1.301625305E1
4.509257500E-1,-2.484311777E0,5.887426370E0,7.146565204E0,9.586813260E0
4.609607500E-1,-3.808116430E0,4.883136676E0,3.839803369E0,7.286347813E0
4.709947500E-1,-4.598330496E0,3.748699071E0,1.616221277E0,6.148947820E0
4.810287500E-1,-4.506709304E0,2.165094148E0,-4.165848792E-2,4.999979685E0
4.910627500E-1,-4.479636111E0,3.697147679E-1,5.879480588E-1,4.533156915E0
5.010967500E-1,-3.054075580E0,-1.294361876E0,2.164548018E0,3.960810326E0
5.111317500E-1,-3.098904428E-1,-2.470977786E0,3.445432355E0,4.251207760E0
5.211657500E-1,1.204633428E0,-3.265100423E0,4.104748019E0,5.381540557E0
5.311997500E-1,2.105713919E0,-4.435622950E0,1.306042713E0,5.080800097E0
5.412337500E-1,1.737218588E0,-5.864119953E0,-3.600860410E0,7.097325337E0
5.512677500E-1,5.111583298E-1,-7.578081533E0,-7.294579867E0,1.053088306E1
5.613017500E-1,-8.617225894E-1,-8.666660594E0,-7.689729438E0,1.161832649E1
5.713367500E-1,-2.968624078E0,-9.848091102E0,-8.919954375E0,1.361481595E1
5.813707500E-1,-4.178813238E0,-1.114651679E1,-9.355123460E0,1.514019985E1
5.914047500E-1,-5.252949092E0,-1.201963824E1,-8.916718526E0,1.586105440E1
6.014387500E-1,-5.890269286E0,-1.239911902E1,-7.937106421E0,1.585657855E1
6.114727500E-1,-6.077677225E0,-1.231831284E1,-6.424047570E0,1.516401592E1
6.215067500E-1,-6.307412574E0,-1.207868459E1,-5.252922195E0,1.460381000E1
6.315417500E-1,-6.568348666E0,-1.164685836E1,-4.510578992E0,1.411162062E1
6.415757500E-1,-5.850104177E0,-1.083816972E1,-3.714471810E0,1.286417283E1
6.516097500E-1,-5.747261009E0,-9.856085415E0,-3.225073308E0,1.185641289E1
6.616437500E-1,-5.017565333E0,-8.503832595E0,-2.982540159E0,1.031439172E1
6.716777500E-1,-4.010542943E0,-7.246826826E0,-2.725334591E0,8.719426723E0
6.817127500E-1,-2.702783342E0,-6.051034972E0,-2.291526738E0,7.012214830E0
6.917467500E-1,-1.646803969E0,-5.108097773E0,-1.816651551E0,5.666114103E0
7.017807500E-1,-1.097846898E0,-4.401979825E0,-1.920299295E0,4.926483896E0
7.118147500E-1,-3.974308625E-1,-4.222878440E0,-1.908200237E0,4.651008681E0
7.218487500E-1,2.762350389E-1,-4.063886799E0,-1.671127802E0,4.402743445E0
7.318827500E-1,7.168975827E-1,-4.032314758E0,-1.373341972E0,4.319672745E0
7.419177500E-1,9.970791999E-1,-4.359179376E0,-1.275519809E0,4.650114251E0
7.519517500E-1,1.345908298E0,-4.610451189E0,-1.081150247E0,4.923069690E0
7.619857500E-1,1.631412343E0,-4.590151411E0,-1.082833076E0,4.990343042E0
7.720197500E-1,1.744243725E0,-4.643051171E0,-1.231534714E0,5.110478265E0
7.820537500E-1,1.616708350E0,-4.753266508E0,-1.573307538E0,5.261424236E0
7.920877500E-1,1.177227236E0,-4.975899244E0,-1.984711053E0,5.484935297E0
8.021227500E-1,6.723888695E-1,-5.181137098E0,-2.309962570E0,5.712461422E0
8.121567500E-1,7.527237654E-2,-5.364264291E0,-2.259147343E0,5.821060387E0
8.221907500E-1,-2.024326524E-1,-5.230485844E0,-1.944250660E0,5.583822326E0
8.322247500E-1,-7.003224805E-2,-4.316380096E0,-1.023742357E0,4.436675564E0
8.422587500E-1,4.153651500E-1,-2.495816174E0,7.623658240E-2,2.531291883E0
8.522937500E-1,9.831577103E-1,1.950169212E-1,1.087513991E0,1.478958202E0
8.623277500E-1,3.268939997E-1,3.649061347E0,2.081044955E0,4.213461345E0
8.723617500E-1,-6.808499368E-1,7.962570460E0,3.653790575E0,8.787278904E0
8.823960000E-1,9.292950600E-2,1.223515374E1,7.111888876E0,1.415226435E1
8.924300000E-1,1.865016210E0,1.696230717E1,1.160171551E1,2.063487225E1
9.024640000E-1,4.891243256E0,2.135020281E1,1.501637251E1,2.655648440E1
9.124990000E-1,9.612834227E0,2.423317248E1,1.689464436E1,3.106577278E1
9.225330000E-1,1.024559067E1,2.603862662E1,1.480019159E1,3.165482389E1
9.325670000E-1,7.395994560E0,2.680039018E1,8.371776738E0,2.903529395E1
9.426010000E-1,4.651710020E0,2.674075325E1,1.749821969E0,2.719867952E1
9.526350000E-1,1.755962422E0,2.626995884E1,-4.329793024E0,2.668222721E1
9.626690000E-1,4.394208875E-1,2.424698361E1,-8.179082331E0,2.559309853E1
9.727040000E-1,9.528257176E-1,2.045027422E1,-8.483315300E0,2.216051062E1
9.827380000E-1,2.275405964E0,1.484352999E1,-5.624425626E0,1.603564836E1
9.927720000E-1,2.737640641E0,8.036888571E0,-3.342503525E0,9.124614184E0
1.002806000E0,1.438192564E0,8.733313590E-1,-3.827641745E0,4.181141811E0
1.012840000E0,-1.135028173E0,-5.075066852E0,-5.143374610E0,7.314293875E0
1.022875000E0,-3.812764382E0,-9.570415016E0,-6.508050424E0,1.218543131E1
1.032909000E0,-5.779102022E0,-1.272943525E1,-7.654238593E0,1.593812757E1
1.042943000E0,-7.460047299E0,-1.443119954E1,-8.667749346E0,1.841308515E1
1.052977000E0,-8.844345199E0,-1.532996336E1,-9.344474511E0,2.001373085E1
1.063011000E0,-1.016092533E1,-1.590532120E1,-9.403844799E0,2.108686660E1
1.073045000E0,-1.115230086E1,-1.653372146E1,-9.071227106E0,2.190947104E1
1.083080000E0,-1.152968016E1,-1.672608784E1,-7.897300916E0,2.179593771E1
1.093114000E0,-1.064473564E1,-1.636991172E1,-5.630461122E0,2.032206926E1
1.103148000E0,-8.453154193E0,-1.533224846E1,-2.649696763E0,1.770747163E1
1.113182000E0,-6.497352943E0,-1.326216338E1,2.364824510E-1,1.477012175E1
1.123216000E0,-3.506528449E0,-1.135877072E1,2.571600181E0,1.216267000E1
1.133250000E0,-1.605103381E0,-8.662689165E0,3.610561525E0,9.521275911E0
1.143285000E0,-2.018593329E-1,-5.977837188E0,3.625997590E0,6.994508071E0
1.153319000E0,1.420521694E0,-3.125975867E0,3.053125407E0,4.594690605E0
1.163353000E0,2.932436830E0,-3.587050456E-1,2.622081533E0,3.950084383E0
1.173387000E0,4.956378314E0,2.220013536E0,2.770699629E0,6.096796087E0
1.183421000E0,8.414487725E0,4.320723408E0,4.450937392E0,1.045385566E1
1.193456000E0,1.176722446E1,5.447757268E0,5.982610855E0,1.428066047E1
1.203490000E0,1.365740709E1,5.627060382E0,7.306174895E0,1.647934369E1
1.213524000E0,1.326599330E1,4.447758261E0,8.053266622E0,1.614386060E1
1.223558000E0,1.122395966E1,1.808114616E0,7.449585460E0,1.359201502E1
1.233592000E0,8.295434906E0,-1.389434679E0,6.063379614E0,1.036867115E1
1.243626000E0,4.932879524E0,-4.387845351E0,4.244430692E0,7.848673717E0
1.253661000E0,1.430216085E0,-7.156305496E0,2.410970736E0,7.685766473E0
1.263695000E0,-1.656772010E0,-9.448162016E0,7.788017625E-1,9.623886490E0
1.273729000E0,-4.087376819E0,-1.087384592E1,-3.262341414E-1,1.162125652E1
1.283763000E0,-5.676596239E0,-1.146404282E1,-9.574078882E-1,1.282827551E1
1.293797000E0,-6.341122357E0,-1.190705829E1,-1.525365486E0,1.357625168E1
1.303831000E0,-6.534442416E0,-1.210878372E1,-2.134689796E0,1.392402533E1
1.313866000E0,-6.856597102E0,-1.162292921E1,-2.917962924E0,1.380651712E1
1.323900000E0,-6.629038671E0,-1.100030833E1,-4.002800353E0,1.345263349E1
1.333934000E0,-5.715073841E0,-1.024042290E1,-4.977265738E0,1.273976077E1
1.343968000E0,-5.115430766E0,-9.117568629E0,-5.701016550E0,1.190795026E1
1.354002000E0,-5.086067219E0,-7.886261373E0,-6.468151363E0,1.139728828E1
1.364037000E0,-5.294187165E0,-6.537158448E0,-6.810261426E0,1.082323976E1
1.374071000E0,-5.092600313E0,-4.530327378E0,-6.301829653E0,9.282860608E0
1.384105000E0,-4.419976093E0,-1.937278440E0,-4.527097961E0,6.616936781E0
1.394139000E0,-4.129055479E0,1.611352885E0,-2.199690953E0,4.948150924E0
1.404173000E0,-3.948949543E0,6.119609948E0,-4.404309940E-1,7.296424321E0
1.414207000E0,-4.392921903E0,1.103361875E1,1.656644833E-1,1.187711877E1
1.424242000E0,-4.861533553E0,1.603389445E1,-2.260040943E-1,1.675623340E1
1.434276000E0,-4.499278370E0,2.052251774E1,-4.969185325E-1,2.101580758E1
1.444310000E0,-1.472685581E0,2.408235876E1,9.209730104E-2,2.412752138E1
1.454344000E0,3.814581404E0,2.679205673E1,2.228708346E0,2.715386668E1
1.464378000E0,9.165539187E0,2.920620835E1,3.406992466E0,3.079963169E1
1.474412000E0,1.351743644E1,3.019312947E1,2.970682590E0,3.321401978E1
1.484447000E0,1.462899330E1,2.969416317E1,1.447071269E0,3.313374091E1
1.494481000E0,1.319202135E1,2.745872585E1,9.829878487E-2,3.046343242E1
1.504515000E0,1.135441805E1,2.348707244E1,6.828752661E-1,2.609658407E1
1.514549000E0,8.752307686E0,1.859735473E1,1.991967448E0,2.065024036E1
1.524583000E0,5.474367362E0,1.275818367E1,2.315667552E0,1.407488063E1
1.534617000E0,2.767146860E0,6.763917564E0,1.614348999E0,7.484237119E0
1.544652000E0,1.246583546E0,1.124787945E0,-8.238262732E-2,1.681042937E0
1.554686000E0,6.782587431E-1,-3.700791664E0,-2.334944653E0,4.428076376E0
1.564720000E0,2.450214323E-1,-7.863526229E0,-4.981128409E0,9.311644349E0
1.574754000E0,-6.650721024E-1,-1.130244566E1,-7.506606923E0,1.358443029E1
1.584788000E0,-1.948572776E0,-1.371226450E1,-9.108377391E0,1.657666046E1
1.594823000E0,-2.555746041E0,-1.569464485E1,-9.670839776E0,1.861125618E1
1.604857000E0,-3.841081570E0,-1.622567962E1,-9.460756334E0,1.917113709E1
1.614891000E0,-5.326519929E0,-1.646827358E1,-8.573179404E0,1.931515608E1
1.624925000E0,-6.878149354E0,-1.676067880E1,-8.277211474E0,1.991837147E1
1.634959000E0,-8.263209146E0,-1.668813591E1,-8.279387223E0,2.037946904E1
1.644993000E0,-9.017001783E0,-1.602652579E1,-7.479959407E0,1.985209417E1
1.655028000E0,-8.862884381E0,-1.477959185E1,-5.645591378E0,1.813449081E1
1.665062000E0,-7.347832798E0,-1.288814857E1,-2.998016569E0,1.513549218E1
1.675096000E0,-4.819269878E0,-1.036215491E1,1.367583342E-1,1.142883719E1
1.685130000E0,-1.910014335E0,-7.494954007E0,3.442772164E0,8.466118975E0
1.695164000E0,3.501122698E-1,-4.784209388E0,5.967370087E0,7.656418473E0
1.705198000E0,2.379092593E0,-3.265533117E0,7.145081765E0,8.208287369E0
1.715233000E0,2.810698969E0,-1.976052496E0,6.853338448E0,7.666358983E0
1.725267000E0,2.800561651E0,-1.238391743E0,6.058593083E0,6.788468886E0
1.735301000E0,2.808262142E0,-1.062219813E0,5.119809746E0,5.935242120E0
1.745335000E0,2.660372317E0,-1.204221200E0,4.131332093E0,5.059212827E0
1.755369000E0,1.920008689E0,-1.762544340E0,3.395272892E0,4.280289001E0
1.765403000E0,9.164949203E-1,-2.807218414E0,2.849416015E0,4.103609361E0
1.775438000E0,-1.249017888E-1,-4.162211239E0,2.105241464E0,4.666009481E0
1.785472000E0,-1.320990389E0,-5.505229551E0,1.400545997E0,5.832160586E0
1.795506000E0,-2.522005852E0,-6.753853921E0,7.759572382E-1,7.251011374E0
1.805540000E0,-3.357967949E0,-7.887431400E0,2.422460514E-1,8.575908464E0
1.815574000E0,-3.702975014E0,-8.620617279E0,-9.609255731E-2,9.382766117E0
1.825608000E0,-3.777101044E0,-8.934979965E0,-1.729163463E-1,9.702075002E0
1.835643000E0,-3.507399099E0,-9.083061286E0,-1.296742862E-1,9.737590369E0
1.845677000E0,-2.967805760E0,-9.050156665E0,-1.668217935E-1,9.525808952E0
1.855711000E0,-2.211556123E0,-8.816379721E0,-3.199678266E-1,9.095158672E0
1.865745000E0,-1.704821505E0,-8.506823446E0,-6.905364342E-1,8.703407498E0
1.875779375E0,-1.763778395E0,-7.746473742E0,-1.639882181E0,8.112211982E0
1.885813375E0,-2.581190785E0,-6.706220164E0,-2.965974120E0,7.773862440E0
1.895848375E0,-3.255703363E0,-5.625761130E0,-4.310008385E0,7.799036156E0
1.905882375E0,-3.390883387E0,-4.014726918E0,-4.964756205E0,7.229448565E0
1.915916375E0,-2.947152810E0,-1.300473971E0,-4.494161764E0,5.529415177E0
1.925950375E0,-2.202585910E0,2.020547469E0,-3.565798166E0,4.652839275E0
1.935984375E0,-1.888377883E0,5.671545998E0,-2.691534176E0,6.555666348E0
1.946019375E0,-1.637983298E0,1.036683502E1,-1.737453938E0,1.063828012E1
1.956053375E0,-1.771154804E0,1.591976616E1,-1.242292859E-1,1.601846987E1
1.966087375E0,-1.904048275E0,2.132179235E1,1.492302405E0,2.145859258E1
1.976121375E0,-1.093131265E0,2.554099816E1,3.090379187E0,2.575049449E1
1.986155375E0,2.406919785E0,2.832168366E1,5.300391061E0,2.891375406E1
1.996189375E0,6.826412605E0,3.038732720E1,8.233601185E0,3.221462015E1
2.006224375E0,1.139324357E1,3.132667304E1,9.666695269E0,3.470751273E1
2.016258375E0,1.506522132E1,3.100202159E1,9.404123712E0,3.572847294E1
2.026292375E0,1.581004433E1,2.934133282E1,7.331848265E0,3.412663641E1
2.036326375E0,1.419686185E1,2.636143502E1,4.298685837E0,3.024822049E1
2.046360375E0,1.112344134E1,2.206952260E1,1.633140780E0,2.476816351E1
2.056394375E0,7.587136531E0,1.677559622E1,3.418943371E-1,1.841472674E1
2.066429375E0,4.267462582E0,1.095005035E1,-1.979593132E-1,1.175389414E1
2.076463375E0,1.833271822E0,5.471280032E0,-4.398884090E-1,5.786993397E0
2.086497375E0,4.497692898E-1,4.828537130E-1,-1.116389662E0,1.296829210E0
2.096531375E0,-3.685986076E-1,-3.836914260E0,-2.521324652E0,4.605958529E0
2.106565375E0,-9.927116952E-1,-7.445595905E0,-4.207993183E0,8.609853746E0
2.116600375E0,-1.545536041E0,-1.063340842E1,-5.562896546E0,1.209974686E1
2.126634375E0,-2.357280724E0,-1.331633666E1,-6.183725252E0,1.487010600E1
2.136668375E0,-3.131318468E0,-1.543668674E1,-6.182048271E0,1.692082072E1
2.146702375E0,-4.044902059E0,-1.692695958E1,-5.956778440E0,1.839473845E1
2.156736375E0,-5.105012197E0,-1.773856247E1,-5.660082532E0,1.930684548E1
2.166770375E0,-6.262538118E0,-1.801935512E1,-5.332015142E0,1.980774919E1
2.176805375E0,-6.991437403E0,-1.802811191E1,-5.456381911E0,2.009141905E1
2.186839375E0,-7.202228943E0,-1.768596326E1,-5.765787912E0,1.994767426E1
2.196873375E0,-6.992225608E0,-1.667019197E1,-5.614094181E0,1.892893480E1
2.206907375E0,-6.222674725E0,-1.518844905E1,-4.828929479E0,1.710933152E1
2.216941375E0,-5.099728069E0,-1.354153165E1,-3.562831873E0,1.490215007E1
2.226975375E0,-3.413080003E0,-1.187798008E1,-1.794798751E0,1.248826763E1
2.237010375E0,-1.602631471E0,-1.011929900E1,1.423019240E-1,1.024640862E1
2.247044375E0,-1.489586958E-1,-8.424455473E0,1.743606963E0,8.604289858E0
2.257078375E0,8.380825889E-1,-7.213921620E0,2.841523443E0,7.798544931E0
2.267112375E0,1.375069824E0,-6.400255834E0,3.446822530E0,7.398288810E0
2.277146375E0,1.388465503E0,-5.892934447E0,3.575822632E0,7.031430889E0
2.287180375E0,9.997727197E-1,-5.815302719E0,3.356549122E0,6.788498598E0
2.297215375E0,6.248536375E-1,-6.046306329E0,2.945039041E0,6.754370233E0
2.307249375E0,1.615693858E-1,-6.378940394E0,2.381048779E0,6.810754621E0
2.317283375E0,-3.951951796E-1,-6.570812683E0,1.838508443E0,6.834608389E0
2.327317375E0,-7.502150175E-1,-6.709136170E0,1.302360867E0,6.875425409E0
2.337351375E0,-9.795252737E-1,-6.788268294E0,7.554981961E-1,6.900060414E0
2.347385375E0,-1.059271647E0,-6.690950160E0,2.392095923E-1,6.778502172E0
2.357420375E0,-1.088663554E0,-6.539571594E0,-1.955975497E-1,6.632453797E0
2.367454375E0,-1.130861447E0,-6.480777841E0,-5.933725208E-1,6.605408389E0
2.377488375E0,-1.214710520E0,-6.405402553E0,-9.282033849E-1,6.585306754E0
2.387522375E0,-1.277687079E0,-6.229619463E0,-1.238943136E0,6.478859701E0
2.397556375E0,-1.492392160E0,-6.075872190E0,-1.540756527E0,6.443398785E0
2.407590375E0,-1.835290281E0,-5.818980618E0,-1.787418981E0,6.357962917E0
2.417625375E0,-2.047852358E0,-5.086746081E0,-1.718484986E0,5.746466359E0
2.427659375E0,-1.814419961E0,-3.644759551E0,-1.350872292E0,4.289667577E0
2.437693375E0,-1.420647116E0,-1.360593288E0,-8.377570452E-1,2.138057340E0
2.447727375E0,-1.180292785E0,1.765018882E0,-9.487238958E-2,2.125413721E0
2.457761375E0,-9.852242625E-1,5.526826826E0,4.486625580E-1,5.631854020E0
2.467795375E0,-1.550620780E0,1.019938597E1,1.374715776E0,1.040777317E1
2.477830375E0,-2.410895306E0,1.573427962E1,2.881366371E0,1.617659554E1
2.487864375E0,-2.144084517E0,2.132835995E1,4.348302385E0,2.187244317E1
2.497898375E0,-4.508168185E-1,2.568247505E1,5.081606963E0,2.618426034E1
2.507932375E0,1.198564019E0,2.881419931E1,5.785382516E0,2.941369220E1
2.517966375E0,3.633247260E0,3.000234418E1,6.893973674E0,3.099787114E1
2.528001375E0,6.018681158E0,2.994342997E1,9.170802265E0,3.188945179E1
2.538035375E0,7.617773602E0,2.914433779E1,1.227460724E1,3.252827820E1
2.548069375E0,8.462053070E0,2.683886486E1,1.496853761E1,3.187456866E1
2.558103375E0,7.627716792E0,2.328618316E1,1.662118529E1,2.960898833E1
2.568137375E0,5.733374457E0,1.872374463E1,1.792708372E1,2.654864453E1
2.578171375E0,3.842844214E0,1.378754038E1,1.862408118E1,2.348872328E1
2.588206375E0,2.409961798E0,9.140663377E0,1.787803493E1,2.022334730E1
2.598240375E0,1.389831413E0,5.317494752E0,1.526677718E1,1.622596276E1
2.608274375E0,1.176564308E0,1.929878204E0,1.111443429E1,1.134193030E1
2.618308375E0,1.792164142E0,-1.090999224E0,6.373003716E0,6.709493869E0
2.628342375E0,2.975501280E0,-3.779899229E0,2.019322477E0,5.217174458E0
2.638376375E0,3.884579300E0,-6.284956343E0,-2.010260462E0,7.657139132E0
2.648411375E0,3.848772413E0,-8.454242359E0,-6.151112407E0,1.114107027E1
2.658445375E0,2.925256156E0,-1.034505882E1,-1.007421229E1,1.473319785E1
2.668479375E0,1.569584908E0,-1.193867886E1,-1.299053214E1,1.771297759E1
2.678513375E0,-1.352183238E-1,-1.313875438E1,-1.468877641E1,1.970800099E1
2.688547375E0,-1.807477415E0,-1.406546322E1,-1.550671066E1,2.101338397E1
2.698581375E0,-3.259654911E0,-1.466620615E1,-1.560652146E1,2.166302069E1
2.708616375E0,-4.436320815E0,-1.495654146E1,-1.529074492E1,2.184458640E1
2.718650375E0,-5.172807155E0,-1.511128101E1,-1.451765179E1,2.158404413E1
2.728684375E0,-5.213880336E0,-1.509809904E1,-1.285606840E1,2.050403955E1
2.738718375E0,-4.773635284E0,-1.490719096E1,-1.082514213E1,1.903143815E1
2.748752375E0,-4.640890625E0,-1.454793803E1,-8.802107837E0,1.762547784E1
2.758786375E0,-4.439635894E0,-1.411111126E1,-6.930408259E0,1.633598441E1
2.768821375E0,-4.240004642E0,-1.356640570E1,-5.207736082E0,1.513755324E1
2.778855375E0,-3.783093856E0,-1.291095037E1,-3.492467065E0,1.389970376E1
2.788889375E0,-3.109256338E0,-1.205002856E1,-1.901309001E0,1.258910795E1
2.798923375E0,-2.219875396E0,-1.105128202E1,-6.516501112E-1,1.129085156E1
2.808957375E0,-1.087538988E0,-9.939356782E0,3.649188817E-1,1.000533458E1
2.818991375E0,-2.667172337E-1,-8.855005842E0,1.137119138E0,8.931702329E0
2.829026375E0,4.556281999E-2,-8.097517766E0,1.415501567E0,8.220432752E0
2.839060375E0,1.933215210E-1,-7.511181200E0,1.365964540E0,7.636823643E0
2.849094375E0,1.115992270E-1,-6.898061462E0,1.127939009E0,6.990561689E0
2.859128375E0,-4.656259154E-1,-6.313440469E0,6.053084421E-1,6.359460383E0
2.869162375E0,-9.639142312E-1,-5.846176018E0,6.626050159E-2,5.925478472E0
2.879196542E0,-1.013356240E0,-5.417085698E0,-2.106811734E-1,5.515078865E0
2.889231542E0,-7.649179874E-1,-4.902607319E0,6.245177150E-2,4.962313803E0
2.899265542E0,-4.654095684E-1,-4.311966033E0,6.496262437E-1,4.385392958E0
2.909299542E0,-2.756336528E-1,-3.656734064E0,1.164869292E0,3.847674413E0
2.919333542E0,-3.275667219E-1,-2.890914289E0,1.662688954E0,3.351002826E0
2.929367542E0,-7.055669944E-1,-1.906344915E0,2.226002839E0,3.014475802E0
2.939401542E0,-1.029556828E0,-2.522494680E-1,3.314442445E0,3.479819791E0
2.949436542E0,-7.365037353E-1,2.209720683E0,4.941822256E0,5.463232601E0
2.959470542E0,2.118355599E-1,5.247382543E0,6.786144000E0,8.580888547E0
2.969504542E0,9.742911386E-1,8.672886125E0,8.388494512E0,1.210516572E1
2.979538542E0,1.094605641E0,1.236637812E1,9.318196539E0,1.552270132E1
2.989572542E0,5.082179113E-1,1.580707277E1,9.793935360E0,1.860223118E1
2.999607542E0,-4.299951759E-1,1.862374087E1,9.003908113E0,2.069055295E1
3.009641542E0,4.115347852E-1,2.070151270E1,7.626886488E0,2.206561548E1
3.019675542E0,2.491113258E0,2.343420192E1,7.069540417E0,2.460377749E1
3.029709542E0,5.302061611E0,2.653108847E1,7.364339488E0,2.804004296E1
3.039743542E0,7.342555102E0,2.757571460E1,7.590967627E0,2.952890009E1
3.049777542E0,6.170024056E0,2.650678277E1,5.820602635E0,2.783088473E1
3.059812542E0,3.249076713E0,2.423698955E1,3.452577067E0,2.469632463E1
3.069846542E0,1.687217146E0,2.109696925E1,2.846287170E0,2.135486277E1
3.079880542E0,1.347093090E0,1.744919780E1,3.536737212E0,1.785490615E1
3.089914542E0,1.620356282E0,1.351518877E1,4.232193639E0,1.425473062E1
3.099948542E0,2.229326835E0,9.225381930E0,4.743258706E0,1.061018723E1
3.109982542E0,2.636084445E0,4.590757767E0,4.515942643E0,6.958285423E0
3.120017542E0,2.608634399E0,1.513499147E-1,3.062996677E0,4.026143175E0
3.130051542E0,2.098882617E0,-3.778498237E0,7.898989007E-1,4.393893198E0
3.140085542E0,1.050882647E0,-7.297357879E0,-2.319039642E0,7.728760004E0
3.150119542E0,-4.810986713E-2,-1.016689767E1,-5.484625132E0,1.155202301E1
3.160153542E0,-1.378873731E0,-1.216960061E1,-7.969191263E0,1.461192941E1
3.170187542E0,-3.062485630E0,-1.341556157E1,-9.804972564E0,1.689655579E1
3.180222542E0,-4.788187542E0,-1.445865690E1,-1.094766117E1,1.875715289E1
3.190256542E0,-6.228962821E0,-1.521329270E1,-1.185697338E1,2.026899283E1
3.200290542E0,-7.394903469E0,-1.552271098E1,-1.218546410E1,2.107426604E1
3.210324542E0,-8.184840084E0,-1.517084425E1,-1.175544349E1,2.086472081E1
3.220358542E0,-7.898486146E0,-1.431341206E1,-1.047593939E1,1.941662057E1
3.230392542E0,-6.769703969E0,-1.298666830E1,-8.528387393E0,1.694744338E1
3.240427542E0,-5.603738762E0,-1.122938119E1,-6.220279706E0,1.400688294E1
3.250461542E0,-4.335814487E0,-9.286528603E0,-3.763535796E0,1.091801733E1
3.260495542E0,-2.992944402E0,-7.606665646E0,-1.153741164E0,8.255313266E0
3.270529542E0,-1.560397032E0,-6.315553653E0,1.257914135E0,6.625964444E0
3.280563542E0,-4.239038390E-1,-5.348936985E0,3.070865859E0,6.182316593E0
3.290597542E0,1.738543859E-1,-4.713572100E0,4.040500860E0,6.210767625E0
3.300632542E0,3.928916690E-1,-4.457667537E0,4.085694575E0,6.059543208E0
3.310666542E0,2.827985385E-1,-4.508965745E0,3.269021858E0,5.576490923E0
3.320700542E0,-8.139762729E-2,-4.726371655E0,2.047256965E0,5.151356683E0
3.330734542E0,-5.431309050E-1,-5.103941572E0,7.868035309E-1,5.192713217E0
3.340768542E0,-9.296941325E-1,-5.645834037E0,-3.173472507E-1,5.730661605E0
3.350803542E0,-1.283156857E0,-6.197703606E0,-1.111803179E0,6.426050717E0
3.360837542E0,-1.394820257E0,-6.693719401E0,-1.536562319E0,7.008025880E0
3.370871542E0,-1.332163833E0,-7.229596251E0,-1.571215258E0,7.517342603E0
3.380905542E0,-1.412010194E0,-7.756326301E0,-1.445590315E0,8.015241845E0
3.390939542E0,-1.699700513E0,-8.127651392E0,-1.253281093E0,8.397524187E0
3.400973542E0,-1.843847243E0,-8.322915650E0,-1.016928158E0,8.585152325E0
3.411008542E0,-2.116245047E0,-8.368154388E0,-9.447042274E-1,8.683142694E0
3.421042542E0,-2.148815207E0,-8.068824309E0,-7.024780566E-1,8.379547001E0
3.431076542E0,-1.914646499E0,-7.362214610E0,-3.606024671E-1,7.615648976E0
3.441110542E0,-1.306919941E0,-6.009738427E0,2.776024103E-2,6.150265549E0
3.451144542E0,-9.088336059E-1,-3.840413818E0,3.818173349E-1,3.964913782E0
3.461178542E0,-9.223044214E-1,-8.058182377E-1,4.989119214E-1,1.322460428E0
3.471213542E0,-1.007596002E0,3.240590649E0,9.549351007E-1,3.525418912E0
3.481247542E0,-1.293961050E0,8.291096272E0,1.721286972E0,8.566180095E0
3.491281542E0,-2.738328566E0,1.474436004E1,2.263904930E0,1.516640570E1
3.501315542E0,-2.750766470E0,2.125378690E1,2.686629531E0,2.159879978E1
3.511349542E0,1.784880266E0,2.554993037E1,3.688899012E0,2.587648962E1
3.521383542E0,1.035366709E1,2.659258481E1,5.940423194E0,2.914880129E1
3.531418542E0,1.126295708E1,3.081692213E1,9.594435378E0,3.418464687E1
3.541452542E0,6.652816958E0,3.594889935E1,1.314452909E1,3.885050814E1
3.551486542E0,1.723931813E0,3.786605635E1,1.437406523E1,4.053916520E1
3.561520542E0,2.269807694E0,3.281465610E1,1.259069720E1,3.522043921E1
3.571554542E0,7.104135468E0,2.378173001E1,9.049028737E0,2.641825778E1
3.581588542E0,3.815258220E0,2.150593755E1,7.735276324E0,2.317101735E1
3.591623542E0,2.876819576E0,1.607962319E1,7.058799081E0,1.779485929E1
3.601657542E0,3.317080416E0,9.635284612E0,5.087959378E0,1.138986667E1
3.611691542E0,3.458883289E0,4.541847562E0,3.597202976E0,6.747749413E0
3.621725542E0,3.700799266E0,-2.914825308E-1,1.640951930E0,4.058768348E0
3.631759542E0,3.981358613E0,-4.862935131E0,-4.617687996E-1,6.301792198E0
3.641793542E0,4.069888966E0,-8.438712155E0,-2.651008294E0,9.736719365E0
3.651828542E0,3.634972481E0,-1.114243310E1,-5.020034028E0,1.275019929E1
3.661862542E0,2.563281932E0,-1.318674950E1,-7.023988853E0,1.515906316E1
3.671896542E0,7.644309144E-1,-1.472800421E1,-8.472725993E0,1.700839641E1
3.681930542E0,-1.640088003E0,-1.616963990E1,-9.640250067E0,1.889660193E1
3.691964542E0,-4.258816597E0,-1.748622588E1,-1.057320315E1,2.087338590E1
3.701998542E0,-6.183464466E0,-1.823365791E1,-1.088975620E1,2.211986220E1
3.712033542E0,-6.945803978E0,-1.829032211E1,-1.038462459E1,2.214995494E1
3.722067542E0,-7.174534775E0,-1.751699977E1,-9.233929975E0,2.106145040E1
3.732101542E0,-6.825512134E0,-1.617950065E1,-7.685857996E0,1.916862724E1
3.742135542E0,-5.795934402E0,-1.442735324E1,-5.746361123E0,1.657594774E1
3.752169542E0,-4.572302785E0,-1.252246487E1,-3.798728433E0,1.386176096E1
3.762203542E0,-3.556340587E0,-1.070184774E1,-2.145702442E0,1.147959678E1
3.772238542E0,-2.702083138E0,-9.195283973E0,-8.170735431E-1,9.618841396E0
3.782272542E0,-2.122305978E0,-8.037635846E0,1.904935151E-1,8.315290760E0
3.792306542E0,-1.525542949E0,-7.206856429E0,8.292854530E-1,7.413081359E0
3.802340542E0,-9.129105771E-1,-6.726659691E0,1.126764377E0,6.881202967E0
3.812374542E0,-4.495719463E-1,-6.272043352E0,1.133233078E0,6.389433461E0
3.822408542E0,-1.660112232E-1,-5.887213531E0,8.508295190E-1,5.950693553E0
3.832443542E0,-6.295989454E-2,-5.766555651E0,2.167270482E-1,5.770970338E0
3.842477542E0,-2.815057191E-1,-5.905101918E0,-5.111032198E-1,5.933860517E0
3.852511542E0,-8.031083456E-1,-6.198359663E0,-1.001930488E0,6.329969213E0
3.862545542E0,-1.498086179E0,-6.759322822E0,-1.384411482E0,7.060403839E0
3.872579542E0,-2.073428518E0,-7.383763939E0,-1.611255968E0,7.836786428E0
3.882613625E0,-2.343214662E0,-7.729929630E0,-1.375867531E0,8.193624259E0
3.892648625E0,-2.420850776E0,-7.926606576E0,-9.523762129E-1,8.342579382E0
3.902682625E0,-2.175918806E0,-7.935016041E0,-4.757405752E-1,8.241688621E0
3.912716625E0,-1.703700740E0,-7.677151492E0,3.446058007E-1,7.871467741E0
3.922750625E0,-8.018568952E-1,-6.804738731E0,1.437309927E0,7.000950186E0
3.932784625E0,1.008957526E-1,-5.488352732E0,1.990139024E0,5.838908203E0
3.942819625E0,5.171914870E-1,-4.075026914E0,1.011609238E0,4.230447333E0
3.952853625E0,8.203342429E-1,-2.517209381E0,-5.574331945E-1,2.705554122E0
3.962887625E0,1.011292465E0,-4.427839136E-1,-1.311368649E0,1.714193040E0
3.972921625E0,1.331166152E0,2.283809583E0,-5.736114170E-1,2.704962031E0
3.982955625E0,1.590028382E0,5.763189409E0,1.109302179E0,6.080550448E0
3.992989625E0,2.231971238E0,9.473556474E0,2.686204439E0,1.009681446E1
4.003024625E0,2.801099595E0,1.286784586E1,4.385225798E0,1.388012325E1
4.013058625E0,1.552867280E0,1.655200922E1,5.045733710E0,1.737353834E1
4.023092625E0,-7.407593389E-1,1.979708176E1,3.809660972E0,2.017391105E1
4.033126625E0,-1.534806985E0,2.150908803E1,2.547855808E0,2.171377603E1
4.043160625E0,-1.637813144E-1,2.223852116E1,3.760633239E0,2.255484450E1
4.053194625E0,8.975715031E-1,2.339966593E1,6.646953371E0,2.434197998E1
4.063229625E0,1.959422430E0,2.410984769E1,9.096250266E0,2.584310083E1
4.073263625E0,2.166314462E0,2.354866935E1,9.950013918E0,2.565610110E1
4.083297625E0,1.146902553E0,2.229798969E1,8.531831988E0,2.390204775E1
4.093331625E0,8.205692279E-1,2.022582534E1,6.974191625E0,2.141020068E1
4.103365625E0,1.362594790E0,1.714275458E1,6.428164594E0,1.835897599E1
4.113399625E0,1.957182654E0,1.328876119E1,6.113188536E0,1.475780512E1
4.123434625E0,2.083514087E0,9.104650376E0,5.248134495E0,1.071347773E1
4.133468625E0,1.551018098E0,4.682491810E0,3.404533128E0,5.993515872E0
4.143502625E0,1.196326070E0,8.392719126E-1,1.167460778E0,1.870437937E0
4.153536625E0,1.298139324E0,-2.604939251E0,-1.317887564E0,3.194949426E0
4.163570625E0,1.675506343E0,-5.371860409E0,-3.326085713E0,6.536593297E0
4.173604625E0,1.926186710E0,-7.535044271E0,-4.798362574E0,9.138455603E0
4.183639625E0,1.940984990E0,-9.339179272E0,-5.782053112E0,1.115436374E1
4.193673625E0,1.586695908E0,-1.066802510E1,-6.359936943E0,1.252090897E1
4.203707625E0,8.906975164E-1,-1.166585713E1,-6.878070416E0,1.357178755E1
4.213741625E0,-5.840929896E-2,-1.247630461E1,-7.813830743E0,1.472132940E1
4.223775625E0,-1.113981413E0,-1.302915651E1,-9.071951576E0,1.591540698E1
4.233809625E0,-1.891878904E0,-1.316758116E1,-9.919249377E0,1.659385150E1
4.243844625E0,-2.388799117E0,-1.276707729E1,-9.832079086E0,1.629031623E1
4.253878625E0,-2.301827193E0,-1.197895799E1,-8.737175092E0,1.500440174E1
4.263912625E0,-1.815942429E0,-1.095997892E1,-6.796821016E0,1.302365389E1
4.273946625E0,-1.398786277E0,-9.925279026E0,-4.624635365E0,1.103879609E1
4.283980625E0,-8.956695501E-1,-9.146424639E0,-2.785408007E0,9.603010225E0
4.294014625E0,-3.959010116E-1,-8.666491025E0,-1.170577490E0,8.754145073E0
4.304049625E0,-2.086589869E-1,-8.429212183E0,3.527420551E-1,8.439169601E0
4.314083625E0,-3.991809341E-1,-8.311682564E0,1.110321348E0,8.395011969E0
4.324117625E0,-6.640538098E-1,-8.328756434E0,7.781623694E-1,8.391346010E0
4.334151625E0,-1.023233065E0,-8.275238623E0,-4.005781263E-2,8.338356241E0
4.344185625E0,-1.418242449E0,-8.108617535E0,-1.165408844E0,8.313799838E0
4.354219625E0,-1.391622269E0,-7.965199369E0,-2.143766429E0,8.365210578E0
4.364254625E0,-9.958626866E-1,-7.847137068E0,-2.627242578E0,8.334968879E0
4.374288625E0,-6.291579191E-1,-7.665731880E0,-2.604883118E0,8.120634273E0
4.384322625E0,-4.168533394E-1,-7.460836088E0,-2.456362086E0,7.865847477E0
4.394356625E0,-3.247251578E-1,-7.435127050E0,-2.380791794E0,7.813752635E0
4.404390625E0,-4.002109212E-1,-7.378281004E0,-2.219679368E0,7.715320853E0
4.414424625E0,-7.156952490E-1,-7.109005029E0,-2.225460802E0,7.483505060E0
4.424459625E0,-8.135308613E-1,-6.595578564E0,-2.443494118E0,7.080547477E0
4.434493625E0,-4.145217988E-1,-5.612555194E0,-1.905857257E0,5.941792323E0
4.444527625E0,5.328472241E-1,-4.159958307E0,-4.794939029E-1,4.221266833E0
4.454561625E0,1.359695594E0,-2.144090949E0,1.422104242E0,2.910030684E0
4.464595625E0,1.947329219E0,3.489127135E-1,3.551098558E0,4.064988578E0
4.474630625E0,2.579286346E0,2.938342225E0,5.508310449E0,6.754854335E0
4.484664625E0,2.773379700E0,5.831381392E0,7.442593945E0,9.853367370E0
4.494698625E0,2.228675601E0,9.064415685E0,9.210366865E0,1.311340857E1
4.504732625E0,9.672682672E-1,1.219963892E1,9.877869802E0,1.572701846E1
4.514766625E0,-1.057644879E0,1.487919449E1,9.120351904E0,1.748398868E1
4.524800625E0,-2.880649795E0,1.684177033E1,8.282790887E0,1.898810143E1
4.534834625E0,-3.085248840E0,1.771211668E1,8.534166781E0,1.990150347E1
4.544869625E0,-2.859144028E0,1.750853418E1,9.921274853E0,2.032621874E1
4.554903625E0,-3.953806825E0,1.849403209E1,1.068796294E1,2.172312968E1
4.564937625E0,-3.770473225E0,1.944655287E1,1.078766732E1,2.255567896E1
4.574971625E0,-3.134903980E0,1.916594616E1,9.862242533E0,2.178129801E1
4.585005625E0,-2.330286176E0,1.794135092E1,8.297891906E0,1.990420349E1
4.595040625E0,-7.351270815E-1,1.589203165E1,7.013049881E0,1.738620000E1
4.605074625E0,1.223322445E0,1.326921512E1,6.310744318E0,1.474428979E1
4.615108625E0,2.482907860E0,1.008248259E1,5.634536632E0,1.181394471E1
4.625142625E0,2.600583660E0,6.455122597E0,4.059155817E0,8.056574276E0
4.635176625E0,2.151352314E0,2.663910175E0,1.962736632E0,3.946779610E0
4.645210625E0,1.351773055E0,-8.006703490E-1,-3.631395739E-1,1.612524031E0
4.655245625E0,7.202560041E-1,-3.698295488E0,-2.942900130E0,4.780880609E0
4.665279625E0,3.801773005E-1,-6.087137436E0,-5.061170359E0,7.925479313E0
4.675313625E0,3.637318969E-2,-8.093212461E0,-6.540933995E0,1.040601886E1
4.685347625E0,-5.396169477E-1,-9.628932196E0,-7.461744161E0,1.219365194E1
4.695381625E0,-1.094350483E0,-1.058542733E1,-7.969365510E0,1.329509915E1
4.705415625E0,-1.362969450E0,-1.111475472E1,-8.345211083E0,1.396560082E1
4.715450625E0,-1.516718624E0,-1.145092752E1,-9.015003204E0,1.465245574E1
4.725484625E0,-1.704187374E0,-1.158674664E1,-9.967669001E0,1.537892641E1
4.735518625E0,-1.961742313E0,-1.131388048E1,-1.068550945E1,1.568542114E1
4.745552625E0,-2.360899858E0,-1.055791852E1,-1.107301144E1,1.548079695E1
4.755586625E0,-2.438699548E0,-9.753732244E0,-1.113201687E1,1.500014492E1
4.765620625E0,-2.166605507E0,-8.853752784E0,-1.070197404E1,1.405757326E1
4.775655625E0,-1.713397616E0,-7.696362519E0,-9.474220133E0,1.232601211E1
4.785689625E0,-9.808914757E-1,-6.563611836E0,-7.753230200E0,1.020567131E1
4.795723625E0,-2.066158967E-1,-5.691732341E0,-6.341215328E0,8.523468719E0
4.805757625E0,3.743945870E-1,-5.052693651E0,-5.291540716E0,7.326000790E0
4.815791625E0,7.809248865E-1,-4.614936588E0,-4.389415913E0,6.416732459E0
4.825825625E0,9.128978594E-1,-4.345935432E0,-3.755150597E0,5.815642122E0
4.835860625E0,7.565895058E-1,-4.289718547E0,-3.564857056E0,5.628704889E0
4.845894625E0,5.438369563E-1,-4.563649490E0,-3.640212756E0,5.862917722E0
4.855928625E0,4.083648634E-1,-4.850689892E0,-3.619042912E0,6.065758475E0
4.865962625E0,2.083244531E-1,-4.920619082E0,-3.478926083E0,6.029827354E0
4.875996625E0,-8.132614508E-2,-5.103918183E0,-3.538904482E0,6.211315456E0
4.886030375E0,-5.453236109E-1,-5.418396644E0,-3.614652237E0,6.536215329E0
4.896065375E0,-1.136459426E0,-5.638850123E0,-3.542357263E0,6.755476720E0
4.906099375E0,-1.297333285E0,-5.547759274E0,-3.041247373E0,6.458319611E0
4.916133375E0,-1.031516230E0,-5.144994873E0,-2.020449235E0,5.622918557E0
4.926167375E0,-5.433681558E-1,-4.598996494E0,-8.221705610E-1,4.703401124E0
4.936201375E0,-2.015182941E-1,-3.866495908E0,8.248433232E-2,3.872622354E0
4.946236375E0,2.007865150E-1,-2.556189260E0,9.552362323E-1,2.736219110E0
4.956270375E0,7.288155238E-1,-5.495727825E-1,2.491045430E0,2.653018968E0
4.966304375E0,1.290682954E0,2.346916242E0,4.750888445E0,5.453881128E0
4.976338375E0,1.640756633E0,6.145468674E0,7.274801660E0,9.663415894E0
4.986372375E0,1.672588728E0,1.087670521E1,9.384541386E0,1.446270674E1
4.996406375E0,1.596845651E0,1.572803245E1,1.047439573E1,1.896401557E1
5.006441375E0,1.663641904E0,2.013259031E1,1.143081310E1,2.321104016E1
5.016475375E0,3.747088163E0,2.279498664E1,1.288472561E1,2.645124269E1
5.026509375E0,5.483844529E0,2.429458696E1,1.498896544E1,2.906834346E1
5.036543375E0,4.740489757E0,2.656587941E1,1.578105383E1,3.126115564E1
5.046577375E0,4.698819575E0,2.753695224E1,1.607869465E1,3.223177106E1
5.056611375E0,4.264150427E0,2.689608337E1,1.537361634E1,3.127187808E1
5.066646375E0,2.773425016E0,2.479636226E1,1.316459206E1,2.821095446E1
5.076680375E0,1.471859078E0,2.154376436E1,1.079723570E1,2.414291719E1
5.086714375E0,9.711076221E-1,1.773306726E1,8.889435418E0,1.986018092E1
5.096748375E0,1.227906955E0,1.326206748E1,6.818864434E0,1.496285740E1
5.106782375E0,1.301638151E0,8.250776796E0,4.244553776E0,9.369408539E0
5.116816375E0,9.076042289E-1,3.071003269E0,1.180991966E0,3.413143498E0
5.126851375E0,1.918187866E-1,-1.832746012E0,-2.023790919E0,2.737057192E0
5.136885375E0,-6.084840649E-1,-5.989753813E0,-4.771513037E0,7.682105197E0
5.146919375E0,-9.578255256E-1,-9.148425556E0,-6.777183727E0,1.142546888E1
5.156953375E0,-8.888199024E-1,-1.179405032E1,-8.137698662E0,1.435659302E1
5.166987375E0,-1.029335657E0,-1.401840950E1,-8.881883154E0,1.662718212E1
5.177021375E0,-1.942089529E0,-1.549662889E1,-9.512515887E0,1.828674868E1
5.187056375E0,-3.355518842E0,-1.655325701E1,-1.055750454E1,1.991810048E1
5.197090375E0,-4.689535366E0,-1.757217176E1,-1.171106546E1,2.163150519E1
5.207124375E0,-5.791362464E0,-1.818083183E1,-1.250388943E1,2.281293002E1
5.217158375E0,-6.540620584E0,-1.790484091E1,-1.260767985E1,2.285424768E1
5.227192375E0,-6.531342807E0,-1.695379947E1,-1.193185399E1,2.173611959E1
5.237226375E0,-5.759078817E0,-1.549893620E1,-1.057170977E1,1.962511298E1
5.247261375E0,-4.472971455E0,-1.354291159E1,-8.626912977E0,1.666857989E1
5.257295375E0,-2.760230189E0,-1.135255630E1,-6.127130052E0,1.319246482E1
5.267329375E0,-1.229434832E0,-9.148776389E0,-3.587288730E0,9.903547842E0
5.277363375E0,-1.036404356E-2,-7.372353097E0,-1.460555533E0,7.515645020E0
5.287397375E0,9.587790602E-1,-6.222581170E0,1.498904496E-2,6.296030366E0
5.297431375E0,1.424276337E0,-5.465813470E0,1.086237836E0,5.751833847E0
5.307466375E0,1.471083737E0,-4.984909219E0,1.530069279E0,5.417981107E0
5.317500375E0,1.416866891E0,-4.614780468E0,1.320560911E0,5.004756904E0
5.327534375E0,1.481413428E0,-4.390211134E0,9.038865691E-1,4.720757405E0
5.337568375E0,1.444716302E0,-4.388702552E0,3.391823620E-1,4.632813396E0
5.347602375E0,1.116049281E0,-4.656382238E0,-3.241591108E-1,4.799222924E0
5.357637375E0,4.598636305E-1,-5.270041088E0,-9.164089662E-1,5.368855840E0
5.367671375E0,-3.620128155E-1,-6.125089958E0,-1.511276912E0,6.319156445E0
5.377705375E0,-9.888504133E-1,-6.868824799E0,-1.899986653E0,7.195034992E0
5.387739375E0,-1.400162273E0,-7.358263062E0,-2.071763815E0,7.771531058E0
5.397773375E0,-1.801785005E0,-7.774199485E0,-2.422123130E0,8.339741440E0
5.407807375E0,-2.242561569E0,-8.051728805E0,-2.734128218E0,8.794025031E0
5.417842375E0,-2.553820845E0,-7.929077609E0,-2.926416829E0,8.829280157E0
5.427876375E0,-2.322414947E0,-7.500006001E0,-2.899584248E0,8.369664869E0
5.437910375E0,-1.914109140E0,-6.850121895E0,-2.671384378E0,7.597649523E0
5.447944375E0,-1.809307448E0,-6.215624152E0,-2.603927975E0,6.977679983E0
5.457978375E0,-1.968492047E0,-5.432660342E0,-2.337446969E0,6.233170755E0
5.468012375E0,-2.458272079E0,-3.678347712E0,-1.675106247E0,4.730679068E0
5.478047375E0,-3.227881141E0,-3.850742340E-1,-8.347420746E-1,3.356231988E0
5.488081375E0,-3.105197201E0,4.380784253E0,5.366077513E-1,5.396431062E0
5.498115375E0,-1.257257200E0,9.920180254E0,3.784238448E0,1.069163844E1
5.508149375E0,1.239703274E0,1.652329237E1,8.006495329E0,1.840271780E1
5.518183375E0,5.521471946E0,2.292018489E1,1.231657505E1,2.659923963E1
5.528217375E0,1.006523798E1,2.679767005E1,1.562805208E1,3.261380302E1
5.538252375E0,1.207582296E1,2.968736169E1,1.680341025E1,3.618728424E1
5.548286375E0,1.245714211E1,3.194807769E1,1.540494572E1,3.759218550E1
5.558320375E0,1.272120939E1,3.219424313E1,1.248227813E1,3.679817559E1
5.568354375E0,1.191754117E1,3.080767885E1,9.456485528E0,3.435936528E1
5.578388375E0,1.067710232E1,2.773091841E1,7.811573718E0,3.072499038E1
5.588422375E0,9.238454551E0,2.320064542E1,7.193562199E0,2.598781113E1
5.598457375E0,7.261668229E0,1.790657519E1,6.543479873E0,2.040084286E1
5.608491375E0,5.118120486E0,1.204536832E1,5.175016233E0,1.407362243E1
5.618525375E0,2.904845865E0,6.098464662E0,3.141925902E0,7.449905980E0
5.628559375E0,6.081449264E-1,5.331894690E-1,7.859838974E-1,1.127786304E0
5.638593375E0,-1.265383368E0,-3.980981467E0,-1.271143168E0,4.366373033E0
5.648628375E0,-2.238083771E0,-7.411010209E0,-3.094910487E0,8.337299456E0
5.658662375E0,-2.409618275E0,-9.967142751E0,-4.654059431E0,1.126101523E1
5.668696375E0,-2.353089440E0,-1.194667785E1,-5.875643646E0,1.351973853E1
5.678730375E0,-2.701676464E0,-1.326862806E1,-6.796039828E0,1.515063377E1
5.688764375E0,-3.686516272E0,-1.404130954E1,-7.902855771E0,1.652888094E1
5.698798375E0,-4.927743330E0,-1.460687329E1,-9.174826319E0,1.793936564E1
5.708833375E0,-5.982317909E0,-1.496004979E1,-1.017204673E1,1.905417938E1
5.718867375E0,-6.688499592E0,-1.506098326E1,-1.087249054E1,1.974285425E1
5.728901375E0,-7.276135409E0,-1.485444206E1,-1.129464782E1,2.002912042E1
5.738935375E0,-7.386851853E0,-1.416452675E1,-1.103138044E1,1.941367437E1
5.748969375E0,-6.919846433E0,-1.296842967E1,-9.856256154E0,1.769774641E1
5.759003375E0,-5.828703368E0,-1.155932086E1,-8.253475871E0,1.535290024E1
5.769038375E0,-4.567270086E0,-1.004118020E1,-6.699164329E0,1.290596988E1
5.779072375E0,-3.280827094E0,-8.469095457E0,-5.017772909E0,1.037629265E1
5.789106375E0,-2.010580890E0,-7.013741022E0,-3.408430882E0,8.053098765E0
5.799140375E0,-1.058248677E0,-5.683535129E0,-2.090958762E0,6.147728880E0
5.809174375E0,-2.626730070E-1,-4.633865195E0,-1.099575335E0,4.769776690E0
5.819208375E0,1.745744705E-1,-3.934539372E0,-3.624724066E-1,3.955055317E0
5.829243375E0,1.579616538E-1,-3.579915099E0,-1.733348608E-1,3.587588183E0
5.839277375E0,-7.900670081E-2,-3.595254099E0,-3.471068010E-1,3.612835068E0
5.849311375E0,-4.517953500E-1,-3.841772711E0,-5.600954318E-1,3.908585869E0
5.859345375E0,-9.667108083E-1,-4.262821355E0,-7.303523183E-1,4.431657726E0
5.869379375E0,-1.421313991E0,-4.754487407E0,-8.562244526E-1,5.035712886E0
5.879413375E0,-1.764772714E0,-5.207949505E0,-1.039956832E0,5.596308694E0
5.889448375E0,-1.738820725E0,-5.522301081E0,-1.068983580E0,5.887447039E0
5.899482375E0,-1.477149931E0,-5.684842567E0,-9.525623006E-1,5.950359810E0
5.909516375E0,-1.416045065E0,-5.750633683E0,-8.099112886E-1,5.977535251E0
5.919550375E0,-1.318064442E0,-5.749715670E0,-5.627500677E-1,5.925640202E0
5.929584375E0,-1.239188426E0,-5.638287036E0,-1.658103713E-1,5.775236942E0
5.939618375E0,-1.233220173E0,-5.431331854E0,-9.577739239E-4,5.569577958E0
5.949653375E0,-1.127692841E0,-4.552324603E0,2.079518393E-1,4.694528134E0
5.959687375E0,-6.342740867E-1,-2.973112693E0,8.039953682E-1,3.144536731E0
5.969721375E0,-3.035660943E-1,-1.462768704E-1,1.692065219E0,1.725292439E0
5.979755375E0,1.089061457E-1,3.782609414E0,2.678959154E0,4.636465968E0
5.989789375E0,5.403508464E-1,8.790406973E0,3.418675203E0,9.447252190E0
5.999823375E0,1.350794232E0,1.493399577E1,4.013389368E0,1.552276293E1
6.009858375E0,4.270986699E0,2.054471611E1,4.633976292E0,2.148954219E1
6.019892375E0,8.949103914E0,2.420586365E1,4.758447726E0,2.624220114E1
6.029926375E0,1.174967931E1,2.717632404E1,3.924193017E0,2.986648361E1
6.039960375E0,1.425347927E1,2.985930257E1,3.828911760E0,3.330765958E1
6.049994375E0,1.664265626E1,3.029701110E1,3.672734969E0,3.476170122E1
6.060029375E0,1.738875630E1,2.829821762E1,2.937335627E0,3.334345373E1
6.070063375E0,1.647066392E1,2.449601418E1,3.765088232E0,2.975757669E1
6.080097375E0,1.395550399E1,1.937167109E1,5.835444623E0,2.457783852E1
6.090131375E0,1.035090370E1,1.393173506E1,7.312843645E0,1.883380289E1
6.100165375E0,6.588208734E0,8.808088369E0,7.194830461E0,1.314353455E1
6.110199375E0,3.192140913E0,4.169837177E0,5.812138206E0,7.833151104E0
6.120234375E0,6.111042023E-2,6.176647782E-2,3.667586496E0,3.668615582E0
6.130268375E0,-2.278107086E0,-3.603928444E0,1.174963487E0,4.422511879E0
6.140302375E0,-3.210011173E0,-6.378465015E0,-2.330207824E0,7.511248643E0
6.150336375E0,-4.424184919E0,-7.698622468E0,-3.801250922E0,9.658763310E0
6.160370375E0,-4.156950499E0,-9.106138492E0,-5.394334767E0,1.137105287E1
6.170404375E0,-3.594936596E0,-1.041023072E1,-6.169020090E0,1.262352097E1
6.180439375E0,-3.765353403E0,-1.125694731E1,-6.818577921E0,1.368903772E1
6.190473375E0,-4.354311569E0,-1.165427029E1,-7.407051060E0,1.447917299E1
6.200507375E0,-4.962331949E0,-1.200780815E1,-8.122740315E0,1.532289480E1
6.210541375E0,-5.340991788E0,-1.205585940E1,-9.075678592E0,1.600743206E1
6.220575375E0,-5.509317339E0,-1.160772879E1,-9.072995889E0,1.572931021E1
6.230609375E0,-5.299961876E0,-1.085942084E1,-8.440303182E0,1.473958394E1
6.240644375E0,-5.119392840E0,-1.014702883E1,-7.422988815E0,1.357465064E1
6.250678375E0,-4.950083202E0,-9.751788045E0,-6.307412574E0,1.262474345E1
6.260712375E0,-4.894918231E0,-9.606415154E0,-5.275179037E0,1.200295591E1
6.270746375E0,-5.069281032E0,-9.684059161E0,-4.362686536E0,1.176909707E1
6.280780375E0,-5.190233027E0,-9.581848077E0,-3.497582209E0,1.144479850E1
6.290815375E0,-5.097360531E0,-9.293499654E0,-2.686546501E0,1.093479549E1
6.300849375E0,-4.714201845E0,-8.878332140E0,-1.968026024E0,1.024312487E1
6.310883375E0,-4.014589801E0,-8.197399319E0,-1.348997675E0,9.226813187E0
6.320917375E0,-3.199510451E0,-7.280587479E0,-8.595120496E-1,7.998911309E0
6.330951375E0,-2.377912917E0,-6.493699602E0,-6.643252668E-1,6.947224801E0
6.340985375E0,-1.711236485E0,-5.992325419E0,-7.951768899E-1,6.282404040E0
6.351020375E0,-1.270956057E0,-5.674430430E0,-1.110181015E0,5.920049990E0
6.361054375E0,-1.261287978E0,-5.465251552E0,-1.572508955E0,5.825170067E0
6.371088375E0,-1.392305370E0,-5.387729752E0,-2.016004474E0,5.918650198E0
6.381122375E0,-1.327038164E0,-5.508057264E0,-2.262713413E0,6.100786597E0
6.391156375E0,-1.087968320E0,-5.531226271E0,-2.186235926E0,6.046301899E0
6.401190375E0,-6.701341832E-1,-5.413203147E0,-1.797844274E0,5.743177881E0
6.411225375E0,-3.489352253E-1,-5.265928157E0,-1.829361936E0,5.585545653E0
6.421259375E0,-2.357895559E-1,-5.129703820E0,-2.130472784E0,5.559529861E0
6.431293375E0,-5.073650949E-1,-4.705502357E0,-2.366429863E0,5.291423445E0
6.441327375E0,-7.971096870E-1,-3.478646001E0,-2.132958435E0,4.157628355E0
6.451361375E0,-6.944897367E-1,-1.352373857E0,-9.931378841E-1,1.815916821E0
6.461395375E0,-7.684741178E-1,1.778475664E0,9.894611549E-1,2.175445135E0
6.471430375E0,-9.528578773E-1,5.668817103E0,4.032676116E0,7.021816157E0
6.481464375E0,-1.423214190E0,1.016928334E1,7.686110596E0,1.282638524E1
6.491498375E0,-4.049284548E-2,1.472168921E1,1.135284047E1,1.859077082E1
6.501532375E0,3.622824891E0,1.786829698E1,1.507206958E1,2.365519348E1
6.511566375E0,6.139888092E0,2.029007220E1,1.724352784E1,2.732626041E1
6.521601375E0,5.530699437E0,2.252494819E1,1.687859258E1,2.868534146E1
6.531635375E0,5.190628299E0,2.350750262E1,1.532440149E1,2.853738920E1
6.541669375E0,5.800754262E0,2.325334754E1,1.334957223E1,2.743315513E1
6.551703375E0,6.327744513E0,2.203175192E1,1.127400714E1,2.554489539E1
6.561737375E0,7.044219049E0,2.009229598E1,1.086569257E1,2.390365359E1
6.571771375E0,8.137834318E0,1.737007328E1,1.046967819E1,2.185309943E1
6.581806375E0,8.251690131E0,1.354344252E1,8.413255717E0,1.795266267E1
6.591840375E0,6.615623989E0,8.936899021E0,4.731898443E0,1.208410145E1
6.601874375E0,3.879058067E0,4.401427848E0,6.064275992E-1,5.898085538E0
6.611908375E0,1.130343969E0,1.920523828E-1,-3.511662304E0,3.694094442E0
6.621942375E0,-1.060847180E0,-3.529085253E0,-7.076572863E0,7.978579005E0
6.631976375E0,-2.649545320E0,-6.428401991E0,-9.304682454E0,1.161557395E1
6.642011375E0,-3.521966853E0,-8.411754152E0,-1.013863925E1,1.363649017E1
6.652045375E0,-3.650336040E0,-9.589322573E0,-1.017580532E1,1.445085030E1
6.662079375E0,-3.682200442E0,-1.015567569E1,-1.017003178E1,1.483664030E1
6.672113375E0,-4.183132576E0,-1.030267470E1,-1.053284566E1,1.531615297E1
6.682147375E0,-4.876708247E0,-1.027886717E1,-1.093583694E1,1.578068196E1
6.692181375E0,-5.319658806E0,-1.020142314E1,-1.102315458E1,1.593354137E1
6.702216375E0,-5.485812117E0,-9.886273420E0,-1.051440471E1,1.543972938E1
6.712250375E0,-5.245228429E0,-9.293564558E0,-9.542779906E0,1.431598449E1
6.722284375E0,-4.702265047E0,-8.664846788E0,-8.259485639E0,1.286118072E1
6.732318375E0,-4.199857660E0,-7.886342064E0,-6.906045250E0,1.129277010E1
6.742352375E0,-3.706050065E0,-6.913051969E0,-5.529532333E0,9.596917340E0
6.752387375E0,-2.780763271E0,-5.834348270E0,-3.838611706E0,7.517127373E0
6.762421375E0,-1.685807821E0,-4.995945253E0,-2.182555103E0,5.706571980E0
6.772455375E0,-8.776270160E-1,-4.427867787E0,-1.062909200E0,4.637458171E0
6.782489375E0,-4.656728393E-1,-4.217613607E0,-7.275509173E-1,4.305165045E0
6.792523375E0,-5.278854597E-1,-4.419514455E0,-1.060657730E0,4.575561812E0
6.802557375E0,-8.039108759E-1,-4.844301224E0,-1.615400328E0,5.169433747E0
6.812592375E0,-1.243670317E0,-5.431238884E0,-2.259210054E0,6.012412306E0
6.822626375E0,-1.738916034E0,-6.146817627E0,-2.797203011E0,6.973631808E0
6.832660375E0,-2.146590634E0,-6.806779994E0,-3.142662651E0,7.798489198E0
6.842694375E0,-2.372889574E0,-7.261710328E0,-3.202424411E0,8.283632291E0
6.852728375E0,-2.298267700E0,-7.624382710E0,-2.992352664E0,8.506904290E0
6.862762375E0,-2.112939031E0,-7.865740569E0,-2.459069054E0,8.507726292E0
6.872797375E0,-1.918567935E0,-7.844033366E0,-1.772387251E0,8.267473552E0
6.882831125E0,-1.651252531E0,-7.633676274E0,-1.005012994E0,7.874623769E0
6.892865125E0,-1.367084282E0,-7.349647774E0,-5.522519767E-1,7.496080581E0
6.902899125E0,-1.129577984E0,-6.953633400E0,-5.446608290E-1,7.065806344E0
6.912933125E0,-1.141388921E0,-5.933700650E0,-6.909093404E-1,6.081852332E0
6.922967125E0,-7.710762750E-1,-4.071798667E0,-1.871880841E-1,4.148390336E0
6.933002125E0,-7.441054080E-1,-1.282574474E0,4.520561358E-1,1.550175761E0
6.943036125E0,-9.451544631E-1,2.847952457E0,1.532008508E0,3.369154230E0
6.953070125E0,-7.442417943E-1,8.017262977E0,4.061146209E0,9.017943780E0
6.963104125E0,6.653035060E-1,1.352131665E1,7.063427153E0,1.526959842E1
6.973138125E0,3.645969924E0,1.802121337E1,9.236833702E0,2.057611053E1
6.983173125E0,6.347654867E0,2.123387362E1,9.683866203E0,2.418568535E1
6.993207125E0,6.245986989E0,2.426864871E1,8.607598454E0,2.649661138E1
7.003241125E0,6.056826639E0,2.716020210E1,7.074324024E0,2.871250228E1
7.013275125E0,8.267410955E0,2.877416226E1,7.491257982E0,3.086132602E1
7.023309125E0,1.139454516E1,2.910159464E1,9.221233331E0,3.258480649E1
7.033343125E0,1.390120791E1,2.749641700E1,1.038141447E1,3.251261749E1
7.043378125E0,1.386582992E1,2.412197949E1,1.037443290E1,2.969444379E1
7.053412125E0,1.156307477E1,1.921638775E1,9.031930894E0,2.417746952E1
7.063446125E0,8.447742010E0,1.349271441E1,6.911122388E0,1.735457576E1
7.073480125E0,5.314609151E0,7.855300950E0,4.515989128E0,1.050452194E1
7.083514125E0,2.563659955E0,2.677336552E0,2.087690461E0,4.254284292E0
7.093548125E0,-4.351147056E-2,-1.940761626E0,-4.473447418E-1,1.992126064E0
7.103583125E0,-2.451396484E0,-5.671011563E0,-3.119286945E0,6.920958598E0
7.113617125E0,-4.203867972E0,-8.459199629E0,-5.471989299E0,1.091664927E1
7.123651125E0,-4.939355316E0,-1.026101913E1,-7.000247403E0,1.336746828E1
7.133685125E0,-4.639471505E0,-1.132655841E1,-7.426722263E0,1.431683711E1
7.143719125E0,-4.158818392E0,-1.186629501E1,-7.312585198E0,1.454574267E1
7.153754125E0,-3.955559236E0,-1.194696553E1,-7.237135066E0,1.451731925E1
7.163788125E0,-3.894958692E0,-1.195179299E1,-7.437543705E0,1.460592740E1
7.173822125E0,-4.371705866E0,-1.202875872E1,-7.891772958E0,1.503605430E1
7.183856125E0,-5.160289435E0,-1.210076368E1,-8.651527416E0,1.574503081E1
7.193890125E0,-5.400400668E0,-1.218904026E1,-8.894953435E0,1.602676594E1
7.203924125E0,-5.334838178E0,-1.187207907E1,-8.302993602E0,1.543847346E1
7.213959125E0,-5.340176686E0,-1.137020320E1,-7.611860898E0,1.468807115E1
7.223993125E0,-5.052953267E0,-1.103422336E1,-6.945862450E0,1.398325523E1
7.234027125E0,-4.531711121E0,-1.057343820E1,-6.020142378E0,1.298368651E1
7.244061125E0,-4.039998000E0,-1.003503243E1,-5.014500223E0,1.192345052E1
7.254095125E0,-3.537225747E0,-9.471772488E0,-4.082473928E0,1.090380821E1
7.264129125E0,-2.960356115E0,-8.870689829E0,-3.123522960E0,9.859474735E0
7.274164125E0,-2.326145763E0,-8.383616765E0,-2.099035375E0,8.949968362E0
7.284198125E0,-1.687372975E0,-7.907559856E0,-1.211905611E0,8.175906411E0
7.294232125E0,-1.080761480E0,-7.383247629E0,-5.078920752E-1,7.479194161E0
7.304266125E0,-7.447560570E-1,-6.848878192E0,-5.212558866E-2,6.889449264E0
7.314300125E0,-4.589868405E-1,-6.454858303E0,1.356065789E-1,6.472577058E0
7.324334125E0,-3.029169072E-1,-6.239434599E0,2.493872559E-1,6.251759494E0
7.334369125E0,-2.927833901E-1,-5.975167349E0,3.709292346E-1,5.993824777E0
7.344403125E0,-1.717254147E-2,-5.833386987E0,6.689179623E-1,5.871639454E0
7.354437125E0,2.968776105E-1,-5.825670417E0,9.579984570E-1,5.911373205E0
7.364471125E0,5.064540987E-1,-5.606859421E0,1.082970997E0,5.732904543E0
7.374505125E0,1.007266511E0,-5.052017128E0,1.455115868E0,5.353020182E0
7.384540125E0,1.668406361E0,-4.240924702E0,1.724092466E0,4.872526751E0
7.394574125E0,2.056293837E0,-2.747218965E0,2.017973086E0,3.980925993E0
7.404608125E0,2.166399685E0,-6.295738024E-1,2.190688142E0,3.144640727E0
7.414642125E0,2.346557223E0,1.988526362E0,2.248977719E0,3.810310837E0
7.424676125E0,2.922477559E0,4.861702538E0,2.230571854E0,6.095283213E0
7.434710125E0,3.160841644E0,8.161145997E0,2.100115356E0,9.000317127E0
7.444745125E0,2.817572371E0,1.175035641E1,2.223512510E0,1.228631750E1
7.454779125E0,2.136963778E0,1.513210762E1,3.036890028E0,1.558107815E1
7.464813125E0,2.569891040E0,1.804350178E1,5.307892454E0,1.898278217E1
7.474847125E0,2.870231226E0,2.101185718E1,8.573668231E0,2.287453074E1
7.484881125E0,3.048776248E0,2.359056348E1,1.055910551E1,2.602507313E1
7.494915125E0,4.151811381E0,2.489765475E1,1.160865382E1,2.778293709E1
7.504950125E0,5.199181021E0,2.545217895E1,1.178797506E1,2.852720198E1
7.514984125E0,6.061799696E0,2.493294386E1,1.059483200E1,2.776053981E1
7.525018125E0,6.927852441E0,2.363463278E1,8.827699345E0,2.616331939E1
7.535052125E0,7.321403384E0,2.153965025E1,7.097502387E0,2.383136632E1
7.545086125E0,6.478673428E0,1.820077551E1,4.798219317E0,1.990638961E1
7.555121125E0,5.004157083E0,1.375320553E1,2.492049397E0,1.484596109E1
7.565155125E0,3.438290858E0,8.810917836E0,3.691218603E-1,9.465218861E0
7.575189125E0,2.309955261E0,3.853936674E0,-1.343383178E0,4.689712098E0
7.585223125E0,1.361473440E0,-7.658800006E-1,-2.495388742E0,2.944001881E0
7.595257125E0,2.476729985E-1,-4.756966626E0,-3.445872357E0,5.879124909E0
7.605291125E0,-7.852866170E-1,-8.163757364E0,-4.566911652E0,9.387240883E0
7.615326125E0,-1.650541363E0,-1.099061599E1,-5.499012791E0,1.239988179E1
7.625360125E0,-2.460986064E0,-1.318696117E1,-6.105528098E0,1.473872011E1
7.635394125E0,-3.158235540E0,-1.464044566E1,-6.421241491E0,1.629568787E1
7.645428125E0,-3.808299156E0,-1.526875705E1,-6.662885864E0,1.708894767E1
7.655462125E0,-4.227860852E0,-1.545553115E1,-6.957810066E0,1.746881139E1
7.665496125E0,-4.561061513E0,-1.550256382E1,-7.358560685E0,1.775615900E1
7.675531125E0,-4.883620241E0,-1.520058202E1,-7.926849235E0,1.782532971E1
7.685565125E0,-5.037754015E0,-1.441937413E1,-8.216495740E0,1.734382075E1
7.695599125E0,-4.727532327E0,-1.328767595E1,-7.811219961E0,1.612225329E1
7.705633125E0,-4.043438501E0,-1.204779960E1,-6.774231468E0,1.440100976E1
7.715667125E0,-3.404018280E0,-1.086959032E1,-5.508474171E0,1.265221806E1
7.725701125E0,-2.907230360E0,-9.774545993E0,-4.370634656E0,1.109487201E1
7.735736125E0,-2.263891773E0,-8.811937591E0,-3.240583633E0,9.657993184E0
7.745770125E0,-1.394021674E0,-8.001994143E0,-2.023853777E0,8.370853648E0
7.755804125E0,-6.961294422E-1,-7.414317394E0,-1.112643278E0,7.529586555E0
7.765838125E0,-4.643154082E-1,-7.098806316E0,-6.961344123E-1,7.147953765E0
7.775872125E0,-7.162326081E-1,-7.020887489E0,-8.401054332E-1,7.107153257E0
7.785907125E0,-1.075519305E0,-7.203283780E0,-1.270640307E0,7.393143160E0
7.795941125E0,-1.336577896E0,-7.317954111E0,-1.580545368E0,7.605065187E0
7.805975125E0,-1.357482862E0,-7.238605641E0,-1.481984701E0,7.512419716E0
7.816009125E0,-1.207088090E0,-7.238646571E0,-1.110920688E0,7.422210628E0
7.826043125E0,-1.386383894E0,-7.225655812E0,-8.201597035E-1,7.403028040E0
7.836077125E0,-1.504476308E0,-7.046781884E0,-4.475838929E-1,7.219481645E0
7.846112125E0,-1.064478154E0,-6.776637597E0,2.179535016E-1,6.863194197E0
7.856146125E0,-6.253296009E-1,-6.435693469E0,8.546272856E-1,6.522236989E0
7.866180125E0,-3.819980139E-1,-5.974798390E0,1.198979171E0,6.105873347E0
7.876214125E0,-2.305045500E-1,-5.389810776E0,1.410930506E0,5.576192020E0
7.886248375E0,-3.319002396E-1,-4.645038055E0,1.483797630E0,4.887554778E0
7.896282375E0,-5.358505368E-1,-3.314182536E0,1.430894800E0,3.649438533E0
7.906317375E0,-6.678666329E-1,-1.137724324E0,1.688206641E0,2.142546182E0
7.916351375E0,-8.991411151E-1,1.786106865E0,2.204887374E0,2.976602226E0
7.926385375E0,-1.173134770E0,5.461284217E0,2.846287755E0,6.269228379E0
7.936419375E0,-1.416175750E0,9.599291491E0,3.335430733E0,1.026046047E1
7.946453375E0,-1.597245016E0,1.385134403E1,3.282849646E0,1.432438567E1
7.956488375E0,-7.566465162E-1,1.741929514E1,3.659779878E0,1.781567697E1
7.966522375E0,9.075448796E-1,1.992318983E1,4.805871276E0,2.051471494E1
7.976556375E0,1.550040444E0,2.223027191E1,5.798476771E0,2.302628818E1
7.986590375E0,2.850443371E0,2.426568300E1,6.045622205E0,2.516938511E1
7.996624375E0,5.653518448E0,2.618519058E1,6.903110533E0,2.766368399E1
8.006658375E0,8.114113918E0,2.736001081E1,7.415705523E0,2.948561895E1
8.016693375E0,9.389168288E0,2.702007007E1,7.060907003E0,2.946348716E1
8.026727375E0,9.509531468E0,2.549071210E1,6.669762189E0,2.801237798E1
8.036761375E0,8.883518620E0,2.302382328E1,6.381274602E0,2.548988048E1
8.046795375E0,7.509147538E0,1.991726777E1,5.568123956E0,2.200201937E1
8.056829375E0,5.511822286E0,1.613975245E1,4.033105302E0,1.752534543E1
8.066864375E0,3.139339678E0,1.155592597E1,1.468552039E0,1.206447362E1
8.076898375E0,1.272756414E0,6.665149321E0,-7.355808985E-1,6.825335422E0
8.086932375E0,2.466778024E-1,2.100437391E0,-2.035959706E0,2.935612218E0
8.096966375E0,-1.790506603E-1,-2.021878880E0,-3.033385207E0,3.649860156E0
8.107000375E0,-4.641477393E-1,-5.463214383E0,-3.889886525E0,6.722600813E0
8.117034375E0,-9.990849410E-1,-8.293626362E0,-4.812947869E0,9.640896024E0
8.127069375E0,-1.689846785E0,-1.067868341E1,-5.599407730E0,1.217551758E1
8.137103375E0,-2.461680129E0,-1.248142092E1,-5.907711530E0,1.402664582E1
8.147137375E0,-3.153360132E0,-1.378643877E1,-5.654889620E0,1.523113097E1
8.157171375E0,-3.818938165E0,-1.461447701E1,-5.057103036E0,1.592926609E1
8.167205375E0,-4.173413919E0,-1.514414119E1,-4.310087323E0,1.628923721E1
8.177239375E0,-4.490396158E0,-1.556236095E1,-3.706725419E0,1.661597272E1
8.187274375E0,-5.046049460E0,-1.562594474E1,-3.470366929E0,1.678321217E1
8.197308375E0,-5.707452580E0,-1.542816969E1,-3.410503719E0,1.679985031E1
8.207342375E0,-6.145504342E0,-1.490082334E1,-3.129304687E0,1.641932726E1
8.217376375E0,-6.058669682E0,-1.403502495E1,-2.491574603E0,1.548861994E1
8.227410375E0,-5.412510252E0,-1.282160374E1,-1.559316174E0,1.400429422E1
8.237444375E0,-4.710350869E0,-1.139284128E1,-7.078265047E-1,1.234849206E1
8.247479375E0,-3.733976367E0,-1.011130234E1,1.623534244E-2,1.077874196E1
8.257513375E0,-2.636912118E0,-8.908257605E0,6.879319382E-1,9.315772079E0
8.267547375E0,-1.696462618E0,-7.836855909E0,1.117682993E0,8.095894714E0
8.277581375E0,-1.214877750E0,-7.146953459E0,1.113168358E0,7.334440366E0
8.287615375E0,-9.954671225E-1,-6.960652397E0,7.151038762E-1,7.067744346E0
8.297650375E0,-9.279624796E-1,-6.972966049E0,2.945955884E-1,7.040607676E0
8.307684375E0,-1.111392266E0,-7.155319070E0,-4.191225708E-2,7.241238872E0
8.317718375E0,-1.296945176E0,-7.492379478E0,-2.493089215E-1,7.607888798E0
8.327752375E0,-1.551648428E0,-7.771345459E0,-3.844515421E-1,7.934054832E0
8.337786375E0,-1.896141962E0,-7.823862226E0,-4.401468559E-1,8.062375812E0
8.347820375E0,-1.757835870E0,-7.846096264E0,-2.034883672E-1,8.043172324E0
8.357855375E0,-1.626248083E0,-7.731290277E0,1.536783490E-1,7.901971223E0
8.367889375E0,-1.421678127E0,-7.385270181E0,6.003254449E-1,7.544784622E0
8.377923375E0,-1.015278366E0,-6.906081503E0,1.147381586E0,7.073983064E0
8.387957375E0,-5.836513786E-1,-6.148998638E0,1.461636683E0,6.347221044E0
8.397991375E0,-9.013775289E-2,-5.044157301E0,1.720067827E0,5.330129550E0
8.408026375E0,5.345027536E-1,-3.397235218E0,1.967267640E0,3.961949304E0
8.418060375E0,8.220770055E-1,-1.193428409E0,2.179590711E0,2.617383739E0
8.428094375E0,8.500943778E-1,1.473890693E0,2.241135872E0,2.813841542E0
8.438128375E0,1.119028291E0,4.968109583E0,2.229117212E0,5.559073726E0
8.448162375E0,1.695284550E0,8.696327612E0,2.044132798E0,9.092776393E0
8.458196375E0,1.844405506E0,1.251546224E1,1.722887939E0,1.276741829E1
8.468231375E0,1.076225357E0,1.630644136E1,1.568102201E0,1.641698009E1
8.478265375E0,8.063767929E-1,1.910443579E1,2.079227201E0,1.923415962E1
8.488299375E0,1.557732164E0,2.120621161E1,3.693777929E0,2.158179640E1
8.498333375E0,2.287172170E0,2.344019649E1,5.500572828E0,2.418533170E1
8.508367375E0,3.830239663E0,2.523156117E1,7.220338939E0,2.652236244E1
8.518402375E0,5.390295510E0,2.630590518E1,9.209144213E0,2.838774859E1
8.528436375E0,6.153200448E0,2.618096188E1,1.029745547E1,2.879830255E1
8.538470375E0,6.658924375E0,2.494258241E1,1.106912071E1,2.808912823E1
8.548504375E0,6.959251989E0,2.325424099E1,1.123206507E1,2.674603145E1
8.558538375E0,6.556607457E0,2.109043908E1,9.527692335E0,2.405353702E1
8.568572375E0,5.632566120E0,1.802714829E1,6.375260156E0,1.993358519E1
8.578607375E0,4.630922876E0,1.394066726E1,2.757637534E0,1.494631109E1
8.588641375E0,3.440564255E0,9.182925298E0,-3.751908316E-1,9.813478872E0
8.598675375E0,2.627454247E0,4.468097216E0,-2.138991739E0,5.607378551E0
8.608709375E0,1.990434308E0,5.813769579E-2,-3.398232168E0,3.938678788E0
8.618743375E0,1.207503242E0,-3.823685519E0,-4.849860172E0,6.292835507E0
8.628777375E0,8.743093058E-2,-7.253444120E0,-6.296447875E0,9.605485496E0
8.638812375E0,-9.267658469E-1,-1.004210172E1,-7.052199914E0,1.230594269E1
8.648846375E0,-1.542070104E0,-1.221325007E1,-6.789455279E0,1.405838399E1
8.658880375E0,-2.035355981E0,-1.366897990E1,-6.028705040E0,1.507743247E1
8.668914375E0,-2.444625262E0,-1.476049017E1,-5.521499428E0,1.594789073E1
8.678948375E0,-3.166831532E0,-1.577021426E1,-5.564223863E0,1.702025461E1
8.688983375E0,-4.314539977E0,-1.632278316E1,-5.819686376E0,1.785825453E1
8.699017375E0,-5.196820500E0,-1.636616014E1,-5.822776045E0,1.813181905E1
8.709051375E0,-5.427289674E0,-1.589330634E1,-5.306697283E0,1.761288437E1
8.719085375E0,-5.153284471E0,-1.503026082E1,-4.485405559E0,1.651011642E1
8.729119375E0,-4.710619256E0,-1.401306983E1,-3.714751891E0,1.524320968E1
8.739153375E0,-4.351811884E0,-1.295333567E1,-3.148282410E0,1.402279764E1
8.749188375E0,-3.674980885E0,-1.173786091E1,-2.445914281E0,1.254054863E1
8.759222375E0,-2.765753469E0,-1.041829052E1,-1.284993467E0,1.085547686E1
8.769256375E0,-1.724921308E0,-9.241693908E0,-3.178144433E-2,9.401344046E0
8.779290375E0,-7.212002563E-1,-8.482090309E0,1.013410839E0,8.572805103E0
8.789324375E0,-7.584876582E-2,-8.090865973E0,1.697665390E0,8.267401829E0
8.799358375E0,-7.140385866E-2,-8.021778781E0,1.832395763E0,8.228712388E0
8.809393375E0,-4.103627108E-1,-8.212620206E0,1.528519474E0,8.363725246E0
8.819427375E0,-9.150886649E-1,-8.571348640E0,1.114979825E0,8.691868889E0
8.829461375E0,-1.419035477E0,-8.912061219E0,9.112160540E-1,9.070215629E0
8.839495375E0,-1.844107590E0,-9.131756313E0,9.742145401E-1,9.366899174E0
8.849529375E0,-2.086853871E0,-8.985686435E0,1.470715654E0,9.341334183E0
8.859564375E0,-1.679474410E0,-8.336487622E0,2.403100968E0,8.836999176E0
8.869598375E0,-1.049313254E0,-7.511470052E0,3.216016556E0,8.238082491E0
8.879632375E0,-3.742500146E-1,-6.669771545E0,3.423099207E0,7.506232325E0
8.889666417E0,3.176437046E-1,-5.691744035E0,3.264971784E0,6.569390264E0
8.899700417E0,8.237608574E-1,-4.515856689E0,2.671249015E0,5.311037082E0
8.909734417E0,1.251291870E0,-3.130900977E0,1.991965109E0,3.916145716E0
8.919769417E0,1.658166279E0,-1.296120134E0,1.426337042E0,2.542416206E0
8.929803417E0,1.637312476E0,9.109856737E-1,7.229988599E-1,2.008336225E0
8.939837417E0,1.518549825E0,3.218344917E0,-9.869051177E-2,3.559982780E0
8.949871417E0,1.159630772E0,5.756265137E0,-3.652428174E-1,5.883258805E0
8.959905417E0,2.993236470E-1,8.449296784E0,-4.506893492E-1,8.466600952E0
8.969940417E0,-7.832188223E-1,1.079831042E1,-1.182089489E0,1.089101810E1
8.979974417E0,-2.018066349E0,1.264768182E1,-1.735272342E0,1.292469022E1
8.990008417E0,-2.736654215E0,1.438620639E1,-1.518151776E0,1.472266944E1
9.000042417E0,-2.347203194E0,1.571327642E1,-7.469122177E-1,1.590516572E1
9.010076417E0,-1.504714875E0,1.728584648E1,3.027659760E-1,1.735385613E1
9.020110417E0,2.305770555E-1,1.938430692E1,2.133267168E0,1.950270108E1
9.030145417E0,2.797121734E0,2.108606536E1,4.117344968E0,2.166560805E1
9.040179417E0,4.786155927E0,2.203596894E1,5.609268474E0,2.323693414E1
9.050213417E0,5.670050865E0,2.214590127E1,6.463833194E0,2.375650562E1
9.060247417E0,6.188214160E0,2.135392164E1,7.024470078E0,2.331581317E1
9.070281417E0,6.877499728E0,2.015664810E1,6.981339262E0,2.241270985E1
9.080316417E0,6.873949299E0,1.855706624E1,5.776487147E0,2.061513255E1
9.090350417E0,6.043097962E0,1.593313874E1,3.451917209E0,1.738676725E1
9.100384417E0,4.474805142E0,1.245747658E1,8.067116922E-1,1.326134938E1
9.110418417E0,2.926570026E0,8.603277361E0,-1.519855801E0,9.213639624E0
9.120452417E0,1.958845310E0,4.793487166E0,-2.831107213E0,5.901674526E0
9.130486417E0,1.260015185E0,1.401657699E0,-3.611464920E0,4.073691378E0
9.140521417E0,7.177324189E-1,-1.453016717E0,-4.104926067E0,4.413254516E0
9.150555417E0,2.558370271E-1,-3.855768607E0,-4.293371887E0,5.776283086E0
9.160589417E0,-2.371554655E-1,-5.926543073E0,-4.382312130E0,7.374606099E0
9.170623417E0,-8.002708380E-1,-7.828547600E0,-4.342507210E0,8.987989753E0
9.180657417E0,-1.459320162E0,-9.361619132E0,-4.118908514E0,1.033126011E1
9.190692417E0,-1.982774017E0,-1.057007722E1,-3.884633971E0,1.143452257E1
9.200726417E0,-2.260633705E0,-1.164797868E1,-3.858244318E0,1.247685543E1
9.210760417E0,-2.551704445E0,-1.244400459E1,-4.124592592E0,1.335577440E1
9.220794417E0,-3.292328860E0,-1.292012348E1,-4.693507964E0,1.413499335E1
9.230828417E0,-4.147018711E0,-1.326127460E1,-5.143280470E0,1.481595431E1
9.240862417E0,-4.564223102E0,-1.363172846E1,-6.344690913E0,1.571341007E1
9.250897417E0,-5.373789990E0,-1.336419495E1,-6.154625999E0,1.566393139E1
9.260931417E0,-5.495905581E0,-1.292333594E1,-5.692649769E0,1.515334456E1
9.270965417E0,-4.856997868E0,-1.243331822E1,-4.738383590E0,1.416439583E1
9.280999417E0,-4.357019414E0,-1.166278383E1,-3.557063595E0,1.294823719E1
9.291033417E0,-3.950800479E0,-1.094064218E1,-2.545468390E0,1.190738783E1
9.301068417E0,-3.409768140E0,-1.037932585E1,-1.525119172E0,1.103099779E1
9.311102417E0,-2.763656657E0,-9.791536832E0,-4.784308791E-1,1.018532708E1
9.321136417E0,-2.242567270E0,-9.209396812E0,4.811084653E-1,9.490709297E0
9.331170417E0,-1.860878428E0,-8.720235123E0,1.157474026E0,8.991391174E0
9.341204417E0,-1.596530925E0,-8.263154767E0,1.556720449E0,8.558739174E0
9.351238417E0,-1.388284824E0,-7.760029927E0,1.736215352E0,8.072164701E0
9.361273417E0,-1.205263320E0,-7.275971103E0,1.820910078E0,7.596586646E0
9.371307417E0,-1.096043909E0,-6.772222365E0,1.676203039E0,7.062150142E0
9.381341417E0,-8.556870934E-1,-6.191055322E0,1.499030796E0,6.427165762E0
9.391375417E0,-6.325213838E-1,-5.616026686E0,1.265694732E0,5.791530212E0
9.401409417E0,-3.714644010E-1,-5.034615814E0,9.138689357E-1,5.130350732E0
9.411443417E0,7.189517096E-2,-4.391833152E0,6.375629993E-1,4.438451749E0
9.421478417E0,6.124841452E-1,-3.531912382E0,4.826182164E-1,3.616968654E0
9.431512417E0,1.189838511E0,-2.417086923E0,4.700904107E-1,2.734777847E0
9.441546417E0,1.596700348E0,-9.606840831E-1,6.360297132E-1,1.968984435E0
9.451580417E0,1.090418011E0,8.841457844E-1,7.597315802E-1,1.596219684E0
9.461614417E0,1.475085863E-1,2.984113060E0,9.237628631E-1,3.127303529E0
9.471649417E0,-7.685062775E-1,5.464833477E0,1.421576239E0,5.698761780E0
9.481683417E0,-1.329527616E0,8.292670927E0,1.932644522E0,8.618071109E0
9.491717417E0,-1.415884998E0,1.092148319E1,2.279243053E0,1.124626490E1
9.501751417E0,-9.934056866E-1,1.291621637E1,2.459797910E0,1.318582974E1
9.511785417E0,-1.796508770E-1,1.472428889E1,3.239256899E0,1.507745811E1
9.521819417E0,1.305094733E0,1.674142509E1,4.653939856E0,1.742520423E1
9.531854417E0,4.162460330E0,1.897248986E1,6.481016407E0,2.047645041E1
9.541888417E0,7.475475177E0,2.092748888E1,8.362766179E0,2.374401773E1
9.551922417E0,9.135223128E0,2.189320566E1,9.177144156E0,2.543589453E1
9.561956417E0,8.861949411E0,2.156645857E1,8.400842662E0,2.478347110E1
9.571990417E0,7.661123689E0,2.038393639E1,6.737539020E0,2.279456319E1
9.582025417E0,6.836772702E0,1.908743560E1,5.382371364E0,2.097716807E1
9.592059417E0,6.532139783E0,1.748137269E1,4.660650705E0,1.923509569E1
9.602093417E0,5.810613837E0,1.526663100E1,3.307768140E0,1.666657089E1
9.612127417E0,4.705136907E0,1.240045336E1,1.304413240E0,1.332707960E1
9.622161417E0,3.341065402E0,9.136658619E0,-6.683607227E-1,9.751305287E0
9.632196417E0,2.163976453E0,5.659558622E0,-2.268236108E0,6.469798523E0
9.642230417E0,1.359473254E0,2.234692971E0,-3.160319488E0,4.102394358E0
9.652264417E0,7.889968215E-1,-9.179602325E-1,-3.584871783E0,3.783711495E0
9.662298417E0,3.042049026E-1,-3.663509232E0,-3.726028832E0,5.234226913E0
9.672332417E0,-1.715286559E-1,-5.898616186E0,-3.850710765E0,7.046351424E0
9.682366417E0,-6.311164440E-1,-7.722382629E0,-3.926669605E0,8.686324632E0
9.692401417E0,-1.105620479E0,-9.196873831E0,-3.811734980E0,1.001669648E1
9.702435417E0,-1.698035519E0,-1.031871361E1,-3.746690553E0,1.110841417E1
9.712469417E0,-2.251050849E0,-1.128939935E1,-3.979096325E0,1.217994151E1
9.722503417E0,-2.855499166E0,-1.216143205E1,-4.473655579E0,1.326905796E1
9.732537417E0,-3.650256226E0,-1.284891492E1,-5.137881151E0,1.431142229E1
9.742571417E0,-4.405453071E0,-1.323297642E1,-5.719059303E0,1.507406119E1
9.752606417E0,-4.803118114E0,-1.344207752E1,-5.933942140E0,1.545868886E1
9.762640417E0,-4.941831027E0,-1.342365646E1,-5.907710946E0,1.547634631E1
9.772674417E0,-4.911652377E0,-1.308982254E1,-5.464040009E0,1.501078001E1
9.782708417E0,-4.585181277E0,-1.263079389E1,-4.718960894E0,1.424181989E1
9.792742417E0,-4.178801544E0,-1.211290951E1,-3.860124198E0,1.338228374E1
9.802777417E0,-3.680133451E0,-1.167208559E1,-3.122434208E0,1.263054075E1
9.812811417E0,-3.228062113E0,-1.123530676E1,-2.409223003E0,1.193552925E1
9.822845417E0,-2.863649015E0,-1.076924976E1,-1.800502126E0,1.128800399E1
9.832879417E0,-2.500782214E0,-1.029258942E1,-1.241342833E0,1.066453190E1
9.842913417E0,-2.051543705E0,-9.836857431E0,-7.273731619E-1,1.007480359E1
9.852947417E0,-1.614967049E0,-9.336625793E0,-2.748257138E-1,9.479252552E0
9.862982417E0,-1.254477580E0,-8.926936535E0,2.120785117E-3,9.014649988E0
9.873016417E0,-9.591988903E-1,-8.469005409E0,2.615963884E-1,8.527165286E0
9.883049875E0,-7.906258558E-1,-7.944189738E0,4.912286800E-1,7.998533957E0
9.893083875E0,-6.484192322E-1,-7.394104739E0,6.154657866E-1,7.447954789E0
9.903117875E0,-4.531593592E-1,-6.771010237E0,7.583850396E-1,6.828402514E0
9.913152875E0,-8.744364828E-2,-6.047445951E0,8.907231711E-1,6.113316341E0
9.923186875E0,3.304713263E-1,-5.210410599E0,9.695483159E-1,5.310142544E0
9.933220875E0,6.865381081E-1,-4.289791637E0,1.007945227E0,4.459775829E0
9.943254875E0,8.874270956E-1,-2.982541328E0,1.170334977E0,3.324569684E0
9.953288875E0,9.272301158E-1,-1.027286793E0,1.437327322E0,1.995240255E0
9.963322875E0,6.363418083E-1,1.312633256E0,1.722193290E0,2.256964042E0
9.973357875E0,-1.307988520E-1,3.922394705E0,1.866635889E0,4.345873687E0
9.983391875E0,-1.515959217E0,6.680238646E0,1.852929431E0,7.096271428E0
9.993425875E0,-3.020318434E0,9.382055735E0,1.546627570E0,9.976840687E0
1.000345988E1,-3.664595060E0,1.173923735E1,1.313993318E0,1.236792339E1
1.001349387E1,-3.463768346E0,1.361888329E1,1.811760647E0,1.416877376E1
1.002352887E1,-3.120861307E0,1.581771003E1,2.882572067E0,1.637830722E1
1.003356288E1,-1.746803636E0,1.857317766E1,4.638348840E0,1.922312491E1
1.004359687E1,2.646846246E0,2.144969201E1,7.956330897E0,2.303037741E1
1.005363088E1,8.069304950E0,2.400397800E1,1.211344746E1,2.807205464E1
1.006366487E1,1.145926799E1,2.525313505E1,1.467714863E1,3.137601544E1
1.007369988E1,1.253345763E1,2.458178582E1,1.495967908E1,3.138699974E1
1.008373387E1,1.181457521E1,2.275685812E1,1.342495220E1,2.894284230E1
1.009376788E1,1.031080233E1,2.059130204E1,1.059740126E1,2.534993645E1
1.010380187E1,8.886944504E0,1.825918218E1,7.410494485E0,2.161691340E1
1.011383588E1,7.054049388E0,1.522228104E1,3.551562242E0,1.714908299E1
1.012386987E1,5.257786494E0,1.189233149E1,-1.534856102E-1,1.300366967E1
1.013390487E1,4.329747708E0,8.315974420E0,-2.361303901E0,9.668397069E0
1.014393888E1,3.926494188E0,4.591958785E0,-3.572356988E0,7.018915624E0
1.015397288E1,3.237421751E0,1.152446444E0,-4.884582108E0,5.972283882E0
1.016400687E1,2.285699110E0,-1.914718128E0,-6.267930420E0,6.941002642E0
1.017404088E1,1.195192806E0,-4.638155297E0,-7.511376497E0,8.908521049E0
1.018407588E1,5.561725348E-2,-6.953384893E0,-8.239125634E0,1.078127293E1
1.019410987E1,-7.707143323E-1,-8.529968480E0,-8.302880750E0,1.192862907E1
1.020414388E1,-1.321508306E0,-9.981795874E0,-8.023004358E0,1.287444104E1
1.021417787E1,-1.890617513E0,-1.144012654E1,-7.615125983E0,1.387231320E1
1.022421188E1,-2.610421600E0,-1.268213596E1,-7.149996350E0,1.479098784E1
1.023424588E1,-3.271835246E0,-1.355955744E1,-6.720062862E0,1.548307943E1
1.024428088E1,-3.768401849E0,-1.415865029E1,-6.342074869E0,1.596527934E1
1.025431487E1,-4.031011706E0,-1.438584503E1,-5.926393384E0,1.607245255E1
1.026434888E1,-4.188859924E0,-1.431770041E1,-5.420353707E0,1.587209270E1
1.027438287E1,-4.228840261E0,-1.408273355E1,-4.830784800E0,1.547717533E1
1.028441688E1,-4.184388558E0,-1.365349764E1,-4.104057463E0,1.485834422E1
1.029445188E1,-4.007701489E0,-1.313714055E1,-3.248803064E0,1.411385328E1
1.030448588E1,-3.653664860E0,-1.264151535E1,-2.272194235E0,1.335365283E1
1.031451987E1,-3.182194214E0,-1.221134154E1,-1.388216412E0,1.269528917E1
1.032455388E1,-2.500236669E0,-1.174647854E1,-5.557883728E-1,1.202247238E1
1.033458787E1,-2.011703555E0,-1.128800538E1,1.013661611E-1,1.146631116E1
1.034462188E1,-1.567422316E0,-1.095894747E1,4.250057468E-1,1.107862682E1
1.035465688E1,-1.240895813E0,-1.073713685E1,6.277056170E-1,1.082681599E1
1.036469087E1,-9.638173136E-1,-1.057926437E1,6.515667884E-1,1.064304081E1
1.037472488E1,-6.312237404E-1,-1.043735361E1,4.046694231E-1,1.046425111E1
1.038475888E1,-5.878761381E-1,-1.016417989E1,4.146772251E-2,1.018125094E1
1.039479287E1,-1.007847359E0,-9.992950022E0,-4.634123057E-1,1.005433028E1
1.040482787E1,-1.838912047E0,-9.893252656E0,-1.167154530E0,1.013016759E1
1.041486188E1,-2.559934402E0,-9.549646291E0,-1.602338964E0,1.001581243E1
1.042489587E1,-2.767597096E0,-8.968546491E0,-1.436720674E0,9.495187526E0
1.043492988E1,-2.431566383E0,-8.064464625E0,-5.685559143E-1,8.442236706E0
1.044496387E1,-1.723842497E0,-6.552131413E0,6.394034104E-1,6.805210925E0
1.045499788E1,-1.012615837E0,-4.558440206E0,1.573626650E0,4.927582448E0
1.046503287E1,-6.151441167E-1,-1.838025463E0,2.245274385E0,2.966141761E0
1.047506688E1,-6.780809878E-1,1.715790004E0,2.791464846E0,3.346043208E0
1.048510087E1,-9.929669993E-1,5.611861129E0,3.114553623E0,6.494567966E0
1.049513488E1,-6.752594139E-1,9.592327457E0,4.309490614E0,1.053757233E1
1.050516887E1,4.520862490E-2,1.339897185E1,6.041011090E0,1.469790140E1
1.051520387E1,9.273127078E-1,1.663119104E1,6.586942227E0,1.791212528E1
1.052523788E1,2.001636404E0,1.903801844E1,5.699730163E0,1.997347287E1
1.053527188E1,2.640299703E0,2.163952304E1,4.380501248E0,2.223575794E1
1.054530587E1,4.428606291E0,2.480429576E1,3.772360414E0,2.547736927E1
1.055533988E1,7.759196699E0,2.759459175E1,4.208266248E0,2.897198875E1
1.056537488E1,1.038403286E1,2.925530625E1,4.878455395E0,3.142451923E1
1.057540887E1,1.110862099E1,2.914962601E1,5.054334964E0,3.160139963E1
1.058544288E1,1.052931979E1,2.714881874E1,4.916954632E0,2.953136260E1
1.059547687E1,9.540517033E0,2.402316155E1,5.168234047E0,2.635990135E1
1.060551088E1,8.237814689E0,2.060313681E1,5.288196693E0,2.281043317E1
1.061554488E1,6.757314304E0,1.683645638E1,4.676374453E0,1.873488826E1
1.062557988E1,5.002466068E0,1.281501276E1,3.152540352E0,1.411338831E1
1.063561387E1,3.198131678E0,8.725766004E0,1.106212510E0,9.358992719E0
1.064564788E1,1.811114237E0,4.789985268E0,-7.487684163E-1,5.175398322E0
1.065568187E1,8.180212305E-1,1.232848583E0,-2.169682166E0,2.626136908E0
1.066571588E1,-1.108281255E-2,-2.083662314E0,-3.478955319E0,4.055231384E0
1.067575088E1,-7.635818987E-1,-4.957681659E0,-4.257401571E0,6.579295774E0
1.068578487E1,-9.765696524E-1,-7.426076145E0,-5.385669193E0,9.225276574E0
1.069581887E1,-1.522575195E0,-9.221954293E0,-5.238440981E0,1.071466006E1
1.070585288E1,-1.851029232E0,-1.063247169E1,-4.645746737E0,1.174983941E1
1.071588687E1,-1.558453710E0,-1.207214857E1,-4.748453080E0,1.306573212E1
1.072592088E1,-1.920256611E0,-1.315253042E1,-4.549060103E0,1.404885724E1
1.073595588E1,-2.622911253E0,-1.388854869E1,-4.429918991E0,1.481200967E1
1.074598987E1,-3.628254030E0,-1.453916838E1,-4.789304652E0,1.573178577E1
1.075602388E1,-4.636679752E0,-1.516470117E1,-5.089726991E0,1.665449734E1
1.076605788E1,-5.570756958E0,-1.577957683E1,-4.849871866E0,1.742267589E1
1.077609187E1,-6.655856926E0,-1.614359641E1,-4.092220067E0,1.793494916E1
1.078612687E1,-7.470663503E0,-1.606888185E1,-2.892868429E0,1.795517934E1
1.079616088E1,-7.352210024E0,-1.571650642E1,-1.387829618E0,1.740659752E1
1.080619487E1,-6.360055057E0,-1.511380233E1,2.004641873E-1,1.639870443E1
1.081622888E1,-5.227454063E0,-1.414310489E1,1.624712019E0,1.516553266E1
1.082626287E1,-3.791555946E0,-1.302972252E1,2.656343293E0,1.382771583E1
1.083629787E1,-2.422349856E0,-1.156468861E1,3.327968516E0,1.227538903E1
1.084633188E1,-1.249419153E0,-9.965360520E0,3.334222698E0,1.058236739E1
1.085636588E1,-5.452572450E-1,-8.614952497E0,2.783388087E0,9.069837993E0
1.086639987E1,-4.960184267E-1,-7.482366706E0,1.927655092E0,7.742590003E0
1.087643388E1,-6.221251805E-1,-6.752794406E0,1.141164826E0,6.876738267E0
1.088646837E1,-5.387579186E-1,-6.384467767E0,5.450517154E-1,6.430300936E0
1.089650337E1,-3.530024023E-1,-5.714421877E0,2.791396250E-1,5.732115405E0
1.090653738E1,-1.018583505E-1,-4.624683897E0,3.231988152E-2,4.625918379E0
1.091657137E1,3.217019646E-1,-3.426530353E0,-2.858744846E-1,3.453451409E0
1.092660538E1,5.951243466E-1,-2.274118407E0,-9.802354181E-1,2.546890063E0
1.093663937E1,8.532847649E-1,-1.200623993E0,-1.983236386E0,2.470388517E0
1.094667437E1,1.006990888E0,2.251762748E-3,-2.703308714E0,2.884772733E0
1.095670838E1,6.519436415E-1,1.393769805E0,-2.828832062E0,3.220235335E0
1.096674238E1,4.218665229E-1,2.755632523E0,-2.385696731E0,3.669200302E0
1.097677637E1,5.826591792E-1,4.564057626E0,-1.090192308E0,4.728491620E0
1.098681038E1,9.071935350E-1,6.759259672E0,6.209778106E-1,6.848080378E0
1.099684437E1,8.951696862E-1,9.318304712E0,2.109913389E0,9.596033867E0
1.100687937E1,-6.296245269E-2,1.171724012E1,2.830338305E0,1.205439734E1
1.101691338E1,-1.763870197E0,1.339732761E1,2.526621060E0,1.374712476E1
1.102694737E1,-3.938562257E0,1.472807905E1,2.000419014E0,1.537628894E1
1.103698138E1,-5.355139711E0,1.603201048E1,1.044533740E0,1.693499135E1
1.104701538E1,-4.750719168E0,1.775952357E1,7.147081659E-1,1.839784818E1
1.105705038E1,-2.173834858E0,1.990493950E1,2.373622230E0,2.016348821E1
1.106708437E1,1.369872965E0,2.178830661E1,4.723096629E0,2.233639404E1
1.107711838E1,5.035523302E0,2.311927322E1,5.595784795E0,2.431398973E1
1.108715237E1,7.503382768E0,2.395207110E1,5.305819616E0,2.565451587E1
1.109718638E1,8.446343940E0,2.340410279E1,4.288630380E0,2.524846736E1
1.110722138E1,8.131181940E0,2.123776085E1,2.712992288E0,2.290237832E1
1.111725538E1,6.626899760E0,1.788516854E1,1.083468084E0,1.910416073E1
1.112728937E1,5.066605346E0,1.359618206E1,-2.260673904E-1,1.451129777E1
1.113732338E1,3.855204350E0,8.971727377E0,-7.466091858E-1,9.793463023E0
1.114735737E1,2.835023971E0,4.401720793E0,-7.154844569E-1,5.284356618E0
1.115739138E1,1.890997143E0,8.537928879E-2,-5.204397614E-1,1.963165139E0
1.116742638E1,8.658866841E-1,-3.792055591E0,-6.307545014E-1,3.940469083E0
1.117746037E1,-1.160199413E-1,-7.028501149E0,-9.303440505E-1,7.090756594E0
1.118749438E1,-8.216946707E-1,-9.609175040E0,-1.162235852E0,9.714021785E0
1.119752838E1,-1.211117918E0,-1.163278294E1,-1.305244714E0,1.176826705E1
1.120756237E1,-1.544719478E0,-1.319823928E1,-1.550386453E0,1.337846689E1
1.121759737E1,-1.960479607E0,-1.440404858E1,-2.042183921E0,1.467959846E1
1.122763138E1,-2.217778146E0,-1.524729309E1,-2.767118209E0,1.565424638E1
1.123766537E1,-2.412914642E0,-1.565762613E1,-3.684063950E0,1.626516954E1
1.124769938E1,-2.796720908E0,-1.566437264E1,-4.572871134E0,1.655612783E1
1.125773337E1,-3.124242752E0,-1.555913446E1,-5.121879076E0,1.667576694E1
1.126776837E1,-3.341384953E0,-1.527876748E1,-5.310509668E0,1.651687326E1
1.127780237E1,-3.464279392E0,-1.480452906E1,-5.059174120E0,1.602406175E1
1.128783638E1,-3.421990282E0,-1.423976404E1,-4.327500331E0,1.527115439E1
1.129787037E1,-3.142209784E0,-1.370944965E1,-3.221796529E0,1.442922260E1
1.130790438E1,-2.869033424E0,-1.312751136E1,-2.330423586E0,1.363795371E1
1.131793837E1,-2.708445201E0,-1.249242421E1,-1.725718576E0,1.289862174E1
1.132797337E1,-2.632694229E0,-1.183287466E1,-1.214791285E0,1.218292738E1
1.133800738E1,-2.371920837E0,-1.118669652E1,-7.530364452E-1,1.146015931E1
1.134804138E1,-2.006629780E0,-1.049132926E1,-1.646412206E-1,1.068277396E1
1.135807537E1,-1.643605250E0,-9.806734915E0,3.343250799E-1,9.949133689E0
1.136810938E1,-1.409180288E0,-9.087433834E0,6.133764303E-1,9.216478363E0
1.137814438E1,-1.188311365E0,-8.432971943E0,6.354356360E-1,8.539957736E0
1.138817837E1,-8.943449365E-1,-7.856031268E0,5.809075727E-1,7.928085125E0
1.139821238E1,-7.040244989E-1,-7.267262844E0,6.190583159E-1,7.327482033E0
1.140824637E1,-5.831015942E-1,-6.727926782E0,7.174387425E-1,6.791150463E0
1.141828038E1,-3.916956210E-1,-5.987275763E0,7.525996582E-1,6.047090438E0
1.142831538E1,-4.835735053E-2,-4.982527648E0,6.454092318E-1,5.024387850E0
1.143834938E1,6.494490731E-1,-3.824726323E0,5.050361489E-1,3.912208719E0
1.144838337E1,1.369085492E0,-2.497875563E0,5.680656253E-1,2.904561235E0
1.145841738E1,1.766394293E0,-9.846904117E-1,9.078695463E-1,2.216752381E0
1.146845137E1,1.945419080E0,8.730676496E-1,1.356104819E0,2.527038345E0
1.147848538E1,1.766033666E0,3.300704704E0,1.570968360E0,4.059737435E0
1.148852038E1,9.448257034E-1,6.026179628E0,1.246230521E0,6.225803324E0
1.149855437E1,-2.166760312E-1,8.716886423E0,8.152142747E-1,8.757604223E0
1.150858837E1,-1.710787857E0,1.117582421E1,9.212639093E-2,1.130638444E1
1.151862238E1,-2.830775092E0,1.357388546E1,-5.333574302E-1,1.387617109E1
1.152865637E1,-2.788935925E0,1.594154236E1,-2.036351323E-1,1.618494373E1
1.153869137E1,-2.136668494E0,1.829459058E1,5.644456141E-1,1.842758789E1
1.154872538E1,-5.899241254E-1,2.140249563E1,1.598315933E0,2.147019896E1
1.155875937E1,2.998562114E0,2.491024965E1,4.126749630E0,2.542718968E1
1.156879338E1,7.168256620E0,2.792426479E1,6.999187887E0,2.966710464E1
1.157882738E1,1.031190160E1,2.939900742E1,8.408085024E0,3.226968927E1
1.158886238E1,1.173830998E1,2.880646696E1,8.223115958E0,3.217483637E1
1.159889637E1,1.091035828E1,2.678016349E1,6.735588974E0,2.969143366E1
1.160893038E1,8.495954057E0,2.368983517E1,4.164421486E0,2.550944790E1
1.161896437E1,6.103907250E0,1.954525972E1,1.802851537E0,2.055541619E1
1.162899838E1,4.106662105E0,1.508480131E1,3.905934209E-1,1.563868496E1
1.163903237E1,2.746216460E0,1.048528675E1,-4.290909040E-1,1.084744496E1
1.164906737E1,2.010758791E0,6.079052491E0,-7.407925218E-1,6.445681008E0
1.165910138E1,1.543802927E0,2.022485236E0,-7.272917394E-1,2.646266668E0
1.166913538E1,1.117837359E0,-1.737962646E0,-9.211359284E-1,2.262424787E0
1.167916937E1,6.464512056E-1,-5.169799932E0,-1.190953283E0,5.344445735E0
1.168920338E1,1.346955827E-1,-8.041445891E0,-1.451088890E0,8.172432556E0
1.169923838E1,-4.115866792E-1,-1.017172279E1,-1.588900162E0,1.030329811E1
1.170927237E1,-9.154688801E-1,-1.169366064E1,-1.612145768E0,1.183971268E1
1.171930638E1,-1.309445208E0,-1.297910551E1,-1.785064892E0,1.316655928E1
1.172934037E1,-1.756292059E0,-1.402994255E1,-2.139923054E0,1.430045875E1
1.173937437E1,-2.184760965E0,-1.477353648E1,-2.557722985E0,1.515165032E1
1.174940937E1,-2.525274154E0,-1.546567139E1,-3.061309755E0,1.596670344E1
1.175944338E1,-2.770542923E0,-1.605115193E1,-3.445916212E0,1.664901573E1
1.176947737E1,-3.002703112E0,-1.625863570E1,-3.402269086E0,1.688001468E1
1.177951138E1,-3.234708350E0,-1.618039176E1,-3.066464660E0,1.678307544E1
1.178954537E1,-3.541762601E0,-1.595188024E1,-2.721212304E0,1.656537237E1
1.179957938E1,-3.756042882E0,-1.569823036E1,-2.443308177E0,1.632519677E1
1.180961438E1,-4.000435154E0,-1.530522730E1,-1.964940448E0,1.594096782E1
1.181964838E1,-3.886962040E0,-1.475870794E1,-1.245515406E0,1.531271506E1
1.182968237E1,-3.357606883E0,-1.419851193E1,-7.139193034E-1,1.460756468E1
1.183971638E1,-2.733943446E0,-1.340175396E1,-4.104301000E-1,1.368392885E1
1.184975037E1,-2.094135116E0,-1.258270522E1,-2.050565904E-1,1.275742611E1
1.185978537E1,-1.591577017E0,-1.173547408E1,-2.449486345E-1,1.184544086E1
1.186981938E1,-1.636760207E0,-1.097004081E1,-7.563192183E-1,1.111722978E1
1.187985337E1,-1.762142783E0,-1.041208663E1,-1.261673017E0,1.063524865E1
1.188988692E1,-1.754321255E0,-9.763421665E0,-1.463068081E0,1.002709399E1
1.189992092E1,-1.597986881E0,-8.930371190E0,-1.281423742E0,9.162267103E0
1.190995592E1,-1.019993999E0,-7.925200905E0,-7.769786006E-1,8.028255906E0
1.191998992E1,-3.409915270E-1,-6.560742023E0,-2.392236622E-1,6.573951557E0
1.193002392E1,6.748229923E-1,-4.878651862E0,3.211319707E-1,4.935560333E0
1.194005792E1,1.905150329E0,-2.713244303E0,1.068787406E0,3.483331587E0
1.195009192E1,3.010709412E0,9.367648780E-2,1.540849498E0,3.383395281E0
1.196012592E1,4.229674074E0,3.068291915E0,1.913832275E0,5.564828122E0
1.197016092E1,4.755797475E0,5.504643660E0,2.359505298E0,7.647612483E0
1.198019492E1,4.569977932E0,7.475060610E0,2.672881558E0,9.159995919E0
1.199022892E1,4.096771832E0,9.107762849E0,2.794681984E0,1.037039686E1
1.200026292E1,3.005761499E0,1.034138560E1,2.667425521E0,1.109477432E1
1.201029692E1,1.181362972E0,1.140252193E1,2.574170033E0,1.174902022E1
1.202033192E1,-4.726404545E-1,1.236131678E1,2.699975801E0,1.266157221E1
1.203036592E1,-7.090684533E-1,1.349883996E1,3.242653547E0,1.390094458E1
1.204039992E1,-9.355122583E-1,1.535961576E1,3.998865761E0,1.589917944E1
1.205043392E1,-1.866577563E0,1.744266295E1,3.876349052E0,1.796543027E1
1.206046792E1,-2.196372366E0,1.865538951E1,3.025437672E0,1.902632078E1
1.207050292E1,-2.260281995E0,1.950463444E1,1.746251659E0,1.971266177E1
1.208053692E1,-1.977214338E0,1.983968457E1,-7.815914690E-2,1.993811850E1
1.209057092E1,-8.215320450E-1,2.021817016E1,-1.002497522E0,2.025967228E1
1.210060492E1,1.021814384E0,2.073849751E1,-1.078945116E0,2.079166915E1
1.211063892E1,3.196031942E0,2.084800416E1,-8.409376381E-1,2.110831765E1
1.212067392E1,5.060251177E0,2.013527769E1,-3.601639259E-1,2.076451945E1
1.213070792E1,5.579050063E0,1.811274451E1,-7.975061283E-2,1.895266930E1
1.214074192E1,4.625625883E0,1.446500113E1,-2.412621112E-1,1.518851144E1
1.215077592E1,2.985592405E0,9.858630123E0,-4.927360922E-1,1.031257188E1
1.216080992E1,1.296008745E0,5.124168261E0,-5.337760909E-1,5.312405853E0
1.217084392E1,-4.146715606E-2,7.683258909E-1,-4.058312649E-1,8.699098891E-1
1.218087892E1,-8.076446155E-1,-2.973530769E0,-1.832203098E-1,3.086704511E0
1.219091292E1,-1.213525582E0,-6.142723991E0,-9.744209468E-2,6.262203872E0
1.220094692E1,-1.432668407E0,-8.633862392E0,-1.521547839E-1,8.753243379E0
1.221098092E1,-1.469757442E0,-1.053341752E1,-4.355488613E-1,1.064437760E1
1.222101492E1,-1.632907623E0,-1.208038262E1,-9.101141462E-1,1.222417029E1
1.223104992E1,-1.899992061E0,-1.331100751E1,-1.552779572E0,1.353528777E1
1.224108392E1,-2.068146582E0,-1.430805952E1,-2.399420730E0,1.465452208E1
1.225111792E1,-2.147829951E0,-1.511709548E1,-3.345876784E0,1.563120727E1
1.226115192E1,-2.406246916E0,-1.561364805E1,-4.244517231E0,1.635823817E1
1.227118592E1,-2.949261608E0,-1.588692352E1,-5.125299697E0,1.695173088E1
1.228122092E1,-3.646421037E0,-1.601995586E1,-5.815523744E0,1.742858826E1
1.229125492E1,-4.166303413E0,-1.590634914E1,-6.301743114E0,1.760914516E1
1.230128892E1,-4.179559928E0,-1.557609021E1,-6.297368227E0,1.731300535E1
1.231132292E1,-3.752940349E0,-1.485590269E1,-5.703410400E0,1.634965738E1
1.232135692E1,-3.054424366E0,-1.393197362E1,-4.787362207E0,1.504487402E1
1.233139092E1,-2.338590684E0,-1.285961532E1,-3.925452799E0,1.364726684E1
1.234142592E1,-1.721849328E0,-1.162949213E1,-3.229454042E0,1.219176877E1
1.235145992E1,-1.110486532E0,-1.056184902E1,-2.642735653E0,1.094394293E1
1.236149392E1,-7.370490613E-1,-9.730929857E0,-2.209474661E0,1.000579909E1
1.237152792E1,-8.708765517E-1,-9.039822881E0,-1.983136398E0,9.295679300E0
1.238156192E1,-1.193215570E0,-8.399658017E0,-1.909346291E0,8.696184304E0
1.239159692E1,-1.363749907E0,-7.701697519E0,-1.787887489E0,8.023247482E0
1.240163092E1,-9.297162788E-1,-6.908754850E0,-1.333211508E0,7.097374082E0
1.241166492E1,-3.039422165E-1,-5.948218701E0,-6.548276344E-1,5.991868308E0
1.242169892E1,2.851935580E-2,-4.897163562E0,-1.910877384E-1,4.900973253E0
1.243173292E1,2.127457521E-1,-3.918742535E0,1.908279759E-1,3.929149924E0
1.244176792E1,5.015625373E-1,-2.726744354E0,6.898262899E-1,2.857019437E0
1.245180192E1,1.157332597E0,-1.230986245E0,1.317460425E0,2.142533044E0
1.246183592E1,2.351470931E0,8.220559555E-1,2.469336473E0,3.507536764E0
1.247186992E1,3.418452717E0,3.416249194E0,3.703013606E0,6.088422398E0
1.248190392E1,4.054749063E0,5.831272634E0,4.416145874E0,8.363436786E0
1.249193892E1,3.692493296E0,7.830361991E0,4.555713649E0,9.782821807E0
1.250197292E1,2.759135005E0,9.445258874E0,4.371085476E0,1.076717834E1
1.251200692E1,1.812281634E0,1.086357471E1,4.235086549E0,1.179989738E1
1.252204092E1,1.761075922E-1,1.244169026E1,3.673681049E0,1.297392011E1
1.253207492E1,-1.341841267E0,1.365969569E1,2.579969886E0,1.396581787E1
1.254210892E1,-2.412371728E0,1.479118220E1,1.865504891E0,1.510227522E1
1.255214392E1,-3.017388687E0,1.661888382E1,1.527931829E0,1.695955511E1
1.256217792E1,-1.552328167E0,1.866212317E1,2.167196222E0,1.885155970E1
1.257221192E1,8.209555826E-1,2.046831405E1,3.479379827E0,2.077815998E1
1.258224592E1,3.257862155E0,2.143067219E1,4.818965823E0,2.220607592E1
1.259227992E1,5.533607842E0,2.186426896E1,6.113517734E0,2.336754527E1
1.260231492E1,7.083025850E0,2.186734459E1,7.212487882E0,2.409086956E1
1.261234892E1,7.378254107E0,2.084613306E1,7.527049373E0,2.335928872E1
1.262238292E1,6.509514567E0,1.835117291E1,7.189143459E0,2.075627883E1
1.263241692E1,4.938588746E0,1.466277501E1,6.594653535E0,1.681892045E1
1.264245092E1,3.316874886E0,1.025556017E1,5.931996186E0,1.230311961E1
1.265248592E1,1.805871770E0,5.758678867E0,5.168330526E0,7.945765890E0
1.266251992E1,4.517260605E-1,1.649655071E0,4.227970780E0,4.560828347E0
1.267255392E1,-5.791623250E-1,-1.752184829E0,3.005013932E0,3.526427286E0
1.268258792E1,-1.200078594E0,-4.551532305E0,1.353399459E0,4.897787771E0
1.269262192E1,-1.527441686E0,-6.728248964E0,-2.572090763E-1,6.904242807E0
1.270265692E1,-1.540619264E0,-8.335135161E0,-1.893820471E0,8.685306089E0
1.271269092E1,-1.607389789E0,-9.514112762E0,-3.458651447E0,1.025008846E1
1.272272492E1,-1.839011596E0,-1.034192355E1,-4.906622602E0,1.159363151E1
1.273275892E1,-2.116215518E0,-1.087913298E1,-6.158489839E0,1.267915216E1
1.274279292E1,-2.482167018E0,-1.129394849E1,-7.101329974E0,1.356994152E1
1.275282792E1,-2.995548459E0,-1.167605234E1,-7.806318240E0,1.436113203E1
1.276286192E1,-3.665479452E0,-1.193851981E1,-8.277336019E0,1.498259946E1
1.277289592E1,-4.151412601E0,-1.218332519E1,-8.305411425E0,1.531820806E1
1.278292992E1,-4.481332389E0,-1.235843644E1,-7.776177598E0,1.527357945E1
1.279296392E1,-4.838522421E0,-1.235685184E1,-6.988398020E0,1.499802632E1
1.280299792E1,-4.917939888E0,-1.210496665E1,-6.081580242E0,1.441186902E1
1.281303292E1,-4.386487919E0,-1.169396704E1,-5.163058677E0,1.351470740E1
1.282306692E1,-3.716192061E0,-1.121643663E1,-4.299100112E0,1.257381389E1
1.283310092E1,-3.154846494E0,-1.060377122E1,-3.439416739E0,1.158544811E1
1.284313492E1,-2.836609443E0,-1.002525472E1,-2.706269159E0,1.076457050E1
1.285316892E1,-2.618632261E0,-9.571476871E0,-1.983301582E0,1.011948070E1
1.286320392E1,-2.343662121E0,-9.196980835E0,-1.174964072E0,9.563354494E0
1.287323792E1,-1.993887089E0,-8.859173738E0,-3.190973224E-1,9.086383667E0
1.288327192E1,-1.631955842E0,-8.681207297E0,3.598649870E-1,8.840596293E0
1.289330604E1,-1.387352486E0,-8.478789555E0,6.968273073E-1,8.619755654E0
1.290334004E1,-1.322350159E0,-8.093617088E0,5.867715991E-1,8.221894455E0
1.291337504E1,-1.182592495E0,-7.619674532E0,1.747877477E-1,7.712879860E0
1.292340904E1,-7.797025260E-1,-6.962148700E0,4.594449699E-3,7.005674247E0
1.293344304E1,-1.488907950E-1,-6.220601302E0,7.405177027E-2,6.222823531E0
1.294347704E1,4.058162814E-1,-5.351630212E0,2.499842566E-1,5.372813500E0
1.295351104E1,1.000943625E0,-4.359557691E0,4.020023619E-1,4.491017401E0
1.296354604E1,1.514962266E0,-3.171984099E0,7.045513330E-1,3.585106187E0
1.297358004E1,1.670060685E0,-1.682376675E0,9.836303115E-1,2.566519541E0
1.298361404E1,1.295166307E0,3.137031198E-3,1.192470197E0,1.760525709E0
1.299364804E1,1.059078397E0,2.006252781E0,1.635058082E0,2.796446353E0
1.300368204E1,1.275313402E0,4.271115046E0,2.524400872E0,5.122640703E0
1.301371704E1,1.169360685E0,6.818177971E0,3.091736326E0,7.577188711E0
1.302375104E1,5.272625850E-1,9.243427023E0,2.736475291E0,9.654389985E0
1.303378504E1,-4.128748574E-1,1.102195005E1,1.971486406E0,1.120449049E1
1.304381904E1,-1.155753702E0,1.273338446E1,1.821102451E0,1.291476909E1
1.305385304E1,-1.437533875E0,1.505766789E1,2.338929530E0,1.530589616E1
1.306388704E1,-2.631976484E-1,1.756227944E1,3.506779295E0,1.791090264E1
1.307392204E1,1.922301820E0,2.008334506E1,5.190418968E0,2.083210124E1
1.308395604E1,4.683100797E0,2.237428182E1,6.793003369E0,2.384711334E1
1.309399004E1,7.396236634E0,2.390654936E1,7.952321461E0,2.625770049E1
1.310402404E1,9.033140098E0,2.440219678E1,8.375758692E0,2.733529150E1
1.311405804E1,8.899105543E0,2.354575510E1,7.812084180E0,2.635574552E1
1.312409304E1,7.544339590E0,2.161707207E1,6.284663982E0,2.374261708E1
1.313412704E1,6.072139328E0,1.871294482E1,4.538178434E0,2.019010261E1
1.314416104E1,4.583746955E0,1.521662328E1,2.928965922E0,1.615967826E1
1.315419504E1,3.390936597E0,1.130559614E1,1.718190871E0,1.192757876E1
1.316422904E1,2.192639358E0,7.322431324E0,7.348833257E-1,7.678914074E0
1.317426404E1,1.143232109E0,3.487400452E0,-2.664994249E-1,3.679668941E0
1.318429804E1,3.074439678E-1,-8.997695446E-2,-1.182533585E0,1.225154408E0
1.319433204E1,-4.423848411E-1,-3.249090162E0,-2.166436669E0,3.930106750E0
1.320436604E1,-1.184918079E0,-5.929714603E0,-3.130892791E0,6.809407888E0
1.321440004E1,-1.685564723E0,-8.132039142E0,-3.890692272E0,9.171078203E0
1.322443504E1,-1.561143283E0,-9.724880328E0,-5.032206177E0,1.106045048E1
1.323446904E1,-1.673998492E0,-1.066529796E1,-5.032663429E0,1.191127838E1
1.324450304E1,-1.578029896E0,-1.177007439E1,-6.131635332E0,1.336494600E1
1.325453704E1,-1.721223237E0,-1.238941732E1,-7.095516672E0,1.438077285E1
1.326457104E1,-1.947997263E0,-1.269447124E1,-7.676411819E0,1.496233912E1
1.327460604E1,-2.163798990E0,-1.287739320E1,-8.082043694E0,1.535671553E1
1.328464004E1,-2.769356231E0,-1.312216232E1,-8.851051955E0,1.606865267E1
1.329467404E1,-3.529600977E0,-1.305468078E1,-8.892948425E0,1.618540407E1
1.330470804E1,-3.791376729E0,-1.286696293E1,-8.337292199E0,1.579378719E1
1.331474204E1,-3.787257366E0,-1.257802511E1,-7.158071355E0,1.495954610E1
1.332477704E1,-3.396548170E0,-1.217148692E1,-5.734910520E0,1.387698930E1
1.333481104E1,-2.636064857E0,-1.182030782E1,-4.083984849E0,1.278074518E1
1.334484504E1,-1.915092642E0,-1.145841546E1,-2.715462444E0,1.193049039E1
1.335487904E1,-1.389646495E0,-1.105674098E1,-1.601283688E0,1.125818582E1
1.336491304E1,-8.864892022E-1,-1.062816697E1,-7.724876466E-1,1.069301330E1
1.337494704E1,-5.125498941E-1,-1.010620123E1,-4.177762493E-1,1.012781061E1
1.338498204E1,-3.925408360E-1,-9.577419396E0,-5.317829213E-1,9.600200189E0
1.339501604E1,-4.024213880E-1,-9.240446697E0,-1.070342181E0,9.310930701E0
1.340505004E1,-5.410318277E-1,-8.795491712E0,-1.502078950E0,8.939218706E0
1.341508404E1,-6.031780822E-1,-8.411224394E0,-1.848088521E0,8.632957244E0
1.342511804E1,-3.940238361E-1,-8.000489654E0,-2.027802109E0,8.262873040E0
1.343515304E1,-6.702078581E-2,-7.544472322E0,-1.990989501E0,7.803050275E0
1.344518704E1,1.911052070E-1,-7.024305772E0,-1.837866711E0,7.263273836E0
1.345522104E1,5.164629970E-1,-6.619662661E0,-1.511163476E0,6.809572881E0
1.346525504E1,4.312352972E-1,-6.270514889E0,-1.227156611E0,6.404001422E0
1.347528904E1,-1.746402517E-1,-5.637335109E0,-1.480649782E0,5.831155128E0
1.348532404E1,-7.581345595E-1,-4.614672294E0,-2.537469691E0,5.320594030E0
1.349535804E1,-1.151600937E0,-2.580390301E0,-3.970374911E0,4.873240785E0
1.350539204E1,-1.673733613E0,9.588503963E-1,-4.073075699E0,4.506742054E0
1.351542604E1,-2.172212548E0,5.610070127E0,-2.460509224E0,6.499653824E0
1.352546004E1,-2.288244549E0,1.017086208E1,-2.727594540E-1,1.042865746E1
1.353549504E1,-1.669134047E0,1.441333045E1,2.338042215E0,1.469682090E1
1.354552904E1,-5.497232021E-1,1.820920954E1,5.931876318E0,1.915893171E1
1.355556304E1,1.019175535E0,2.181907933E1,8.210528072E0,2.333503188E1
1.356559704E1,5.815689805E0,2.462853314E1,1.064122497E1,2.745218682E1
1.357563104E1,1.223445441E1,2.629475337E1,1.454840464E1,3.244614010E1
1.358566604E1,1.653543353E1,2.628709820E1,1.840895042E1,3.610154497E1
1.359570004E1,1.719725882E1,2.495900140E1,2.011824125E1,3.637912990E1
1.360573404E1,1.547672146E1,2.243700373E1,1.936473629E1,3.343562554E1
1.361576804E1,1.286179867E1,1.965112824E1,1.670756737E1,2.882248278E1
1.362580204E1,1.027577867E1,1.672978679E1,1.291505394E1,2.350055344E1
1.363583704E1,8.028817075E0,1.326176577E1,8.926913731E0,1.788927398E1
1.364587104E1,5.894938288E0,9.615016993E0,5.243699382E0,1.243765381E1
1.365590504E1,3.599166471E0,5.972461258E0,2.237601961E0,7.323329523E0
1.366593904E1,1.675269969E0,2.207659539E0,-1.882452607E-1,2.777719638E0
1.367597304E1,1.048382378E-1,-1.344729207E0,-1.983967872E0,2.399044855E0
1.368600704E1,-1.077152433E0,-4.491771423E0,-3.263780999E0,5.655840723E0
1.369604204E1,-2.082153733E0,-7.201163580E0,-4.042305896E0,8.516593100E0
1.370607604E1,-3.078640025E0,-9.490342661E0,-4.658494544E0,1.101118521E1
1.371611004E1,-4.431762618E0,-1.136825140E1,-5.760673937E0,1.349307318E1
1.372614404E1,-5.720014738E0,-1.260715594E1,-7.291168016E0,1.564672747E1
1.373617804E1,-6.525766318E0,-1.346112308E1,-8.702828547E0,1.730683926E1
1.374621304E1,-7.025636598E0,-1.414872757E1,-9.656958486E0,1.851493745E1
1.375624704E1,-7.470486917E0,-1.453826206E1,-9.912291191E0,1.911603398E1
1.376628104E1,-7.554796751E0,-1.456065923E1,-9.680781212E0,1.904744802E1
1.377631504E1,-7.116927422E0,-1.442207204E1,-9.176988035E0,1.851658519E1
1.378634904E1,-6.689759082E0,-1.400726237E1,-8.270163825E0,1.758840202E1
1.379638404E1,-5.969486779E0,-1.357220614E1,-7.029573528E0,1.640897486E1
1.380641804E1,-5.159576660E0,-1.297879912E1,-5.437217662E0,1.498778816E1
1.381645204E1,-4.683206339E0,-1.220862843E1,-3.985862431E0,1.367004496E1
1.382648604E1,-4.303784901E0,-1.151979602E1,-2.998776415E0,1.265784045E1
1.383652004E1,-4.011520305E0,-1.086856940E1,-2.505640958E0,1.185311489E1
1.384655504E1,-3.557734855E0,-1.007729728E1,-2.251709830E0,1.092151981E1
1.385658904E1,-2.967736178E0,-9.210171568E0,-1.915517735E0,9.864275266E0
1.386662304E1,-2.513235906E0,-8.523177524E0,-1.599364339E0,9.028780433E0
1.387665704E1,-2.143998856E0,-7.994665242E0,-1.308908579E0,8.380014624E0
1.388669112E1,-1.828632495E0,-7.344426795E0,-9.635269994E-1,7.629736957E0
1.389672613E1,-1.506012664E0,-6.594137810E0,-5.920855486E-1,6.789793289E0
1.390676012E1,-1.123749187E0,-5.947637488E0,-2.095677173E-1,6.056494246E0
1.391679413E1,-8.316316482E-1,-5.223142326E0,1.364564717E-2,5.288951991E0
1.392682812E1,-3.850584465E-1,-4.550401454E0,2.877429441E-1,4.575720643E0
1.393686213E1,5.769827753E-2,-3.883031834E0,8.826889506E-1,3.982512411E0
1.394689713E1,1.388342419E-1,-2.705081590E0,1.498527351E0,3.095533165E0
1.395693112E1,4.444822374E-1,-9.512624645E-1,1.843975589E0,2.121959168E0
1.396696513E1,1.161735916E0,1.135421691E0,2.187308890E0,2.724542702E0
1.397699913E1,1.759059108E0,3.370163779E0,2.354349223E0,4.471605204E0
1.398703312E1,1.691771981E0,5.553876046E0,2.193443204E0,6.206353572E0
1.399706812E1,1.280072451E0,8.027423099E0,2.103455724E0,8.396584607E0
1.400710213E1,1.268048236E0,1.076132678E1,2.197842649E0,1.105642857E1
1.401713612E1,2.215117078E0,1.355022996E1,2.237176576E0,1.391116224E1
1.402717013E1,3.537923904E0,1.634151296E1,2.729915884E0,1.694149911E1
1.403720412E1,4.270393207E0,1.938544479E1,3.216835751E0,2.010919591E1
1.404723912E1,6.009679370E0,2.151871021E1,3.537225747E0,2.262041337E1
1.405727312E1,8.338973274E0,2.238229718E1,4.266529659E0,2.426332577E1
1.406730713E1,9.942573920E0,2.322347762E1,5.247141053E0,2.580149566E1
1.407734112E1,1.095299734E1,2.367671402E1,5.746007951E0,2.671275997E1
1.408737513E1,1.136737081E1,2.262697977E1,4.919153770E0,2.579525937E1
1.409741013E1,1.141026130E1,2.018689457E1,4.078337900E0,2.354437545E1
1.410744412E1,1.091841457E1,1.683351406E1,3.942942991E0,2.044812392E1
1.411747813E1,9.771632325E0,1.274615478E1,4.497841417E0,1.667872409E1
1.412751213E1,9.089351721E0,8.914652120E0,5.556324275E0,1.389100704E1
1.413754612E1,8.822536254E0,5.992488556E0,6.704394078E0,1.259745867E1
1.414758013E1,7.818987987E0,3.416047465E0,6.429386662E0,1.068377116E1
1.415761513E1,5.420555436E0,1.761783618E-1,4.377512736E0,6.969654066E0
1.416764912E1,2.128485608E0,-3.689762646E0,1.093625209E0,4.397819399E0
1.417768313E1,-9.593020937E-1,-6.958356780E0,-2.282641309E0,7.385759334E0
1.418771712E1,-3.227925288E0,-9.100051541E0,-4.489627833E0,1.064834249E1
1.419775212E1,-4.536247976E0,-1.021861279E1,-5.481077626E0,1.245149810E1
1.420778612E1,-5.282572256E0,-1.081579009E1,-6.231988170E0,1.355450336E1
1.421782013E1,-6.137839227E0,-1.128513556E1,-7.511692831E0,1.488129310E1
1.422785412E1,-7.099194571E0,-1.177938433E1,-8.978446997E0,1.642452341E1
1.423788813E1,-7.810045255E0,-1.227089660E1,-1.032243010E1,1.783603861E1
1.424792212E1,-8.273366929E0,-1.249683185E1,-1.134444504E1,1.879669758E1
1.425795712E1,-8.453346566E0,-1.251466936E1,-1.196349093E1,1.926658072E1
1.426799113E1,-8.248973515E0,-1.238270589E1,-1.191398724E1,1.906095646E1
1.427802512E1,-7.788141586E0,-1.219219776E1,-1.082650219E1,1.806980866E1
1.428805912E1,-7.268122385E0,-1.194205972E1,-9.163108499E0,1.671529092E1
1.429809313E1,-6.755481201E0,-1.188626442E1,-7.477767870E0,1.558322240E1
1.430812813E1,-6.357272952E0,-1.196985153E1,-5.919044019E0,1.478943363E1
1.431816212E1,-6.356353769E0,-1.179225639E1,-4.746808551E0,1.421241484E1
1.432819613E1,-6.254984100E0,-1.138785711E1,-3.780172587E0,1.353136432E1
1.433823012E1,-5.867631791E0,-1.088245887E1,-2.972640823E0,1.271588013E1
1.434826413E1,-5.469103113E0,-1.027237676E1,-2.457672155E0,1.189424086E1
1.435829913E1,-5.112765021E0,-9.558468570E0,-2.194269415E0,1.105981491E1
1.436833313E1,-4.874648273E0,-8.727871002E0,-2.122070628E0,1.021964343E1
1.437836712E1,-4.964274395E0,-7.719905164E0,-2.060803794E0,9.406799045E0
1.438840113E1,-4.858899382E0,-6.484644020E0,-1.900766087E0,8.323005646E0
1.439843512E1,-4.168543773E0,-5.091577635E0,-1.171838735E0,6.683870587E0
1.440847012E1,-2.935485275E0,-3.243109045E0,-7.114161104E-2,4.374916137E0
1.441850413E1,-8.833201575E-1,-5.293759149E-1,1.535346683E0,1.848724641E0
1.442853812E1,1.565074220E0,2.684495298E0,3.213068390E0,4.469874808E0
1.443857213E1,4.509972928E0,6.197415338E0,4.680582109E0,8.980849713E0
1.444860613E1,6.850114294E0,9.718287592E0,5.694472931E0,1.318317873E1
1.445864113E1,7.424620188E0,1.272830440E1,5.268092796E0,1.564888238E1
1.446867512E1,6.903830910E0,1.450479026E1,3.746940814E0,1.649519285E1
1.447870913E1,5.814163681E0,1.535060404E1,2.500484591E0,1.660415511E1
1.448874312E1,4.842958995E0,1.651569216E1,2.158945654E0,1.734599048E1
1.449877713E1,5.060430686E0,1.767376596E1,2.434252594E0,1.854442093E1
1.450881213E1,6.725506035E0,1.779628150E1,3.381452706E0,1.932289547E1
1.451884613E1,7.967741153E0,1.763635197E1,5.196332842E0,2.003815573E1
1.452888012E1,8.787652935E0,1.806399510E1,6.880464267E0,2.123373617E1
1.453891413E1,1.016249238E1,1.797569981E1,8.119316186E0,2.218840531E1
1.454894812E1,1.051352997E1,1.707713830E1,9.094946337E0,2.202001394E1
1.455898312E1,9.269733061E0,1.546877626E1,9.962933925E0,2.060269503E1
1.456901713E1,7.450274262E0,1.300817436E1,1.041071487E1,1.825108684E1
1.457905112E1,5.531274219E0,1.080863661E1,1.024234780E1,1.588481376E1
1.458908513E1,4.238223873E0,8.952051496E0,9.333550742E0,1.360944294E1
1.459911913E1,3.577797529E0,7.058081043E0,7.716359997E0,1.105257231E1
1.460915413E1,3.435278665E0,4.806688424E0,5.713589818E0,8.218911225E0
1.461918812E1,3.285346115E0,2.434543785E0,3.457410668E0,5.354828762E0
1.462922213E1,2.636899547E0,-1.238264859E-2,1.017386141E0,2.826387643E0
1.463925612E1,1.521363067E0,-2.550565993E0,-1.185753354E0,3.197802915E0
1.464929013E1,2.145808277E-1,-5.078876898E0,-2.995887598E0,5.900540481E0
1.465932513E1,-1.129240599E0,-7.285342435E0,-4.427134547E0,8.599472020E0
1.466935912E1,-2.305350433E0,-9.025976089E0,-5.343955742E0,1.073968100E1
1.467939312E1,-3.070742775E0,-1.036492532E1,-5.689747211E0,1.221615166E1
1.468942713E1,-3.594940689E0,-1.137164863E1,-5.653009155E0,1.319827654E1
1.469946112E1,-4.119497621E0,-1.219754913E1,-5.572490072E0,1.402865321E1
1.470949612E1,-4.800341272E0,-1.286369434E1,-5.628516923E0,1.483907380E1
1.471953013E1,-5.446813527E0,-1.340953309E1,-5.933663812E0,1.564262515E1
1.472956412E1,-5.952721642E0,-1.382369722E1,-6.315284096E0,1.632214180E1
1.473959813E1,-6.345302532E0,-1.397073716E1,-6.643043337E0,1.672047803E1
1.474963213E1,-6.491148462E0,-1.388367095E1,-6.648412836E0,1.670606837E1
1.475966713E1,-6.580016200E0,-1.369986021E1,-6.332651496E0,1.646466696E1
1.476970112E1,-6.574292945E0,-1.333701709E1,-5.800898103E0,1.596081989E1
1.477973513E1,-6.180611025E0,-1.277268477E1,-5.121210739E0,1.508536470E1
1.478976912E1,-5.218687332E0,-1.186984544E1,-4.259895993E0,1.364824685E1
1.479980313E1,-4.340570320E0,-1.084630203E1,-3.337407677E0,1.214994273E1
1.480983712E1,-4.074049845E0,-9.974753487E0,-2.674177009E0,1.110156799E1
1.481987212E1,-3.881755680E0,-9.179290084E0,-2.120976467E0,1.018950120E1
1.482990612E1,-3.580296045E0,-8.408983156E0,-1.388826276E0,9.244368876E0
1.483994013E1,-3.171522753E0,-7.598842072E0,-6.936658640E-1,8.263300172E0
1.484997412E1,-2.673522705E0,-6.712764367E0,4.208533466E-2,7.225697218E0
1.486000912E1,-2.054738185E0,-5.596467749E0,9.176630478E-1,6.031957041E0
1.487004313E1,-1.342524514E0,-4.325877144E0,1.739740784E0,4.852039069E0
1.488007712E1,-4.061630943E-1,-2.910598941E0,2.325548470E0,3.747629963E0
1.489011150E1,6.192859188E-1,-1.320573775E0,2.625750076E0,3.003663364E0
1.490014550E1,1.452169164E0,3.171301728E-1,2.669751836E0,3.055640962E0
1.491018050E1,2.089187933E0,1.979056796E0,2.577560248E0,3.863313197E0
1.492021450E1,2.493437234E0,3.704883546E0,2.658726911E0,5.197328170E0
1.493024850E1,2.695431345E0,5.287932984E0,3.155779710E0,6.722092751E0
1.494028250E1,2.741603299E0,6.677615000E0,4.180635231E0,8.341740925E0
1.495031650E1,1.945538217E0,8.103097179E0,5.308347952E0,9.880478775E0
1.496035050E1,1.283990085E-2,9.981073158E0,6.067373262E0,1.168053957E1
1.497038550E1,-2.368928232E0,1.225743046E1,5.869639724E0,1.379525618E1
1.498041950E1,-2.650394336E0,1.394094442E1,5.465426969E0,1.520675552E1
1.499045350E1,-1.710710966E0,1.477976376E1,5.423670833E0,1.583616602E1
1.500048750E1,-1.310906573E0,1.620226269E1,4.663834806E0,1.691103626E1
1.501052150E1,1.394877121E0,1.792411801E1,4.811490743E0,1.861102178E1
1.502055650E1,6.361733208E0,1.972749053E1,6.517973149E0,2.172854128E1
1.503059050E1,1.059379353E1,2.074049492E1,8.020650269E0,2.463183756E1
1.504062450E1,1.352520856E1,2.038467547E1,8.572944930E0,2.592222301E1
1.505065850E1,1.374509778E1,1.886757561E1,7.673256662E0,2.457217919E1
1.506069250E1,1.092726726E1,1.658481093E1,5.608076227E0,2.063762685E1
1.507072750E1,7.276593246E0,1.356807684E1,2.884116316E0,1.566396007E1
1.508076150E1,4.534837628E0,1.012555318E1,4.408385450E-1,1.110341921E1
1.509079550E1,2.730879213E0,6.578706424E0,-8.909975517E-1,7.178506538E0
1.510082950E1,1.403348129E0,3.313887836E0,-1.204815277E0,3.795104533E0
1.511086350E1,4.574744582E-1,4.000378436E-1,-1.545775192E0,1.660943738E0
1.512089850E1,-1.312720379E-1,-2.134707338E0,-2.317182858E0,3.153338574E0
1.513093250E1,-2.720303062E-1,-4.332176934E0,-3.349671334E0,5.482887517E0
1.514096650E1,-4.296291402E-1,-6.472771833E0,-4.592659866E0,7.948199862E0
1.515100050E1,-8.601762933E-1,-8.309462376E0,-5.976664236E0,1.027168845E1
1.516103450E1,-1.645334856E0,-9.818543952E0,-7.294365274E0,1.234174610E1
1.517106950E1,-2.491879536E0,-1.118229941E1,-8.470180115E0,1.424770982E1
1.518110350E1,-3.231999043E0,-1.230988817E1,-9.290294795E0,1.575718065E1
1.519113750E1,-3.942924572E0,-1.326437479E1,-9.625416266E0,1.685642107E1
1.520117150E1,-4.531112659E0,-1.394033280E1,-9.387707654E0,1.740669169E1
1.521120550E1,-4.670079340E0,-1.433828027E1,-8.480941331E0,1.730093315E1
1.522124050E1,-4.342024814E0,-1.437203975E1,-7.073711236E0,1.659656883E1
1.523127450E1,-3.735451035E0,-1.400506382E1,-5.352533607E0,1.545137609E1
1.524130850E1,-3.079368003E0,-1.358990683E1,-3.908343261E0,1.447215333E1
1.525134250E1,-2.363596156E0,-1.321238252E1,-2.567396618E0,1.366547343E1
1.526137650E1,-1.890593832E0,-1.269261884E1,-1.425924375E0,1.291162958E1
1.527141150E1,-1.664442534E0,-1.221436104E1,-5.121636124E-1,1.233788054E1
1.528144550E1,-1.565165290E0,-1.180809650E1,2.502302782E-1,1.191400439E1
1.529147950E1,-1.737361698E0,-1.129928583E1,8.282990277E-1,1.146204018E1
1.530151350E1,-2.023138662E0,-1.072241824E1,1.279026238E0,1.098632109E1
1.531154750E1,-2.215721534E0,-1.024431247E1,1.795582132E0,1.063388335E1
1.532158250E1,-2.232488278E0,-9.844576925E0,2.358808748E0,1.036646890E1
1.533161650E1,-2.076229042E0,-9.285407692E0,2.854239383E0,9.933589759E0
1.534165050E1,-1.980130783E0,-8.676488010E0,3.114097248E0,9.428677732E0
1.535168450E1,-2.030464200E0,-7.932421632E0,3.069553159E0,8.744612879E0
1.536171850E1,-2.224972852E0,-6.910988486E0,2.909492063E0,7.821598949E0
1.537175350E1,-1.585511116E0,-5.554964797E0,2.838963240E0,6.436706586E0
1.538178750E1,-1.799939623E-1,-3.753698441E0,2.935843710E0,4.768839282E0
1.539182150E1,1.160986010E0,-1.417158083E0,3.039317792E0,3.548757274E0
1.540185550E1,2.002549739E0,1.261965378E0,3.142494251E0,3.934213033E0
1.541188950E1,2.172642172E0,4.017563403E0,3.177786583E0,5.564127719E0
1.542192450E1,1.827732463E0,6.801649062E0,3.121641911E0,7.703744813E0
1.543195850E1,1.293473684E0,9.567101399E0,3.060354320E0,1.012759951E1
1.544199250E1,6.262568231E-1,1.216178171E1,2.926803330E0,1.252466805E1
1.545202650E1,-1.655813067E-1,1.431542467E1,2.551892433E0,1.454204097E1
1.546206050E1,-1.604101753E-1,1.571271158E1,2.256686542E0,1.587474947E1
1.547209550E1,6.031565206E-1,1.715971385E1,2.561790308E0,1.736036712E1
1.548212950E1,2.149270121E0,1.950559104E1,3.632930341E0,1.995709465E1
1.549216350E1,5.337737228E0,2.166997534E1,4.963131849E0,2.286289456E1
1.550219750E1,8.457198127E0,2.285758927E1,5.539183162E0,2.499352191E1
1.551223150E1,1.163226137E1,2.352177684E1,6.181146045E0,2.695904406E1
1.552226650E1,1.424000962E1,2.371982671E1,7.332769786E0,2.862127820E1
1.553230050E1,1.421358255E1,2.258462955E1,7.525924954E0,2.772599804E1
1.554233450E1,1.179618104E1,1.994211142E1,6.170343314E0,2.397729825E1
1.555236850E1,8.614774742E0,1.632309423E1,4.445629582E0,1.898476683E1
1.556240250E1,5.854310664E0,1.208152400E1,2.945251003E0,1.374447812E1
1.557243750E1,3.520671987E0,7.560951530E0,1.579557773E0,8.488705557E0
1.558247150E1,1.601637737E0,3.160420645E0,2.112914765E-1,3.549386733E0
1.559250550E1,4.026304990E-2,-7.985162348E-1,-9.430447876E-1,1.236358670E0
1.560253950E1,-1.070842556E0,-4.360597910E0,-1.926418406E0,4.885960069E0
1.561257350E1,-1.936263510E0,-7.298907976E0,-2.839550301E0,8.067603109E0
1.562260850E1,-2.531137157E0,-9.530012510E0,-3.857038037E0,1.058794296E1
1.563264250E1,-2.717714207E0,-1.131084928E1,-5.018253551E0,1.266902327E1
1.564267650E1,-2.785033493E0,-1.290857289E1,-6.218323227E0,1.459641084E1
1.565271050E1,-3.223584023E0,-1.435475538E1,-7.486949168E0,1.650772255E1
1.566274450E1,-4.167258555E0,-1.543456537E1,-8.647526751E0,1.817612640E1
1.567277950E1,-5.134432463E0,-1.617203492E1,-9.378029927E0,1.938671080E1
1.568281350E1,-5.702058524E0,-1.663207280E1,-9.465056961E0,1.996814013E1
1.569284750E1,-5.814665372E0,-1.675796686E1,-8.925406904E0,1.985705605E1
1.570288150E1,-5.570085112E0,-1.660622343E1,-7.936633381E0,1.922973360E1
1.571291550E1,-5.150376651E0,-1.618709501E1,-6.751990998E0,1.827943673E1
1.572295050E1,-4.549285221E0,-1.546108133E1,-5.577802852E0,1.705441047E1
1.573298450E1,-3.966925053E0,-1.449166443E1,-4.366755613E0,1.564651357E1
1.574301850E1,-3.322282684E0,-1.344298501E1,-3.256417308E0,1.422517704E1
1.575305250E1,-2.498296270E0,-1.238836015E1,-2.248263774E0,1.283618485E1
1.576308650E1,-1.690286350E0,-1.128771068E1,-1.359935184E0,1.149429876E1
1.577312150E1,-8.395386918E-1,-1.011458380E1,-5.336513990E-1,1.016338598E1
1.578315550E1,-2.086280698E-1,-8.904117776E0,2.229321134E-1,8.909351142E0
1.579318950E1,-2.557221293E-2,-7.755808822E0,8.146609819E-1,7.798518894E0
1.580322350E1,-8.337340146E-2,-6.792497000E0,9.822173318E-1,6.863651908E0
1.581325750E1,-2.516825804E-1,-5.964194464E0,8.413242853E-1,6.028497846E0
1.582329250E1,-3.161946183E-1,-5.366940562E0,6.614095527E-1,5.416778805E0
1.583332650E1,-2.394217001E-1,-4.501453242E0,6.332534552E-1,4.552077985E0
1.584336050E1,2.647493532E-1,-3.172702721E0,6.393012303E-1,3.247282070E0
1.585339450E1,8.196420787E-1,-1.577298701E0,7.182395187E-1,1.917173007E0
1.586342850E1,5.658758430E-1,3.909407455E-1,6.773560792E-1,9.653296816E-1
1.587346350E1,-4.839506507E-2,2.516049294E0,4.519492780E-1,2.556776150E0
1.588349750E1,-3.561199915E-1,4.780946057E0,6.523738503E-1,4.838373517E0
1.589353125E1,-7.207555756E-1,7.222039309E0,1.855030335E0,7.491226730E0
1.590356525E1,-7.568127233E-1,9.561782772E0,3.790718333E0,1.031358331E1
1.591359925E1,-5.871510834E-2,1.178332419E1,5.618489533E0,1.305440925E1
1.592363425E1,1.371717031E0,1.369693660E1,6.366762983E0,1.516652072E1
1.593366825E1,2.977486703E0,1.682303819E1,6.200585698E0,1.817490864E1
1.594370225E1,5.849813570E0,2.077395503E1,5.417835896E0,2.225152741E1
1.595373625E1,1.038114433E1,2.397344384E1,4.804479346E0,2.656270297E1
1.596377025E1,1.471514267E1,2.611710093E1,4.328831742E0,3.028823483E1
1.597380525E1,1.656929008E1,2.667177482E1,3.238062898E0,3.156596264E1
1.598383925E1,1.409378011E1,2.532470965E1,1.616480309E0,2.902737614E1
1.599387325E1,9.604608364E0,2.174335088E1,8.204754531E-2,2.377032900E1
1.600390725E1,5.580116011E0,1.719210742E1,-9.070335406E-1,1.809776125E1
1.601394125E1,2.536450229E0,1.276120668E1,-9.995755224E-1,1.304918109E1
1.602397625E1,5.968773419E-1,8.513637207E0,-8.560689166E-1,8.577361776E0
1.603401025E1,-7.094321501E-1,4.532594928E0,-6.899392873E-1,4.639367088E0
1.604404425E1,-1.699803424E0,9.579136723E-1,-7.009797075E-1,2.073234872E0
1.605407825E1,-2.398366770E0,-2.283453487E0,-9.775164628E-1,3.452804864E0
1.606411225E1,-2.966879561E0,-5.293971403E0,-1.577807702E0,6.270405465E0
1.607414725E1,-3.608176738E0,-7.947306304E0,-2.387174468E0,9.048603141E0
1.608418125E1,-4.142808423E0,-1.003219419E1,-2.803915322E0,1.121025081E1
1.609421525E1,-4.530588164E0,-1.152899252E1,-2.808835169E0,1.270171062E1
1.610424925E1,-4.848438129E0,-1.273389785E1,-2.752638164E0,1.390095405E1
1.611428425E1,-5.196481361E0,-1.371107985E1,-2.827932175E0,1.493299466E1
1.612431825E1,-5.714746982E0,-1.444742440E1,-3.246089956E0,1.587209831E1
1.613435225E1,-6.234058084E0,-1.490000239E1,-3.863692169E0,1.660727758E1
1.614438625E1,-6.565092351E0,-1.507231984E1,-4.443486870E0,1.702996883E1
1.615442025E1,-6.748542311E0,-1.488359511E1,-4.812562537E0,1.703599087E1
1.616445525E1,-6.684451565E0,-1.436674919E1,-4.756112348E0,1.654406177E1
1.617448925E1,-5.930053157E0,-1.366834372E1,-4.163902254E0,1.547020467E1
1.618452325E1,-5.148794394E0,-1.276702349E1,-3.362833124E0,1.417094278E1
1.619455725E1,-4.433818791E0,-1.169225029E1,-2.596068440E0,1.277133655E1
1.620459125E1,-3.747071207E0,-1.066172180E1,-1.931707067E0,1.146491808E1
1.621462525E1,-3.144500138E0,-9.808473877E0,-1.157596745E0,1.036504082E1
1.622466025E1,-2.794132053E0,-9.053177921E0,-3.241322136E-1,9.480098422E0
1.623469425E1,-2.557285028E0,-8.201086573E0,3.347109962E-1,8.597066892E0
1.624472825E1,-2.209907647E0,-7.270949514E0,7.431347702E-1,7.635617063E0
1.625476225E1,-1.589419249E0,-6.322800107E0,1.019716403E0,6.598778393E0
1.626479725E1,-9.630046968E-1,-5.524024256E0,1.318556924E0,5.760279020E0
1.627483125E1,-5.831806777E-1,-4.823350065E0,1.508607220E0,5.087307864E0
1.628486525E1,-3.100078256E-1,-4.017542353E0,1.645461887E0,4.352504593E0
1.629489925E1,1.157349627E-1,-2.890593277E0,1.872434573E0,3.446002801E0
1.630493325E1,4.693348043E-1,-1.376958475E0,2.085387682E0,2.542662302E0
1.631496825E1,3.985047036E-1,6.696219671E-1,2.424029761E0,2.546197137E0
1.632500225E1,2.079202643E-1,3.238015535E0,2.919982553E0,4.365120107E0
1.633503625E1,-1.494830449E-1,6.070718454E0,2.919654524E0,6.737978203E0
1.634507025E1,-1.051643224E0,8.996633592E0,2.503436850E0,9.397476550E0
1.635510425E1,-1.599295927E0,1.171003168E1,2.229601800E0,1.202720722E1
1.636513925E1,-6.653520378E-1,1.404169078E1,2.893980569E0,1.435224362E1
1.637517325E1,6.173139453E-1,1.616741328E1,4.605706174E0,1.682197545E1
1.638520725E1,1.018856570E0,1.881143299E1,6.776698408E0,2.002078223E1
1.639524125E1,3.201970959E0,2.080806067E1,9.283460569E0,2.300892537E1
1.640527525E1,6.303300812E0,2.190986554E1,1.179819366E1,2.567043402E1
1.641531025E1,9.104962617E0,2.165466733E1,1.331235705E1,2.700081131E1
1.642534425E1,1.108614663E1,1.958110315E1,1.332816675E1,2.615267246E1
1.643537825E1,1.074695316E1,1.735474890E1,1.068143978E1,2.303860819E1
1.644541225E1,8.903019669E0,1.601928694E1,5.602491551E0,1.916426948E1
1.645544625E1,6.762298470E0,1.503040232E1,-8.793323565E-1,1.650499621E1
1.646548125E1,4.818203931E0,1.277005352E1,-6.198086014E0,1.499018433E1
1.647551525E1,3.757822190E0,9.333635527E0,-9.417370579E0,1.378132245E1
1.648554925E1,2.637719911E0,5.347376947E0,-9.799983720E0,1.147134201E1
1.649558325E1,1.265709496E0,1.527823656E0,-8.752885975E0,8.974924988E0
1.650561725E1,2.906699140E-1,-1.995369358E0,-7.890709934E0,8.144279658E0
1.651565225E1,-8.318921417E-2,-5.138241339E0,-6.709932561E0,8.451724054E0
1.652568625E1,-4.697930798E-1,-7.556279604E0,-5.347409107E0,9.268918554E0
1.653572025E1,-1.129289862E0,-9.511662194E0,-4.115042920E0,1.042499839E1
1.654575425E1,-2.060272429E0,-1.121068648E1,-3.334680535E0,1.187620764E1
1.655578825E1,-2.817435254E0,-1.253719050E1,-3.353569381E0,1.328026786E1
1.656582325E1,-3.194039211E0,-1.340924190E1,-3.656582621E0,1.426114481E1
1.657585725E1,-3.526292038E0,-1.380525277E1,-3.924356446E0,1.477904980E1
1.658589125E1,-3.928490428E0,-1.409354389E1,-4.529727454E0,1.531598665E1
1.659592525E1,-4.696732703E0,-1.413372595E1,-5.361485694E0,1.582930941E1
1.660595925E1,-5.412519608E0,-1.394649343E1,-5.748252697E0,1.602630514E1
1.661599425E1,-5.737354072E0,-1.366388814E1,-5.293348090E0,1.573653726E1
