"Time (s)","Linear Acceleration x (m/s^2)","Linear Acceleration y (m/s^2)","Linear Acceleration z (m/s^2)","Absolute acceleration (m/s^2)"
1.763791661E-3,-1.891831541E-1,3.122197542E-1,-9.697209549E-1,1.036161267E0
1.179779167E-2,-7.373923659E-2,4.396277328E-1,-7.712190932E-1,8.907799437E-1
2.183179166E-2,-1.221328399E-1,3.855667157E-1,-5.440389776E-1,6.779059906E-1
3.186579167E-2,-2.881361693E-1,1.411712278E-1,-1.883470023E-1,3.720569323E-1
4.189979166E-2,-4.146357098E-1,-1.531874022E-1,-2.712406397E-2,4.428598728E-1
5.193279166E-2,-5.382306460E-1,-2.758752890E-1,-1.539297062E-1,6.240943501E-1
6.196679166E-2,-6.679546335E-1,-4.659449541E-1,-3.195251924E-1,8.748510966E-1
7.200079167E-2,-5.485395795E-1,-7.308605144E-1,-3.193111843E-1,9.679940053E-1
8.203479166E-2,-1.926976231E-1,-6.952257550E-1,-2.684912789E-1,7.697784039E-1
9.206879167E-2,8.932118922E-2,-6.463270254E-1,-3.499505943E-1,7.403933529E-1
1.021027917E-1,1.764908955E-1,-5.590951925E-1,-5.375088072E-1,7.953943602E-1
1.121367917E-1,1.111204863E-1,-4.862785003E-1,-5.560076433E-1,7.469665600E-1
1.221707917E-1,2.991713271E-1,-4.629625452E-1,-7.308393914E-1,9.154037454E-1
1.322047917E-1,4.293209919E-1,-3.821608588E-1,-9.652478349E-1,1.123417473E0
1.422387917E-1,3.900692180E-1,-2.956692103E-1,-7.741462094E-1,9.159020855E-1
1.522727917E-1,6.005797988E-1,-1.220309887E-1,-3.492103368E-1,7.053619754E-1
1.623067917E-1,9.838416883E-1,2.834836860E-1,-1.401431412E-1,1.033415487E0
1.723407917E-1,5.205346325E-1,1.229905716E-1,-4.309415478E-1,6.868723331E-1
1.823747917E-1,6.126817811E-1,1.527373219E-1,-1.201191757E0,1.357044322E0
1.924087917E-1,-4.821061465E-1,1.010002076E-1,-1.590622167E0,1.665144515E0
2.024427917E-1,-1.253166488E-1,-1.221221139E-1,-2.141149800E0,2.148287816E0
2.124767917E-1,-6.716670308E-1,-4.622900058E-1,-1.510772005E0,1.716764603E0
2.225107917E-1,-9.608627155E-1,-8.135311536E-1,-1.291335357E0,1.803506890E0
2.325447917E-1,-8.055834720E-1,-1.096925962E0,-9.663880420E-1,1.669166602E0
2.425787917E-1,-1.155953896E0,-1.471230648E0,-5.490032637E-1,1.949911181E0
2.526127917E-1,-1.212183353E0,-1.748756752E0,-5.437284905E-1,2.196173794E0
2.626457917E-1,-1.283043129E0,-1.919156749E0,-8.433363122E-1,2.457758823E0
2.726797917E-1,-1.186605293E0,-2.073436850E0,-1.246842724E0,2.694770727E0
2.827137917E-1,-9.037564686E-1,-2.228485275E0,-1.411662285E0,2.788496509E0
2.927477917E-1,-1.621320342E0,-2.507285779E0,-1.732747514E0,3.452184175E0
3.027817917E-1,-2.932552897E0,-3.226812270E0,-3.076780318E0,5.336549545E0
3.128157917E-1,-4.800065283E0,-4.269301532E0,-4.498155997E0,7.842255394E0
3.228497917E-1,-5.544975414E0,-4.999062404E0,-4.205843162E0,8.568926068E0
3.328837917E-1,-4.740642369E0,-5.527945399E0,-3.019278799E0,7.883394882E0
3.429177917E-1,-3.559411252E0,-5.504310368E0,-1.073026053E0,6.642155223E0
3.529517917E-1,-2.472328493E0,-5.070440535E0,6.396263355E-1,5.677226193E0
3.629857917E-1,-1.643475734E0,-4.845166612E0,1.292449252E0,5.277032978E0
3.730197917E-1,-1.423101193E0,-4.414776456E0,1.298015217E0,4.816670185E0
3.830537917E-1,-1.474929743E0,-3.744214257E0,1.043351433E0,4.157299648E0
3.930877917E-1,-1.817085999E0,-3.284058558E0,3.161291295E-1,3.766534185E0
4.031217917E-1,-2.413126604E0,-2.768844307E0,-1.062672973E-1,3.674366822E0
4.131557917E-1,-2.323969429E0,-2.231859557E0,8.707158995E-1,3.337690394E0
4.231897917E-1,-3.894783568E-1,-1.740554717E0,3.145710220E0,3.616174346E0
4.332237917E-1,2.395939298E0,-1.209971936E0,5.673451606E0,6.276353267E0
4.432577917E-1,4.449703630E0,-5.769795594E-1,7.238367659E0,8.516262923E0
4.532917917E-1,5.208430147E0,-3.743258822E-1,7.199531622E0,8.893881044E0
4.633257917E-1,5.350073099E0,-4.215260687E-1,5.563083656E0,7.729739074E0
4.733597917E-1,4.930338909E0,-3.671759069E-2,3.236567180E0,5.897877334E0
4.833927917E-1,4.115351653E0,9.438479027E-1,4.888096869E-2,4.222482378E0
4.934267917E-1,4.073772687E0,2.476314832E0,-1.265806122E0,4.932547434E0
5.034607917E-1,5.379641883E0,4.033628920E0,-6.562008530E-1,6.755835153E0
5.134947917E-1,6.955643088E0,5.095045034E0,7.117113948E-2,8.622384820E0
5.235287917E-1,7.812083010E0,5.862141840E0,6.315817362E-1,9.787351194E0
5.335627917E-1,8.504316160E0,6.298920078E0,8.757509369E-1,1.061916791E1
5.435967917E-1,8.504696814E0,6.617486912E0,6.779899174E-1,1.079725295E1
5.536307917E-1,8.127805758E0,7.118043655E0,2.603715429E-1,1.080719970E1
5.636647917E-1,7.997116395E0,7.499773282E0,-2.406196484E-1,1.096623763E1
5.736987917E-1,7.695707046E0,7.793379521E0,-9.919935840E-1,1.099748710E1
5.837327917E-1,6.930849139E0,7.765207052E0,-1.799124522E0,1.056276287E1
5.937667917E-1,6.208953064E0,7.157336944E0,-2.208052472E0,9.729032121E0
6.038007917E-1,5.692366179E0,6.405206087E0,-2.161460688E0,8.837511530E0
6.138347917E-1,5.502443352E0,5.692759112E0,-1.955978420E0,8.155381091E0
6.238687917E-1,5.498308201E0,5.299739681E0,-2.256523551E0,7.963073044E0
6.339027917E-1,5.046640613E0,5.088103219E0,-2.316809806E0,7.531599002E0
6.439367917E-1,4.490551109E0,4.462262279E0,-2.222893582E0,6.709552130E0
6.539707917E-1,4.334122303E0,3.671785089E0,-1.783083855E0,5.953655172E0
6.640047917E-1,4.160259438E0,3.036589774E0,-1.563836657E0,5.382770767E0
6.740387917E-1,2.864791269E0,1.748760114E0,-2.301369064E0,4.069581123E0
6.840727917E-1,9.771586132E-1,4.171532285E-1,-3.539897924E0,3.695907613E0
6.941067917E-1,-6.046956539E-2,-1.068765771E-1,-3.730649009E0,3.732669447E0
7.041401667E-1,1.019210619E-1,-3.692265254E-1,-3.566820551E0,3.587328390E0
7.141741667E-1,4.698997915E-1,-8.392415071E-1,-4.052728265E0,4.165301731E0
7.242081667E-1,-1.445513570E-1,-9.460330072E-1,-3.702793458E0,3.824467668E0
7.342421667E-1,-3.815775990E-2,-6.955298102E-1,-4.325542098E0,4.381270612E0
7.442761667E-1,7.894928116E-1,-4.191617471E-1,-4.561213248E0,4.647973942E0
7.543101667E-1,6.209035510E-1,2.261454508E-1,-2.182292125E0,2.280145149E0
7.643441667E-1,-3.673244262E-1,4.338315341E-1,-1.301795588E0,1.420495965E0
7.743781667E-1,-4.554799730E-1,1.316988847E-1,-4.630655658E-1,6.627490628E-1
7.844121667E-1,-7.614606750E-1,-5.019504270E-1,1.035080547E0,1.379553670E0
7.944461667E-1,-1.137424947E0,-1.323325182E0,1.619753580E0,2.380866797E0
8.044801667E-1,-1.732063975E0,-1.841527068E0,1.840313478E0,3.126982771E0
8.145141667E-1,-2.237671543E0,-2.212279716E0,1.501325828E0,3.486450160E0
8.245481667E-1,-2.138312731E0,-2.319808843E0,8.535033777E-1,3.268388352E0
8.345821667E-1,-2.565759982E0,-2.129278198E0,-3.003436938E-2,3.334344313E0
8.446161667E-1,-3.285221277E0,-2.539605094E0,-1.496755645E0,4.413904205E0
8.546501667E-1,-3.479937651E0,-2.433460150E0,-2.085318831E0,4.730776784E0
8.646841667E-1,-3.250102315E0,-2.252337237E0,-2.366403258E0,4.608259158E0
8.747181667E-1,-2.413405516E0,-1.793084494E0,-2.943077885E0,4.207301466E0
8.847521667E-1,-1.180810118E0,-5.050086670E-1,-2.574557703E0,2.877098131E0
8.947861667E-1,-6.351941460E-1,4.576583531E-1,-2.032498008E0,2.178065868E0
9.048191667E-1,-9.822258103E-1,6.478818731E-1,-1.353074353E0,1.793133757E0
9.148531667E-1,-9.031223381E-1,4.816687748E-1,-4.478598815E-1,1.117234639E0
9.248871667E-1,-6.947123694E-1,2.039004497E-1,4.424845362E-1,8.485241507E-1
9.349211667E-1,-9.589340115E-1,7.193829417E-2,1.247882359E0,1.575417385E0
9.449551667E-1,-1.176138192E0,-3.621937868E-1,1.430153520E0,1.886749712E0
9.549891667E-1,-1.756525217E0,-9.937405859E-1,1.227819393E0,2.362295843E0
9.650231667E-1,-2.187780760E0,-1.292332600E0,8.255262780E-1,2.671703920E0
9.750571667E-1,-2.414207754E0,-1.332414386E0,3.936661327E-1,2.785444345E0
9.850911667E-1,-2.947434645E0,-1.321303946E0,-2.365619548E-1,3.238699842E0
9.951251667E-1,-3.495380148E0,-1.384125115E0,-9.120323253E-1,3.868499408E0
1.005159167E0,-3.660549957E0,-1.625923416E0,-1.482079718E0,4.270809435E0
1.015193167E0,-3.513062713E0,-1.889160971E0,-1.664374852E0,4.322115506E0
1.025227167E0,-2.847857732E0,-2.134924123E0,-1.193318408E0,3.753958377E0
1.035261167E0,-2.444284077E0,-2.290617496E0,-6.058299407E-1,3.404186111E0
1.045295167E0,-2.350512865E0,-2.186068549E0,-3.030635992E-1,3.224229206E0
1.055329167E0,-2.354234617E0,-1.864738906E0,-3.900092109E-1,3.028494511E0
1.065363167E0,-1.796926553E0,-2.048582529E0,-8.917859025E-1,2.867214242E0
1.075397167E0,-1.504179854E0,-1.582366629E0,-1.505211157E0,2.651811044E0
1.085431167E0,-1.322360684E0,-8.167538466E-1,-1.481682400E0,2.147348914E0
1.095465167E0,-6.240458447E-1,-7.333272354E-1,-1.310078169E0,1.625886484E0
1.105498167E0,3.534630167E-1,-9.428817965E-1,-1.317306350E0,1.658088721E0
1.115532167E0,1.016721459E0,-1.560400687E0,-5.150191002E-1,1.932308853E0
1.125566167E0,1.329604214E0,-2.210787215E0,5.075558603E-1,2.629266138E0
1.135600167E0,1.407572742E0,-2.575324858E0,1.300136440E0,3.209971014E0
1.145634167E0,1.445007786E0,-2.381437911E0,1.471737017E0,3.150445028E0
1.155668167E0,1.023941016E0,-1.813516273E0,1.133371657E0,2.371039391E0
1.165702167E0,3.271616560E-1,-1.345170087E0,3.880818956E-1,1.437749933E0
1.175736167E0,-1.291883826E-2,-1.211338431E0,-5.522940767E-1,1.331366380E0
1.185770167E0,1.718818277E-1,-1.154947298E0,-9.918338089E-1,1.532051216E0
1.195804167E0,8.891229343E-1,-1.329376173E0,-1.032620623E0,1.903703221E0
1.205838167E0,1.128225523E0,-1.590906342E0,-1.799502836E0,2.653692951E0
1.215872167E0,4.473464960E-1,-1.806468332E0,-3.297968792E0,3.786825171E0
1.225906167E0,7.054893726E-1,-8.543474963E-1,-3.531666799E0,3.701390992E0
1.235940167E0,2.824539036E0,5.262830302E-1,-2.943799431E0,4.113508197E0
1.245974167E0,3.983821460E0,1.698654154E0,-2.763251445E0,5.137296751E0
1.256008167E0,3.518642126E0,3.105163872E0,-2.602309173E0,5.366087785E0
1.266042167E0,3.100240517E0,4.076200451E0,-2.574253063E0,5.731812995E0
1.276076167E0,2.525896590E0,4.227714087E0,-2.892111214E0,5.711219420E0
1.286110167E0,2.110798658E0,4.035424892E0,-2.872537075E0,5.384384299E0
1.296143167E0,1.650502918E0,3.468499913E0,-2.187183759E0,4.420228990E0
1.306177167E0,1.712095149E0,3.877793899E0,-1.103587183E0,4.380235152E0
1.316211167E0,1.766503490E0,4.399049785E0,-3.680705309E-1,4.754750205E0
1.326245167E0,1.254335346E0,4.547771376E0,-2.137296192E-1,4.722421201E0
1.336279167E0,1.831423371E0,3.584332085E0,-1.583347500E0,4.325336677E0
1.346313167E0,3.260546612E0,1.992434641E0,-2.886844043E0,4.789032108E0
1.356347167E0,4.088591285E0,2.609559721E-1,-1.959776187E0,4.541519506E0
1.366381167E0,4.057009304E0,-1.303595214E0,-5.721477127E-1,4.299539276E0
1.376415167E0,3.604227821E0,-2.907405776E0,2.090613484E-1,4.635425890E0
1.386449167E0,2.600264987E0,-5.116110798E0,1.028352156E0,5.830392427E0
1.396483167E0,1.672893076E0,-7.448292641E0,1.322672925E0,7.747586603E0
1.406517167E0,9.621406245E-1,-8.683914558E0,1.328335369E0,8.837452206E0
1.416551167E0,5.002544421E-1,-8.007404571E0,1.704975579E0,8.202178015E0
1.426585167E0,-8.108638000E-1,-4.702691016E0,1.582134933E0,5.027519651E0
1.436619167E0,-8.582297552E-1,-2.952101600E0,4.806832266E-1,3.111674555E0
1.446653167E0,-1.001140383E0,-2.097547990E0,3.062409214E-1,2.344306537E0
1.456687167E0,-1.468763269E0,-7.258365136E-1,4.863924479E-1,1.709000234E0
1.466721167E0,-1.831285377E0,1.122235635E-1,2.513267773E-1,1.851854587E0
1.476755167E0,-2.483399611E0,2.584147722E-2,2.308662003E-1,2.494241490E0
1.486789167E0,-3.538650128E0,-4.285055977E-1,2.417063534E-1,3.572685788E0
1.496822167E0,-4.670828953E0,-9.222585207E-1,2.017552525E-1,4.765281636E0
1.506856167E0,-5.339319484E0,-1.229264240E0,2.284817241E-1,5.483760300E0
1.516890167E0,-5.333544189E0,-1.063015620E0,4.519120020E-1,5.457189779E0
1.526924167E0,-4.989038522E0,-3.077933389E-1,5.056292393E-1,5.024032548E0
1.536958167E0,-4.799903315E0,-3.686646080E-1,3.289023721E-1,4.825262915E0
1.546992167E0,-3.558530077E0,-5.462480557E-1,1.019315138E-1,3.601654242E0
1.557026167E0,-1.909781324E0,-8.272617316E-1,-8.775033474E-2,2.083105086E0
1.567060167E0,-2.867112029E-1,-1.184814291E0,-4.309181954E-1,1.292934147E0
1.577094167E0,7.830181897E-1,-1.421676226E0,-2.751564835E-1,1.646205293E0
1.587128167E0,1.107245128E0,-1.638093372E0,1.627186561E-1,1.983889874E0
1.597162167E0,1.043990534E0,-1.652603822E0,8.553161607E-1,2.133677896E0
1.607196167E0,7.970234406E-1,-1.448019687E0,1.298178354E0,2.101731290E0
1.617230167E0,5.394196773E-1,-1.052158509E0,1.039501115E0,1.574348654E0
1.627264167E0,6.729349995E-1,-3.377380997E-1,6.840219782E-1,1.017248546E0
1.637298167E0,7.110331178E-1,9.973899794E-1,7.240115245E-1,1.422865965E0
1.647332167E0,9.127889550E-1,1.879668748E0,4.231887245E-1,2.132000698E0
1.657366167E0,9.813639307E-1,1.842810239E0,-3.239240527E-2,2.088079024E0
1.667400167E0,1.322020376E0,1.734816844E0,1.576766020E-1,2.186821727E0
1.677433167E0,2.015057518E0,1.865153035E0,1.020782496E0,2.929376990E0
1.687467167E0,2.351859478E0,2.102581565E0,1.436676235E0,3.466429121E0
1.697501167E0,2.479842165E0,2.089689040E0,6.024805824E-1,3.298393594E0
1.707535042E0,2.940277653E0,2.094757406E0,6.112255320E-2,3.610675454E0
1.717569042E0,4.361439325E0,2.201760283E0,5.007210499E-1,4.911275078E0
1.727603042E0,6.723634341E0,2.213655274E0,5.185531573E-1,7.097635226E0
1.737637042E0,8.712484054E0,2.344458658E0,4.022999851E-1,9.031373653E0
1.747671042E0,9.167970459E0,2.625933094E0,1.282118830E0,9.622423585E0
1.757705042E0,9.231267153E0,2.974389725E0,1.788150467E0,9.862087486E0
1.767739042E0,9.014841236E0,3.386355304E0,2.239610772E0,9.886891381E0
1.777773042E0,8.021350181E0,3.342677772E0,2.432845754E0,9.024095072E0
1.787807042E0,6.298058199E0,2.208043701E0,1.489810322E0,6.838167068E0
1.797841042E0,4.869885716E0,4.716042548E-1,8.348157495E-1,4.963377358E0
1.807875042E0,2.587267796E0,-1.040526351E0,1.017388042E0,2.968455518E0
1.817909042E0,-2.480840285E0,-2.985504989E0,1.166525955E0,4.053219876E0
1.827943042E0,-7.777089763E0,-3.923742196E0,1.304461187E0,8.807979167E0
1.837977042E0,-1.133994035E1,-3.343546376E0,-1.120925274E0,1.187560621E1
1.848011042E0,-1.321847766E1,-2.699133802E0,-4.541157006E0,1.423501253E1
1.858044042E0,-1.415565769E1,-2.660032009E0,-7.587900177E0,1.627988464E1
1.868078042E0,-1.518032610E1,-3.543757086E0,-9.953453250E0,1.849518171E1
1.878112042E0,-1.400106082E1,-3.620934193E0,-7.611174434E0,1.634230231E1
1.888146042E0,-1.111352914E1,-2.676022682E0,-3.929586781E0,1.208773261E1
1.898180042E0,-9.701766284E0,-1.648680633E0,-2.425159589E0,1.013527582E1
1.908214042E0,-8.886677286E0,-1.167938057E0,-1.781876551E0,9.138500782E0
1.918248042E0,-7.982493094E0,-1.025667114E0,-1.504625558E0,8.187556845E0
1.928282042E0,-6.694925097E0,-9.077182496E-1,-1.891076227E0,7.015849469E0
1.938316042E0,-5.252409979E0,-7.743198717E-1,-2.257346839E0,5.769141756E0
1.948350042E0,-3.605052279E0,-5.200355726E-1,-2.217180122E0,4.264120850E0
1.958384042E0,-7.139707589E-1,-4.003623641E-1,-1.744236124E0,1.926759954E0
1.968418042E0,3.706751731E0,-7.242209280E-1,-1.725195251E0,4.152204595E0
1.978452042E0,7.597023588E0,-1.042802380E0,-3.575425606E0,8.460843484E0
1.988486042E0,1.027246564E1,-1.199396077E0,-4.014286623E0,1.109398929E1
1.998520042E0,1.133910303E1,-1.339120558E0,-2.816369891E0,1.176012078E1
2.008554042E0,1.137934473E1,-3.966435349E-1,-3.067086804E-1,1.139038555E1
2.018588042E0,1.016728359E1,1.576516344E0,2.112014294E0,1.050331680E1
2.028621042E0,7.954870262E0,3.275413157E0,2.741109209E0,9.028951874E0
2.038655042E0,5.431227774E0,4.298222153E0,2.253207595E0,7.283535767E0
2.048689042E0,4.662237639E0,3.772425318E0,1.621217723E0,6.212567866E0
2.058723042E0,3.680411779E0,4.323407280E0,4.481334581E-1,5.695445985E0
2.068757042E0,2.688488069E0,4.712437155E0,7.849443356E-1,5.481894713E0
2.078791042E0,1.387415636E0,5.314745391E0,8.124805552E-1,5.552617884E0
2.088825042E0,7.981800199E-1,5.438247941E0,8.462125576E-1,5.561268534E0
2.098859042E0,5.565181053E-1,5.516588936E0,4.852667858E-1,5.565783840E0
2.108893042E0,4.364478707E-1,5.520727011E0,3.122243224E-1,5.546746569E0
2.118927042E0,1.071085654E-1,5.663139457E0,4.017925199E-1,5.678385156E0
2.128961042E0,-5.981809786E-1,5.143450624E0,1.238194327E-1,5.179598059E0
2.138995042E0,-1.472126734E0,2.349221799E0,-3.530466950E-1,2.794752610E0
2.149029042E0,4.738611339E-1,4.227328171E0,3.412727416E-1,4.267471725E0
2.159063042E0,1.513895880E0,1.925706216E0,4.237401170E-1,2.485916501E0
2.169097042E0,2.338054056E0,-3.347482429E0,-9.812135111E-1,4.199394639E0
2.179131042E0,1.858474199E0,-7.590510374E0,-2.328128700E0,8.154137437E0
2.189164042E0,3.046231247E0,-1.193723109E1,-2.530853859E0,1.257705181E1
2.199198042E0,4.672126743E0,-1.581234462E1,-1.797004467E0,1.658578415E1
2.209232042E0,6.074384658E0,-1.784734758E1,-1.452761340E0,1.890863507E1
2.219266042E0,7.059904205E0,-1.810559687E1,-9.285520251E-1,1.945551578E1
2.229300042E0,7.033322763E0,-1.703031263E1,4.321773568E-1,1.843057119E1
2.239334042E0,4.310051655E0,-1.482635321E1,1.956346795E0,1.556356603E1
2.249368042E0,1.329007360E0,-1.068614329E1,1.763966968E0,1.091198874E1
2.259402042E0,-1.550732754E-2,-5.824672297E0,3.950507534E-1,5.838074421E0
2.269436042E0,-7.395542277E-1,-1.975473622E0,-1.161130144E0,2.407832988E0
2.279470042E0,-2.876087797E0,3.053165168E0,-7.445697647E0,8.545882752E0
2.289504042E0,-4.232704686E0,5.456431612E0,-1.236714879E1,1.416456155E1
2.299538042E0,-2.133532193E0,4.411820689E0,-9.052006724E0,1.029344195E1
2.309572042E0,-2.458153380E-1,3.064269615E0,-5.775215963E0,6.542422554E0
2.319606042E0,6.619282007E-1,1.262401580E0,-2.892770196E0,3.224891641E0
2.329640042E0,9.128781250E-1,-2.686339509E-1,-1.116205401E0,1.466773728E0
2.339674042E0,6.324786991E-1,-1.658710070E0,-1.098201020E-1,1.778597440E0
2.349708042E0,1.440110743E-2,-2.606558345E0,7.735492817E-1,2.718957942E0
2.359741042E0,-7.755295144E-1,-3.157236251E0,1.584292556E0,3.616568771E0
2.369775042E0,-1.685525108E0,-3.356831542E0,2.331363233E0,4.420923820E0
2.379809042E0,-2.829493967E0,-3.182066453E0,3.295538689E0,5.384436671E0
2.389843042E0,-3.531451036E0,-2.942896037E0,4.528176187E0,6.452609014E0
2.399877042E0,-3.678861389E0,-2.549433972E0,5.503924452E0,7.094139770E0
2.409911042E0,-3.199866839E0,-1.894073948E0,6.393594686E0,7.396263713E0
2.419945042E0,-2.761330343E0,-1.315144050E0,6.881696860E0,7.530756987E0
2.429979042E0,-2.544079092E0,-6.697061670E-1,6.841048186E0,7.329446436E0
2.440013042E0,-2.295200543E0,-2.421045488E-1,7.068249936E0,7.435503837E0
2.450047042E0,-2.337697230E0,-6.532216966E-2,7.167665466E0,7.539530725E0
2.460081042E0,-2.164167072E0,4.164720279E-1,6.951072904E0,7.292083555E0
2.470115042E0,-1.728046645E0,6.413325530E-1,6.780655804E0,7.026716572E0
2.480149042E0,-1.158460305E0,1.100303314E0,6.322780226E0,6.521521866E0
2.490183042E0,-5.477870429E-1,1.252540836E0,6.031538601E0,6.184528041E0
2.500217042E0,-4.015879405E-1,1.162759178E0,5.547057023E0,5.681823950E0
2.510251042E0,-2.227704379E-1,1.443771685E0,4.898431238E0,5.111627132E0
2.520285042E0,-1.107778394E-1,1.653592587E0,4.282282058E0,4.591794834E0
2.530319042E0,-5.936239511E-2,1.836796378E0,3.852115266E0,4.268036651E0
2.540352042E0,-1.825000790E-1,1.883970544E0,3.543437244E0,4.017287492E0
2.550386042E0,-4.688838378E-1,1.594790647E0,3.261078708E0,3.660306490E0
2.560420042E0,-1.173903094E0,1.105173460E0,3.000292013E0,3.406054758E0
2.570454042E0,-1.936254593E0,8.916547787E-1,2.553571461E0,3.326388026E0
2.580488042E0,-2.331554437E0,5.057315290E-1,1.899362755E0,3.049506411E0
2.590522042E0,-3.048578612E0,4.982763290E-2,7.449820518E-1,3.138680074E0
2.600556042E0,-4.212775621E0,-5.316808873E-1,-1.320084947E0,4.446660237E0
2.610590042E0,-5.810699791E0,-1.152345872E0,-4.345529051E0,7.346819434E0
2.620624042E0,-7.144012309E0,-1.535709795E0,-6.409972737E0,9.720240066E0
2.630658042E0,-8.122242132E0,-1.632454317E0,-7.137747018E0,1.093540840E1
2.640692042E0,-8.645524664E0,-1.382142617E0,-6.456841679E0,1.087870486E1
2.650726042E0,-8.560090411E0,-1.005369090E0,-4.922232914E0,9.925436601E0
2.660760042E0,-8.081696954E0,-7.646257728E-1,-2.999080178E0,8.654071882E0
2.670794042E0,-6.589551255E0,-5.968118531E-1,-1.379965113E0,6.758895904E0
2.680828042E0,-4.705527501E0,-4.968882000E-1,-6.108048248E-1,4.770950584E0
2.690861042E0,-3.109397256E0,-3.416919869E-1,-5.473730600E-1,3.175645128E0
2.700895042E0,-1.648996675E0,-1.729027516E-1,-9.539755726E-1,1.912891735E0
2.710929792E0,1.169551304E-1,-1.626291937E-1,-1.214954349E0,1.231357311E0
2.720963792E0,1.702460399E0,-1.540080589E-1,-8.715619916E-1,1.918778309E0
2.730997792E0,3.512697846E0,-3.961991465E-1,-2.207429159E-1,3.541856485E0
2.741031792E0,5.910553862E0,-6.540613568E-1,6.621808004E-1,5.983387554E0
2.751065792E0,7.946912202E0,-8.173132789E-1,1.494816708E0,8.127477562E0
2.761099792E0,9.166658928E0,-6.721672601E-1,1.263514890E0,9.277710634E0
2.771133792E0,1.000968241E1,-2.201201874E-1,-3.883744025E-1,1.001963221E1
2.781167792E0,1.002974655E1,5.426917791E-1,-2.586966664E0,1.037220935E1
2.791201792E0,8.693710983E0,1.190045795E0,-3.143404078E0,9.320826619E0
2.801235792E0,6.424750990E0,1.616346992E0,-2.244243082E0,6.994757315E0
2.811269792E0,3.953452776E0,1.573356509E0,-1.181866710E0,4.416112371E0
2.821303792E0,1.963563136E0,5.167026597E-1,-8.491705178E-1,2.200829934E0
2.831337792E0,7.655627891E-1,-1.604691153E0,-1.282658089E0,2.192334795E0
2.841371792E0,7.217241669E-1,-4.194100199E0,-2.662253951E0,5.019856407E0
2.851405792E0,1.618683540E0,-6.406589538E0,-3.629649761E0,7.539156670E0
2.861438792E0,2.808090819E0,-7.000641505E0,-1.613909142E0,7.713563265E0
2.871472792E0,2.263728490E0,-5.617028314E0,3.703452440E-1,6.067341210E0
2.881506792E0,7.874883860E-1,-3.515153677E0,1.127373510E0,3.774574726E0
2.891540792E0,-8.401314533E-1,-1.856257081E0,9.804564428E-1,2.261151487E0
2.901574792E0,-2.092237256E0,-6.353947055E-1,6.891798802E-1,2.292629947E0
2.911608792E0,-3.246854187E0,3.074506921E-1,5.116559279E-1,3.301269426E0
2.921642792E0,-4.015022787E0,8.813128084E-1,3.936754882E-1,4.129418923E0
2.931676792E0,-4.574211316E0,1.056037552E0,2.157032007E-1,4.699484264E0
2.941710792E0,-4.731427742E0,9.983565241E-1,5.179653659E-2,4.835887417E0
2.951744792E0,-4.593311831E0,7.516303360E-1,-1.339012384E-2,4.654421665E0
2.961778792E0,-4.222867038E0,3.226060903E-1,-2.880638100E-2,4.235269828E0
2.971812792E0,-3.652840110E0,-1.670713234E-1,2.208771095E-2,3.656725525E0
2.981846792E0,-3.278365417E0,-5.870855945E-1,9.238147572E-2,3.331798859E0
2.991880792E0,-3.019414455E0,-8.846480602E-1,1.348939495E-1,3.149232004E0
3.001914792E0,-3.020250022E0,-1.022140074E0,3.082022054E-1,3.203384011E0
3.011948792E0,-3.278895759E0,-1.025725002E0,5.966605563E-1,3.487014912E0
3.021981792E0,-3.440040637E0,-1.092851037E0,1.031017463E0,3.753824714E0
3.032015792E0,-3.162127447E0,-1.035762332E0,1.668694921E0,3.722418077E0
3.042049792E0,-3.147477541E0,-8.471709162E-1,2.193924429E0,3.929073406E0
3.052083792E0,-3.516646763E0,-6.531860286E-1,2.553510066E0,4.394754840E0
3.062117792E0,-3.797323055E0,-3.849233758E-1,3.223192259E0,4.995677805E0
3.072151792E0,-3.424896348E0,-1.122630322E-1,3.442483896E0,4.857284567E0
3.082185792E0,-2.782229168E0,2.135900170E-1,3.379233980E0,4.382424230E0
3.092219792E0,-2.248392413E0,3.732692903E-1,3.196055916E0,3.925477273E0
3.102253792E0,-1.719187529E0,4.016423196E-1,2.764958248E0,3.280535996E0
3.112287792E0,-1.088420894E0,4.246534520E-1,2.098034040E0,2.401403221E0
3.122321792E0,-5.382379550E-1,4.537930512E-1,1.600910635E0,1.748869089E0
3.132355792E0,-3.176111063E-1,4.589807010E-1,1.295930099E0,1.411019107E0
3.142389792E0,-1.897310382E-1,4.496491295E-1,1.094438995E0,1.198323379E0
3.152423792E0,-8.102165133E-2,3.760683525E-1,9.910725014E-1,1.063116464E0
3.162457792E0,6.787652582E-2,2.847050232E-1,9.821614909E-1,1.024844070E0
3.172491792E0,3.125965342E-1,9.001028359E-2,1.011993985E0,1.062991190E0
3.182524792E0,5.883944938E-1,-1.368406337E-1,1.042252011E0,1.204667046E0
3.192558792E0,8.519641712E-1,-2.997218424E-1,1.065779598E0,1.396983280E0
3.202592792E0,1.064163720E0,-3.342151523E-1,1.038699827E0,1.524152723E0
3.212626792E0,1.253809974E0,-3.228312081E-1,9.487320819E-1,1.605101867E0
3.222660792E0,1.405756597E0,-2.458666474E-1,8.661150178E-1,1.669358332E0
3.232694792E0,1.559307111E0,-3.974118590E-2,7.702613193E-1,1.739632297E0
3.242728792E0,1.657565770E0,1.772565883E-1,6.576420455E-1,1.792048336E0
3.252762792E0,1.699127778E0,3.672337943E-1,5.244800413E-1,1.815757467E0
3.262796792E0,1.807960542E0,5.322580075E-1,3.976822928E-1,1.926180446E0
3.272830792E0,1.998409910E0,6.696763462E-1,2.553967318E-1,2.123048767E0
3.282864792E0,2.231866135E0,8.286258870E-1,1.232370865E-1,2.383911635E0
3.292898792E0,2.427656350E0,1.015071375E0,1.466584012E-2,2.631368529E0
3.302932792E0,2.594824153E0,1.207780985E0,-8.085120499E-2,2.863282069E0
3.312966792E0,2.756578603E0,1.327040210E0,-1.575184348E-1,3.063425104E0
3.323000792E0,2.926356018E0,1.318399780E0,-1.664427477E-1,3.213944727E0
3.333034792E0,3.087970719E0,1.248169457E0,-1.905704060E-1,3.336136574E0
3.343067792E0,3.208989665E0,1.120676767E0,-2.436777422E-1,3.407771989E0
3.353101792E0,3.229051754E0,1.010612288E0,-3.672551367E-1,3.403379021E0
3.363135792E0,3.196935630E0,9.945961797E-1,-5.695275754E-1,3.396171468E0
3.373169792E0,3.168131661E0,9.884846699E-1,-8.011629769E-1,3.414091721E0
3.383203792E0,3.169926463E0,9.385798538E-1,-1.052230138E0,3.469373746E0
3.393237792E0,3.209820846E0,7.950856733E-1,-1.266024807E0,3.540893942E0
3.403271792E0,3.210982688E0,6.372921270E-1,-1.473341639E0,3.589886720E0
3.413305792E0,3.134520988E0,4.608857238E-1,-1.724863421E0,3.607324673E0
3.423339792E0,3.063511232E0,3.250022793E-1,-1.954808977E0,3.648562139E0
3.433373792E0,2.970038812E0,2.309562474E-1,-2.176152987E0,3.689188685E0
3.443407792E0,2.864896226E0,1.862420046E-1,-2.388482929E0,3.734590630E0
3.453441792E0,2.804048054E0,1.384351695E-1,-2.524944371E0,3.775869947E0
3.463475792E0,2.778695111E0,9.678662181E-2,-2.612735344E0,3.815350593E0
3.473509792E0,2.955676296E0,-4.670171142E-2,-2.651676046E0,3.971094215E0
3.483543792E0,3.644866555E0,-6.185044384E-1,-2.563501203E0,4.498792989E0
3.493577792E0,4.568810828E0,-1.331452519E0,-2.313645293E0,5.291479257E0
3.503610792E0,5.388743075E0,-1.830613532E0,-1.978488739E0,6.025289662E0
3.513644792E0,6.116262417E0,-2.102654071E0,-1.645299481E0,6.673592022E0
3.523678792E0,6.883502480E0,-2.310044285E0,-1.328716022E0,7.381354703E0
3.533712792E0,7.461541262E0,-2.405283734E0,-1.110160258E0,7.917856001E0
3.543746792E0,7.676764991E0,-2.241459369E0,-1.064447310E0,8.067831735E0
3.553780792E0,8.304161875E0,-1.721774629E0,-3.659834842E0,9.236774513E0
3.563814792E0,8.639259957E0,-1.087584450E0,-9.531722821E0,1.291020497E1
3.573848792E0,5.810675232E0,-6.433872646E-1,-7.387500894E0,9.420884422E0
3.583882792E0,4.076551868E0,-7.370415330E-3,-3.083277744E0,5.111255336E0
3.593916792E0,3.186138453E0,5.212354213E-1,-4.853732783E-1,3.264774392E0
3.603950792E0,2.377675520E0,8.261875981E-1,1.050779590E0,2.727648176E0
3.613984792E0,1.659358234E0,9.354059851E-1,1.894499626E0,2.686555962E0
3.624018792E0,1.013575949E0,7.600573432E-1,2.359678960E0,2.678265887E0
3.634052792E0,3.917195946E-1,1.674876451E-1,2.498314689E0,2.534378156E0
3.644086792E0,-2.143665272E-1,-7.545983827E-1,2.474811805E0,2.596163554E0
3.654120792E0,-8.719110703E-1,-1.791472270E0,2.357255874E0,3.086463521E0
3.664153792E0,-1.387022995E0,-2.825837118E0,2.279911829E0,3.886796387E0
3.674187792E0,-1.841274760E0,-3.892242953E0,2.303950317E0,4.883444994E0
3.684221792E0,-2.280340430E0,-4.732750382E0,2.254491059E0,5.716783063E0
3.694255792E0,-2.809902286E0,-5.346377074E0,2.098862736E0,6.394100676E0
3.704289792E0,-3.348453067E0,-5.687901830E0,2.137165507E0,6.937711552E0
3.714323917E0,-4.090912630E0,-5.752743943E0,2.239724500E0,7.405808184E0
3.724357917E0,-4.673121647E0,-5.062756124E0,2.380836525E0,7.289578044E0
3.734391917E0,-4.684207383E0,-3.775122639E0,2.357214943E0,6.461409446E0
3.744425917E0,-4.374630643E0,-2.664667974E0,2.374432654E0,5.645863894E0
3.754459917E0,-4.011761795E0,-1.662185655E0,2.316514814E0,4.921720709E0
3.764493917E0,-3.718929142E0,-7.882064241E-1,2.268063616E0,4.426716153E0
3.774527917E0,-3.655461125E0,-8.665807486E-2,2.312877846E0,4.326581744E0
3.784561917E0,-4.276381633E0,3.482204032E-1,3.197499593E0,5.350953277E0
3.794595917E0,-4.763625435E0,4.891324532E-1,4.630410075E0,6.661236770E0
3.804629917E0,-4.337325992E0,3.283901560E-1,5.151078901E0,6.741947100E0
3.814662917E0,-3.721358660E0,1.116935134E-1,4.791409650E0,6.067832575E0
3.824696917E0,-3.161570792E0,-9.951259375E-2,4.437807177E0,5.449730743E0
3.834730917E0,-2.967843182E0,-2.216556662E-1,4.261602795E0,5.197930624E0
3.844764917E0,-2.535355046E0,-4.147196174E-2,4.116788313E0,4.835048205E0
3.854798917E0,-2.156420388E0,4.292248052E-1,3.766771646E0,4.361530861E0
3.864832917E0,-2.089118351E0,8.258391041E-1,3.364482039E0,4.045511723E0
3.874866917E0,-2.246242976E0,1.160414445E0,2.790949706E0,3.765842462E0
3.884900917E0,-2.703886419E0,1.455940325E0,1.911922574E0,3.617486963E0
3.894934917E0,-3.528867736E0,1.567014034E0,9.933391014E-1,3.986873845E0
3.904968917E0,-4.395318677E0,1.482931657E0,3.758414805E-1,4.653941275E0
3.915002917E0,-5.125825362E0,1.191608171E0,1.378807803E-1,5.264316364E0
3.925036917E0,-5.725309977E0,7.787128848E-1,1.327176889E-1,5.779548605E0
3.935070917E0,-6.255840717E0,3.998980951E-1,2.238127041E-1,6.272603422E0
3.945104917E0,-6.724518440E0,8.466300488E-2,1.710100809E-1,6.727225322E0
3.955138917E0,-7.093888223E0,-1.747990036E-1,-1.506055276E-1,7.097639525E0
3.965172917E0,-7.237671840E0,-4.083145773E-1,-6.047903788E-1,7.274364980E0
3.975205917E0,-7.055331098E0,-6.564049208E-1,-1.094195312E0,7.169785750E0
3.985239917E0,-6.093588084E0,-8.171501416E-1,-1.774912956E0,6.399208239E0
3.995273917E0,-4.339718088E0,-8.862268084E-1,-2.641988379E0,5.157388257E0
4.005307917E0,-2.175467693E0,-8.659697145E-1,-3.343036791E0,4.081477455E0
4.015341917E0,1.964787251E-1,-5.359335673E-1,-3.957882042E0,3.998832197E0
4.025375917E0,2.436748770E0,-2.590030020E-1,-3.666969030E0,4.410384223E0
4.035409917E0,4.207916585E0,-4.628410327E-1,-1.324496672E0,4.435659504E0
4.045443917E0,5.786177738E0,-9.318859613E-1,6.414781487E-1,5.895740706E0
4.055477917E0,7.701737280E0,-1.245120719E0,1.047100741E0,7.871689952E0
4.065511917E0,9.987377626E0,-1.051810600E0,2.540474137E-1,1.004582289E1
4.075545917E0,1.150371267E1,-1.505909461E-1,-2.162754677E0,1.170622017E1
4.085579917E0,1.204603842E1,1.192415087E0,-5.618140454E0,1.334512635E1
4.095613917E0,1.074977853E1,2.184710387E0,-6.058806506E0,1.253155355E1
4.105647917E0,8.577111071E0,2.037870430E0,-4.337962169E0,9.825358314E0
4.115681917E0,6.432298576E0,-2.314865899E-1,-2.743190818E0,6.996652548E0
4.125714917E0,5.071990047E0,-3.618859894E0,-1.573459420E0,6.426274544E0
4.135748917E0,4.291369216E0,-5.803441057E0,-4.561151998E-1,7.232137922E0
4.145782917E0,3.982562554E0,-7.158498786E0,9.132641874E-2,8.192267689E0
4.155816917E0,3.438943407E0,-7.220671061E0,4.126239753E-1,8.008413130E0
4.165850917E0,1.452663546E0,-4.559749398E0,7.998460378E-1,4.851937719E0
4.175884917E0,-8.561767977E-1,-1.406330793E0,6.159269857E-1,1.757888239E0
4.185918917E0,-2.845451018E0,3.534834820E-1,2.275134069E-1,2.876335241E0
4.195952917E0,-4.260119941E0,1.145431539E0,1.034091783E-1,4.412632863E0
4.205986917E0,-4.963166347E0,1.428998110E0,2.510781245E-1,5.170889286E0
4.216020917E0,-5.426263488E0,1.404520496E0,1.550079328E-1,5.607231110E0
4.226054917E0,-5.849984309E0,1.050527136E0,3.625090979E-2,5.943672081E0
4.236088917E0,-5.973696190E0,3.793486404E-1,7.047473609E-2,5.986143854E0
4.246122917E0,-5.739118177E0,-5.334695506E-1,2.761692578E-1,5.770471096E0
4.256156917E0,-5.360937810E0,-1.498306326E0,4.759411347E-1,5.586689182E0
4.266190917E0,-4.864146089E0,-2.208596263E0,7.009413352E-1,5.387869095E0
4.276224917E0,-4.490221326E0,-2.522745525E0,1.050896680E0,5.256492782E0
4.286257917E0,-4.544038514E0,-2.405836880E0,1.493557218E0,5.354161958E0
4.296291917E0,-5.040863564E0,-2.114563680E0,2.104265563E0,5.857441300E0
4.306325917E0,-5.233844485E0,-1.550712581E0,2.744065561E0,6.109642658E0
4.316359917E0,-4.772462332E0,-6.185161328E-1,3.145296237E0,5.749073607E0
4.326393917E0,-4.363768563E0,8.318132043E-2,3.182720756E0,5.401768841E0
4.336427917E0,-4.278646259E0,2.993604845E-1,3.362483461E0,5.450020691E0
4.346461917E0,-4.121794407E0,2.544351572E-1,3.525290995E0,5.429696399E0
4.356495917E0,-3.580103379E0,2.434926778E-1,3.516779788E0,5.024357567E0
4.366529917E0,-3.010384015E0,2.124240822E-1,3.300997649E0,4.472596717E0
4.376563917E0,-2.334592651E0,1.672812384E-1,3.025955150E0,3.825534006E0
4.386597917E0,-1.575708259E0,1.451343244E-1,2.701508941E0,3.130825937E0
4.396631917E0,-8.451758462E-1,1.671058220E-1,2.529006724E0,2.671726329E0
4.406665917E0,-1.722370461E-1,8.324213147E-2,2.284483182E0,2.292478628E0
4.416699917E0,2.344964442E-1,5.052579045E-3,2.079645862E0,2.092830863E0
4.426733917E0,4.228528020E-1,4.206486940E-3,1.913089094E0,1.959268248E0
4.436766917E0,4.977652824E-1,6.876267135E-2,1.744047258E0,1.814992953E0
4.446800917E0,5.326202425E-1,1.432708168E-1,1.580311918E0,1.673797063E0
4.456834917E0,5.897653735E-1,2.704617906E-1,1.388880363E0,1.532958394E0
4.466868917E0,6.011770919E-1,3.485846847E-1,1.196308601E0,1.383502601E0
4.476902917E0,6.713688228E-1,3.470702559E-1,1.053714892E0,1.296730092E0
4.486936917E0,8.854041052E-1,2.852879906E-1,8.752748273E-1,1.277276669E0
4.496970917E0,1.258371972E0,1.037032932E-1,6.824465190E-1,1.435265705E0
4.507004917E0,1.666188366E0,-1.400203496E-1,5.159033453E-1,1.749841602E0
4.517038917E0,2.083750023E0,-3.020659912E-1,3.691563588E-1,2.137646939E0
4.527072917E0,2.487050320E0,-3.095779091E-1,2.406310505E-1,2.517769068E0
4.537106917E0,2.768148488E0,-1.362459719E-1,9.145045280E-2,2.773007790E0
4.547140917E0,2.958904836E0,1.657720721E-1,-6.907315850E-3,2.963552922E0
4.557174917E0,3.056537550E0,5.581453854E-1,-8.310852259E-2,3.108191611E0
4.567208917E0,3.107084098E0,1.002137334E0,-2.009509680E-1,3.270876353E0
4.577242917E0,3.111018105E0,1.360615507E0,-3.153517422E-1,3.410154678E0
4.587275917E0,3.122319895E0,1.572050241E0,-4.806338176E-1,3.528630379E0
4.597309917E0,3.177560003E0,1.640362092E0,-6.967276123E-1,3.643227241E0
4.607343917E0,3.300951164E0,1.639463959E0,-9.763508204E-1,3.812791836E0
4.617377917E0,3.456808697E0,1.618313996E0,-1.249862226E0,4.016294579E0
4.627411917E0,3.678236322E0,1.602603112E0,-1.486687324E0,4.278784684E0
4.637445917E0,3.875985355E0,1.580122907E0,-1.701093612E0,4.518160062E0
4.647479917E0,3.931048877E0,1.496842183E0,-1.937933621E0,4.631335500E0
4.657513917E0,3.827259922E0,1.358662537E0,-2.230305805E0,4.633373111E0
4.667547917E0,3.648602341E0,1.116856197E0,-2.592744590E0,4.613240869E0
4.677581917E0,3.490001879E0,8.775811154E-1,-3.030437918E0,4.704658936E0
4.687615917E0,3.384354679E0,5.780592477E-1,-5.158632334E0,6.196732740E0
4.697649917E0,3.475383255E0,7.022739887E-2,-1.045273530E1,1.101557515E1
4.707682958E0,3.644233009E0,-4.742091894E-3,-7.384832810E0,8.235059947E0
4.717716958E0,4.492259957E0,1.464978951E-1,-3.302018866E0,5.577202681E0
4.727750958E0,5.091056063E0,-2.112827057E-1,-2.284086741E0,5.583954196E0
4.737784958E0,5.464753370E0,-9.016459161E-1,-1.705218531E0,5.795193266E0
4.747817958E0,5.823191198E0,-1.567255524E0,-1.044510351E0,6.120199954E0
4.757851958E0,6.335338876E0,-2.316400208E0,-4.051249212E-1,6.757688570E0
4.767885958E0,6.971039976E0,-3.222830316E0,2.613135293E-1,7.684420496E0
4.777919958E0,7.602518216E0,-4.146368793E0,9.989850998E-1,8.717145670E0
4.787953958E0,7.822755933E0,-4.686848570E0,1.688679096E0,9.274356959E0
4.797987958E0,7.228090593E0,-4.569230658E0,2.167366230E0,8.821600693E0
4.808021958E0,5.311694899E0,-3.564924592E0,1.898159398E0,6.672765479E0
4.818055958E0,3.181308946E0,-2.153091568E0,1.136983336E0,4.006152895E0
4.828089958E0,1.571639181E0,-1.049290450E0,3.002299654E-1,1.913425775E0
4.838123958E0,-3.569035184E-1,-4.456589895E-1,-3.216497782E0,3.266779766E0
4.848157958E0,-3.692593575E0,-1.004786122E0,-1.424212748E1,1.474730612E1
4.858191958E0,-3.020920113E0,-1.833290972E0,-1.086175388E1,1.142211064E1
4.868225958E0,-1.359485825E0,-2.462266020E0,-3.499039920E0,4.489346948E0
4.878259958E0,-7.062123808E-1,-2.865666597E0,3.839820107E-1,2.976276727E0
4.888293958E0,-1.021380228E0,-3.303270462E0,1.762043234E0,3.880671292E0
4.898326958E0,-1.888588383E0,-3.832729408E0,1.987773825E0,4.712517965E0
4.908360958E0,-2.887821697E0,-4.342114277E0,1.946796538E0,5.566281282E0
4.918394958E0,-3.726552157E0,-4.902481604E0,1.701844980E0,6.388880434E0
4.928428958E0,-4.520771858E0,-5.415498179E0,1.276354791E0,7.168966472E0
4.938462958E0,-5.389484501E0,-5.685570545E0,9.964672887E-1,7.897164217E0
4.948496958E0,-6.374901722E0,-5.879048479E0,1.202372310E0,8.754900465E0
4.958530958E0,-7.135522152E0,-5.563797017E0,2.047813035E0,9.277125193E0
4.968564958E0,-7.380219941E0,-4.749832438E0,3.187010858E0,9.337322570E0
4.978598958E0,-7.183089252E0,-3.497590980E0,3.859162331E0,8.872600958E0
4.988632958E0,-6.550464957E0,-2.472346619E0,3.896865177E0,8.012905039E0
4.998666958E0,-5.796659456E0,-1.756509429E0,3.548436613E0,7.019828248E0
5.008700958E0,-5.362453408E0,-1.203242961E0,3.288188739E0,6.404364556E0
5.018734958E0,-5.107639936E0,-6.781852144E-1,3.166579517E0,6.047738978E0
5.028768958E0,-4.957423797E0,-1.959594923E-1,3.062690867E0,5.830482499E0
5.038802958E0,-4.697768830E0,1.865168238E-1,2.895935293E0,5.521798777E0
5.048835958E0,-4.308353623E0,4.300521863E-1,2.707200328E0,5.106445872E0
5.058869958E0,-3.928625498E0,5.989747381E-1,2.517688561E0,4.704426079E0
5.068903958E0,-3.677251943E0,7.825088972E-1,2.267383146E0,4.390390456E0
5.078937958E0,-3.611052107E0,1.006797565E0,2.143547451E0,4.318348565E0
5.088971958E0,-3.651987879E0,1.168307016E0,2.048580190E0,4.347256324E0
5.099005958E0,-3.818744622E0,1.326325681E0,1.939541312E0,4.483722873E0
5.109039958E0,-4.143635804E0,1.373834893E0,1.903432417E0,4.762372828E0
5.119073958E0,-4.445628120E0,1.247624497E0,1.847103703E0,4.973124607E0
5.129107958E0,-4.615108497E0,1.014742761E0,1.680865170E0,5.015399987E0
5.139141958E0,-4.583049967E0,7.050169176E-1,1.207452444E0,4.791590264E0
5.149175958E0,-4.384478524E0,3.987040937E-1,3.404518656E-1,4.415713346E0
5.159209958E0,-4.210477080E0,1.607475597E-1,-5.058319549E-1,4.243798180E0
5.169243958E0,-4.084342698E0,-3.209068894E-2,-9.271603147E-1,4.188378128E0
5.179277958E0,-3.922774774E0,-1.836516881E-1,-1.051303647E0,4.065357208E0
5.189311958E0,-3.633446943E0,-3.147930408E-1,-9.412906229E-1,3.766571303E0
5.199344958E0,-3.250623887E0,-3.920850456E-1,-7.318831193E-1,3.354987218E0
5.209378958E0,-2.913639493E0,-3.932521498E-1,-5.092340112E-1,2.983833378E0
5.219412958E0,-2.539155151E0,-3.459008127E-1,-3.286029947E-1,2.583589786E0
5.229446958E0,-2.167900811E0,-3.092422789E-1,-2.686947620E-1,2.206268703E0
5.239480958E0,-1.831453192E0,-3.166688275E-1,-2.183870727E-1,1.871414667E0
5.249514958E0,-1.467016706E0,-3.586606067E-1,-1.553213435E-1,1.518189766E0
5.259548958E0,-1.143825309E0,-3.542640853E-1,-1.438222092E-1,1.206036570E0
5.269582958E0,-7.289337838E-1,-3.083599341E-1,-2.091420035E-1,8.186395346E-1
5.279616958E0,-1.428410465E-1,-2.309439683E-1,-2.965391298E-1,4.020872251E-1
5.289650958E0,6.550366724E-1,-9.534586787E-2,-5.024974340E-1,8.310641057E-1
5.299684958E0,1.780631533E0,7.283291817E-2,-6.937130803E-1,1.912378395E0
5.309718958E0,2.867541799E0,1.410605693E-1,-3.953289346E-1,2.898099208E0
5.319752958E0,3.798394557E0,2.313158512E-3,5.986344302E-1,3.845278890E0
5.329786958E0,5.170167722E0,-2.502848035E-1,1.441429729E0,5.373173775E0
5.339820958E0,6.403898064E0,-5.504557121E-1,1.379152204E0,6.573809604E0
5.349853958E0,6.668840668E0,-9.336559135E-1,8.627191012E-1,6.788919905E0
5.359887958E0,6.666180770E0,-1.473354503E0,3.947735953E-1,6.838463697E0
5.369921958E0,7.243479295E0,-2.898193488E0,-9.239331633E-3,7.801769232E0
5.379955958E0,8.465701733E0,-4.463773785E0,-1.105094522E-1,9.571081160E0
5.389989958E0,9.219841694E0,-4.759800187E0,1.572152567E-1,1.037718147E1
5.400023958E0,8.050294483E0,-3.023661287E0,-5.306640565E-2,8.599568878E0
5.410057958E0,4.649264422E0,-6.535222435E-1,-1.034649315E0,4.807624173E0
5.420091958E0,1.484749557E0,6.075040716E-1,-2.018117658E0,2.578049908E0
5.430125958E0,-5.761477929E-1,1.016332034E0,-3.238912206E0,3.443171410E0
5.440159958E0,-1.971367707E0,7.658092493E-1,-4.641683507E0,5.100782315E0
5.450193958E0,-2.761444656E0,1.091903204E-1,-5.438259051E0,6.100177097E0
5.460227958E0,-3.075602981E0,-4.510846210E-1,-5.127003576E0,5.995746550E0
5.470261958E0,-3.035335253E0,-9.119066101E-1,-4.212004081E0,5.271224919E0
5.480295958E0,-3.094412597E0,-1.385593643E0,-3.425119127E0,4.819408688E0
5.490329958E0,-3.528879139E0,-1.951727495E0,-3.226548853E0,5.164576042E0
5.500362958E0,-3.995784279E0,-2.433398901E0,-3.098269128E0,5.611327276E0
5.510396958E0,-4.355905520E0,-2.780855657E0,-2.665815490E0,5.814949984E0
5.520430958E0,-4.861635295E0,-3.003362678E0,-1.937691253E0,6.034097489E0
5.530464958E0,-5.292114328E0,-2.916582397E0,-1.123798888E0,6.146206218E0
5.540498958E0,-5.460729901E0,-2.577064404E0,-5.275632781E-1,6.061283280E0
5.550532958E0,-5.308645576E0,-2.144680349E0,-1.905587116E-1,5.728672121E0
5.560566958E0,-5.064146592E0,-1.748387647E0,-2.416478813E-2,5.357520322E0
5.570600958E0,-4.551168024E0,-1.526067737E0,1.844694212E-1,4.803752917E0
5.580634958E0,-3.862778834E0,-1.475063644E0,6.303029501E-1,4.182601449E0
5.590668958E0,-3.245331572E0,-1.514348747E0,1.124619545E0,3.753691284E0
5.600702958E0,-2.846278399E0,-1.471493919E0,1.670845381E0,3.613629666E0
5.610736958E0,-2.508012881E0,-1.417007225E0,2.193610872E0,3.620768806E0
5.620770958E0,-2.208025575E0,-1.272154736E0,2.454593303E0,3.538189211E0
5.630804958E0,-1.946469678E0,-1.000194304E0,2.487813089E0,3.313358843E0
5.640838958E0,-1.591160111E0,-6.499455017E-1,2.302815811E0,2.873530983E0
5.650871958E0,-1.392374952E0,-3.396951628E-1,2.162606158E0,2.594410569E0
5.660905958E0,-1.315909451E0,-7.854564786E-2,2.067867815E0,2.452318169E0
5.670939958E0,-1.190560057E0,1.867776096E-1,1.955841449E0,2.297310362E0
5.680973958E0,-1.072170605E0,3.403009343E-1,1.780351890E0,2.105945722E0
5.691007958E0,-9.011076799E-1,3.753976768E-1,1.705297760E0,1.964932294E0
5.701041958E0,-6.704768300E-1,2.864246893E-1,1.733462044E0,1.880550170E0
5.711076917E0,-3.817062378E-1,8.660194159E-2,1.853125605E0,1.894010046E0
5.721110917E0,9.977981150E-3,-7.645702243E-2,2.000621181E0,2.002106477E0
5.731144917E0,3.808730096E-1,-2.367631173E-1,2.082071726E0,2.129822456E0
5.741178917E0,6.888677850E-1,-3.048381561E-1,2.258068824E0,2.380407515E0
5.751212917E0,8.808146256E-1,-2.791068989E-1,2.467942497E0,2.635237225E0
5.761246917E0,1.010556447E0,-1.305835283E-1,2.557469800E0,2.752985319E0
5.771280917E0,1.095156302E0,1.304671687E-1,2.547951118E0,2.776408455E0
5.781314917E0,1.197468543E0,3.977433962E-1,2.534832305E0,2.831520004E0
5.791348917E0,1.318298623E0,6.226711643E-1,2.419676655E0,2.824971814E0
5.801381917E0,1.517631082E0,7.719470716E-1,2.302891971E0,2.863986350E0
5.811415917E0,1.857201114E0,8.179517949E-1,2.170211631E0,2.971205082E0
5.821449917E0,2.247765591E0,7.620272702E-1,2.056565001E0,3.140476925E0
5.831483917E0,2.696915661E0,6.064539117E-1,1.951170255E0,3.383519734E0
5.841517917E0,3.127163729E0,4.426821721E-1,1.825447517E0,3.647928060E0
5.851551917E0,3.446568761E0,3.371019226E-1,1.682697249E0,3.850187523E0
5.861585917E0,3.621761867E0,3.466048175E-1,1.455494621E0,3.918642432E0
5.871619917E0,3.729671647E0,4.594508171E-1,1.218470718E0,3.950470420E0
5.881653917E0,3.735284389E0,6.557266438E-1,9.684490393E-1,3.914105318E0
5.891687917E0,3.751152563E0,8.697838533E-1,7.298430258E-1,3.919227009E0
5.901721917E0,3.823369477E0,1.062890489E0,5.029805602E-1,4.000109973E0
5.911755917E0,3.969942217E0,1.291365178E0,3.038375513E-1,4.185735597E0
5.921789917E0,4.170574804E0,1.564602642E0,1.932718197E-1,4.458590541E0
5.931823917E0,4.224791941E0,1.912804919E0,8.271763623E-2,4.638375989E0
5.941857917E0,3.954659349E0,2.348225434E0,-8.493606985E-2,4.600076890E0
5.951890917E0,3.606247450E0,2.638703998E0,-3.671829236E-1,4.483592617E0
5.961924917E0,3.769841434E0,2.448893437E0,-6.421479473E-1,4.541050263E0
5.971958917E0,4.195788875E0,1.866204364E0,-8.695271605E-1,4.673696662E0
5.981992917E0,4.142050332E0,1.442608674E0,-1.094562079E0,4.520593642E0
5.992026917E0,3.593378605E0,1.118463011E0,-1.339843566E0,3.994810395E0
6.002060917E0,3.001388366E0,6.238511324E-1,-1.582420570E0,3.449866261E0
6.012094917E0,2.696648443E0,-1.754784501E-1,-1.754535117E0,3.221971289E0
6.022128917E0,2.616357109E0,-1.184679805E0,-1.811272112E0,3.395511364E0
6.032162917E0,2.435881336E0,-2.406823890E0,-2.505192769E0,4.242912906E0
6.042196917E0,2.219000798E-1,-4.658814095E0,-8.696631668E0,9.868393526E0
6.052230917E0,-6.780858117E-1,-5.456106507E0,-9.706670344E0,1.115564197E1
6.062264917E0,-5.475347355E-1,-5.023704325E0,-8.482964467E0,9.874111888E0
6.072298917E0,-2.056081875E0,-5.161950629E0,-9.755132067E0,1.122656709E1
6.082332917E0,-4.214680351E0,-5.926464136E0,-1.191628285E1,1.396009687E1
6.092366917E0,-5.765659858E0,-6.510159515E0,-1.174035534E1,1.461030301E1
6.102399917E0,-6.945422739E0,-6.943362181E0,-9.098027819E0,1.338743013E1
6.112433917E0,-7.577680998E0,-6.605233487E0,-6.811995710E0,1.214304922E1
6.122467917E0,-8.142412688E0,-6.013835571E0,-4.992855000E0,1.128688193E1
6.132501917E0,-8.744457214E0,-5.007606940E0,-2.982467068E0,1.050889000E1
6.142535917E0,-8.638684591E0,-3.559427624E0,-1.183613858E0,9.417926430E0
6.152569917E0,-7.253689703E0,-2.253760157E0,1.855216277E-1,7.598017335E0
6.162603917E0,-5.692135799E0,-1.501842138E0,7.969637990E-1,5.940630527E0
6.172637917E0,-4.388188582E0,-8.014357495E-1,4.212902798E-1,4.480623148E0
6.182671917E0,-3.903027558E0,-4.399409974E-1,5.861526713E-2,3.928181252E0
6.192705917E0,-3.897173910E0,-4.024667770E-1,2.956906988E-1,3.929042756E0
6.202739917E0,-3.929589704E0,-5.371474493E-1,5.179479705E-1,3.999809086E0
6.212773917E0,-4.061773031E0,-6.866280091E-1,9.869807661E-1,4.235987395E0
6.222807917E0,-4.177723317E0,-7.764353943E-1,1.644700726E0,4.556453063E0
6.232841917E0,-4.094577665E0,-8.104223353E-1,2.217836618E0,4.726642559E0
6.242875917E0,-3.709733226E0,-7.450042713E-1,2.622933472E0,4.604012595E0
6.252908917E0,-3.120688230E0,-5.595025241E-1,2.960200287E0,4.337571191E0
6.262942917E0,-2.569339648E0,-2.723796773E-1,3.196896161E0,4.110455203E0
6.272976917E0,-2.094018903E0,3.980959833E-2,3.214422605E0,3.836536544E0
6.283010917E0,-1.687514331E0,2.791659558E-1,3.086712399E0,3.528942006E0
6.293044917E0,-1.319968880E0,4.021644759E-1,2.855621080E0,3.171533677E0
6.303078917E0,-9.233411327E-1,4.897259456E-1,2.617246470E0,2.818220970E0
6.313112917E0,-2.134382817E-1,5.107841080E-1,2.376124839E0,2.439759323E0
6.323146917E0,7.288662484E-1,5.049649590E-1,1.730265956E0,1.944236584E0
6.333180917E0,1.350476143E0,5.907950681E-1,7.191069531E-1,1.640103483E0
6.343214917E0,1.655432998E0,7.467941040E-1,-4.523628223E-1,1.871574729E0
6.353248917E0,1.758914681E0,9.486838424E-1,-1.721747732E0,2.637839484E0
6.363282917E0,1.434290717E0,1.018173323E0,-2.226305140E0,2.837305298E0
6.373316917E0,7.242589349E-1,9.094911253E-1,-1.868241534E0,2.200466210E0
6.383350917E0,4.842108518E-2,7.022096694E-1,-1.286844696E0,1.466769338E0
6.393384917E0,-3.780926585E-1,5.702999926E-1,-5.561965084E-1,8.817883510E-1
6.403417917E0,-5.057344526E-1,5.520572644E-1,2.598888369E-1,7.925129446E-1
6.413451917E0,-5.093348756E-1,6.201749879E-1,9.261170983E-1,1.225451717E0
6.423485917E0,-5.718147138E-1,8.510908896E-1,1.301077988E0,1.656542091E0
6.433519917E0,-6.211695993E-1,1.108216351E0,1.409329830E0,1.897420808E0
6.443553917E0,-5.684282988E-1,1.379150012E0,1.358984134E0,2.017920554E0
6.453587917E0,-3.586205533E-1,1.574161670E0,1.343096080E0,2.100119222E0
6.463621917E0,-2.818708777E-2,1.646863026E0,1.338630561E0,2.122471229E0
6.473655917E0,3.250584126E-1,1.604373649E0,1.341825480E0,2.116642009E0
6.483689917E0,6.997093999E-1,1.475522066E0,1.319909531E0,2.099742789E0
6.493723917E0,1.113580294E0,1.307913968E0,1.268848720E0,2.135574184E0
6.503757917E0,1.638555887E0,1.138863362E0,1.203806047E0,2.330455782E0
6.513791917E0,2.208276420E0,1.069765061E0,1.117183641E0,2.696104842E0
6.523825917E0,2.766223293E0,1.113023931E0,9.670084316E-1,3.134632177E0
6.533859917E0,3.315955412E0,1.297497153E0,7.615138847E-1,3.641285838E0
6.543893917E0,3.855351993E0,1.675675766E0,4.559704813E-1,4.228420194E0
6.553926917E0,4.418760749E0,2.149451092E0,7.524131320E-2,4.914391906E0
6.563960917E0,4.799691646E0,2.655846280E0,-2.874532876E-1,5.493012721E0
6.573994917E0,4.961742550E0,3.174275622E0,-6.312579466E-1,5.923968387E0
6.584028917E0,4.894461271E0,3.657207103E0,-9.366450101E-1,6.181279706E0
6.594062917E0,4.867675761E0,3.418486338E0,-1.101328915E0,6.049234789E0
6.604096917E0,6.145137137E0,9.196220112E-1,-1.017272267E0,6.296289220E0
6.614130917E0,7.537275569E0,-1.944666982E0,-1.232195449E0,7.881025206E0
6.624164917E0,8.482137086E0,-3.742658898E0,-2.047065761E0,9.494452244E0
6.634198917E0,9.023287539E0,-3.973697591E0,-2.387661541E0,1.014450187E1
6.644232917E0,7.691869519E0,-2.562527057E0,-1.895930147E0,8.326220795E0
6.654266917E0,4.984367182E0,-4.797400707E-1,-2.575346493E0,5.630850406E0
6.664300917E0,1.994035023E0,6.705277008E-1,-5.756786124E0,6.129141012E0
6.674334917E0,-2.391683695E-1,7.355107319E-1,-7.529363701E0,7.568982448E0
6.684368917E0,-1.147482158E0,5.615122122E-1,-6.308075064E0,6.436134110E0
6.694402917E0,-1.207943537E0,3.039312530E-1,-3.989983256E0,4.179888537E0
6.704435917E0,-9.122185591E-1,3.446834224E-1,-1.826762556E0,2.070751264E0
6.714469083E0,-9.107909614E-1,5.334753978E-1,-9.190834826E-1,1.399589448E0
6.724503083E0,-1.276686036E0,6.050394702E-1,-9.594947594E-1,1.707814448E0
6.734537083E0,-1.492684228E0,6.180945486E-1,-9.728261188E-1,1.885878505E0
6.744571083E0,-1.449088266E0,4.951895839E-1,-9.007653254E-1,1.776639439E0
6.754605083E0,-1.321768068E0,2.189992762E-1,-8.801796180E-1,1.603043253E0
6.764639083E0,-1.191270494E0,-1.561387843E-1,-8.202101357E-1,1.454733438E0
6.774673083E0,-1.181071488E0,-5.795257294E-1,-7.344835223E-1,1.506733545E0
6.784707083E0,-1.265794719E0,-9.287682259E-1,-5.908851153E-1,1.677495725E0
6.794741083E0,-1.654649471E0,-1.222614201E0,-2.737566966E-1,2.075474183E0
6.804775083E0,-2.104041615E0,-1.383092204E0,2.998380558E-1,2.535712528E0
6.814809083E0,-2.150528734E0,-1.406202739E0,9.840992582E-1,2.751478026E0
6.824843083E0,-1.821514095E0,-1.357691900E0,1.735637793E0,2.858964750E0
6.834877083E0,-1.582906474E0,-1.319984375E0,2.422678031E0,3.180773569E0
6.844910083E0,-1.358416370E0,-1.230415556E0,2.979082700E0,3.497735154E0
6.854944083E0,-1.110702002E0,-1.053626745E0,3.412066095E0,3.739783857E0
6.864978083E0,-1.119841200E0,-8.456483012E-1,3.540055799E0,3.808038921E0
6.875012083E0,-1.105179015E0,-4.129724693E-1,3.598998656E0,3.787447457E0
6.885046083E0,-1.099671522E0,1.542746919E-1,3.657554428E0,3.822405333E0
6.895080083E0,-9.605475506E-1,7.001268911E-1,3.666294846E0,3.854159721E0
6.905114083E0,-9.353317255E-1,1.058596879E0,3.646866302E0,3.910895884E0
6.915148083E0,-1.014226452E0,1.190250447E0,3.653418692E0,3.974018063E0
6.925182083E0,-1.042780745E0,1.117356133E0,3.509694716E0,3.828032577E0
6.935216083E0,-9.547260627E-1,8.743324023E-1,3.056829618E0,3.319663585E0
6.945250083E0,-6.131694388E-1,5.759788084E-1,2.327524244E0,2.474893423E0
6.955284083E0,-1.924388838E-1,3.028196973E-1,1.638421547E0,1.677247048E0
6.965318083E0,1.764297920E-1,7.399592936E-2,1.277238305E0,1.291487730E0
6.975352083E0,5.192277798E-1,-9.871386409E-2,1.165297601E0,1.279554771E0
6.985386083E0,7.989612079E-1,-2.312392527E-1,1.123663086E0,1.398009061E0
6.995419083E0,1.016918218E0,-3.010766423E-1,1.076229742E0,1.510973284E0
7.005453083E0,1.180520973E0,-2.840279156E-1,1.007933679E0,1.578046870E0
7.015487083E0,1.287996305E0,-1.817799944E-1,8.940800576E-1,1.578403496E0
7.025521083E0,1.401361245E0,-9.217609227E-2,7.246588844E-1,1.580329165E0
7.035555083E0,1.494657079E0,1.689845324E-3,5.018834764E-1,1.576670436E0
7.045589083E0,1.585271672E0,1.191925675E-1,2.791501683E-1,1.614068759E0
7.055623083E0,1.695722360E0,2.105997509E-1,7.385559618E-2,1.710345353E0
7.065657083E0,1.870119952E0,3.177412069E-1,-1.236212486E-1,1.900944587E0
7.075691083E0,2.086029852E0,4.223484796E-1,-2.507034642E-1,2.143070463E0
7.085725083E0,2.307440812E0,5.064191616E-1,-3.330474633E-1,2.385720873E0
7.095759083E0,2.522478015E0,5.863839287E-1,-3.552923182E-1,2.613995807E0
7.105793083E0,2.750172393E0,7.442470568E-1,-3.425037266E-1,2.869609848E0
7.115827083E0,2.901411503E0,9.213983953E-1,-2.752531452E-1,3.056620357E0
7.125861083E0,2.935741091E0,1.131844364E0,-2.931881636E-1,3.160001063E0
7.135895083E0,2.879645828E0,1.290327882E0,-3.918546653E-1,3.179757257E0
7.145928083E0,2.808733428E0,1.314199140E0,-5.710627618E-1,3.153127895E0
7.155962083E0,2.815593089E0,1.182409916E0,-8.244600382E-1,3.163130096E0
7.165996083E0,2.889212165E0,9.959287602E-1,-1.085354615E0,3.243056532E0
7.176030083E0,2.976374562E0,8.197901595E-1,-1.355217650E0,3.371568822E0
7.186064083E0,3.103341880E0,6.474399698E-1,-1.601643291E0,3.551784139E0
7.196098083E0,3.236842876E0,5.425292265E-1,-1.830900923E0,3.758149539E0
7.206132083E0,3.349876279E0,4.896341443E-1,-2.090156232E0,3.978714083E0
7.216166083E0,3.393907275E0,5.344776106E-1,-2.317127894E0,4.144074636E0
7.226200083E0,3.422556585E0,5.800630885E-1,-2.530327610E0,4.295686741E0
7.236234083E0,3.438956271E0,5.890028965E-1,-2.724456924E0,4.426738096E0
7.246268083E0,3.471895683E0,5.502218235E-1,-2.860388608E0,4.531956164E0
7.256302083E0,3.493281582E0,4.252305722E-1,-2.933693104E0,4.581527308E0
7.266336083E0,3.446051575E0,2.592801601E-1,-2.988718911E0,4.568909978E0
7.276370083E0,3.364175060E0,1.271178836E-1,-3.060530613E0,4.549800043E0
7.286404083E0,3.217855505E0,1.116350412E-2,-3.152546784E0,4.504805202E0
7.296437083E0,3.076311371E0,-7.085363567E-2,-3.210057951E0,4.446704841E0
7.306471083E0,2.922592750E0,-9.352796853E-2,-3.220713624E0,4.350091046E0
7.316505083E0,2.757160985E0,-3.033301592E-2,-3.242745348E0,4.256554262E0
7.326539083E0,3.031653847E0,-3.318505383E-1,-3.195620006E0,4.417356341E0
7.336573083E0,3.856173526E0,-1.097815323E0,-2.986824998E0,4.999639619E0
7.346607083E0,4.635859973E0,-1.716877586E0,-2.673997791E0,5.620420849E0
7.356641083E0,5.248837330E0,-2.200228313E0,-2.264772803E0,6.125397440E0
7.366675083E0,5.876993183E0,-2.750474110E0,-1.810068170E0,6.736505287E0
7.376709083E0,6.410518867E0,-3.282809885E0,-1.370829716E0,7.331491458E0
7.386743083E0,6.627541784E0,-3.320798661E0,-9.492431286E-1,7.473491578E0
7.396777083E0,6.128708800E0,-2.461421682E0,-6.338525024E-1,6.634865277E0
7.406811083E0,4.790149867E0,-1.077652954E0,-6.202261510E-1,4.948894030E0
7.416845083E0,3.399945987E0,1.325136942E-1,-8.490224370E-1,3.506854957E0
7.426879083E0,2.442921384E0,9.262819898E-1,-1.131988352E0,2.847325208E0
7.436913083E0,1.370985837E0,1.323421953E0,-3.725882944E0,4.184883695E0
7.446946083E0,1.054346538E-1,1.047431620E0,-1.038674129E1,1.043995326E1
7.456980083E0,1.822898716E-1,4.532989615E-1,-8.507088325E0,8.521106813E0
7.467014083E0,7.229266468E-1,4.285307407E-2,-2.897954922E0,2.987072488E0
7.477048083E0,1.092601361E0,-1.074829334E-1,6.459600395E-1,1.273811088E0
7.487082083E0,6.197458023E-1,-5.101093394E-1,1.778203184E0,1.950974875E0
7.497116083E0,-2.346747842E-1,-1.163143340E0,1.934313902E0,2.269260883E0
7.507150083E0,-1.232170598E0,-1.948937203E0,1.966923239E0,3.030740443E0
7.517184083E0,-2.060057690E0,-2.831244623E0,2.036375881E0,4.050507441E0
7.527218083E0,-2.620916768E0,-3.688206702E0,2.265306069E0,5.060008396E0
7.537252083E0,-2.847957135E0,-4.460156697E0,2.405215906E0,5.812823854E0
7.547286083E0,-3.005247236E0,-5.053377190E0,2.435972845E0,6.364125680E0
7.557320083E0,-3.239272687E0,-5.459450530E0,2.537638968E0,6.836526835E0
7.567354083E0,-3.391807247E0,-5.479001280E0,2.522877672E0,6.920167858E0
7.577388083E0,-3.234895461E0,-4.631984730E0,2.136831046E0,6.040354138E0
7.587421083E0,-3.187024307E0,-3.246911489E0,1.680213205E0,4.850017996E0
7.597455083E0,-3.660009089E0,-2.110675281E0,1.706142683E0,4.556483242E0
7.607489083E0,-4.924204010E0,-1.397368766E0,3.303964527E0,6.092339961E0
7.617523083E0,-5.379430214E0,-9.472541982E-1,4.646101663E0,7.170900962E0
7.627557083E0,-4.762340217E0,-6.862660664E-1,4.594688265E0,6.652969691E0
7.637591083E0,-3.877591000E0,-5.193017471E-1,3.416195984E0,5.193821451E0
7.647625083E0,-2.943055665E0,-2.443674213E-1,2.126136489E0,3.638921331E0
7.657659083E0,-1.529070867E0,9.785900116E-3,5.872849480E-1,1.638003996E0
7.667693083E0,-6.576825374E-1,2.841694182E-1,-6.303625917E-1,9.542827544E-1
7.677727083E0,-5.671272933E-1,5.646276087E-1,-1.138744079E0,1.391824623E0
7.687761083E0,-5.987396801E-1,6.338370073E-1,-8.189832437E-1,1.196232465E0
7.697795083E0,-1.075957847E0,6.124613410E-1,1.195876200E-2,1.238118409E0
7.707829083E0,-2.068189412E0,5.875516176E-1,1.035921961E0,2.386578861E0
7.717863667E0,-3.214674620E0,5.765389717E-1,1.858832195E0,3.757896649E0
7.727897667E0,-4.126913352E0,6.050786465E-1,2.202546734E0,4.716857651E0
7.737930667E0,-4.780112829E0,6.763152748E-1,2.178692433E0,5.296563200E0
7.747964667E0,-5.377111208E0,8.117467296E-1,1.919718082E0,5.766938114E0
7.757998667E0,-5.853303773E0,9.752483279E-1,1.427381355E0,6.103252567E0
7.768032667E0,-6.229244072E0,1.178227987E0,8.658603716E-1,6.398548045E0
7.778066667E0,-6.577160420E0,1.357313000E0,4.312344933E-1,6.729584011E0
7.788100667E0,-6.823342817E0,1.339043375E0,4.574745496E-2,6.953642009E0
7.798134667E0,-6.953708244E0,1.167800063E0,-2.068043232E-1,7.054118184E0
7.808168667E0,-7.019009364E0,9.271152180E-1,-2.122685462E-1,7.083155583E0
7.818202667E0,-6.977618093E0,7.040263993E-1,-5.207534828E-3,7.013047451E0
7.828236667E0,-6.772755631E0,4.931009585E-1,1.674244952E-1,6.792746009E0
7.838270667E0,-6.043517792E0,2.829625529E-1,2.578066617E-1,6.055628735E0
7.848304667E0,-4.586636649E0,4.220812619E-2,3.610768955E-2,4.586972972E0
7.858338667E0,-2.465065666E0,-2.274116653E-1,-1.478923391E0,2.883657262E0
7.868372667E0,6.474306142E-1,-5.522040296E-1,-4.577385769E0,4.655808863E0
7.878406667E0,3.632941158E0,-1.172608228E0,-3.946897463E0,5.491017310E0
7.888439667E0,6.251369351E0,-2.118108262E0,-1.112721046E0,6.693590180E0
7.898473667E0,9.045176007E0,-2.822853284E0,-1.158106622E0,9.545937387E0
7.908507667E0,1.315443428E1,-2.731052583E0,-4.595912088E0,1.419930270E1
7.918541667E0,1.666458566E1,-1.664246213E0,-7.633407887E0,1.840508209E1
7.928575667E0,1.586209858E1,7.143952668E-2,-7.436088917E0,1.751875262E1
7.938609667E0,1.225241121E1,2.128000581E0,-5.570064062E0,1.362628272E1
7.948643667E0,7.728412278E0,3.525673987E0,-3.197885510E0,9.076629613E0
7.958677667E0,4.591161225E0,2.683127049E0,-1.035905589E0,5.417659323E0
7.968711667E0,4.221876227E0,-3.492372340E-1,8.870366478E-1,4.328168150E0
7.978745667E0,3.532007691E0,-2.678823498E0,1.968899013E0,4.850539866E0
7.988779667E0,2.735632707E0,-4.591952938E0,2.054235032E0,5.726220364E0
7.998813667E0,2.345427541E0,-6.092085934E0,1.335820828E0,6.663254360E0
8.008847667E0,2.043400726E0,-6.137615279E0,5.511804745E-1,6.492272927E0
8.018881667E0,5.905073851E-1,-4.424282860E0,-2.041874018E-1,4.468184227E0
8.028914667E0,-1.348196606E0,-2.364090099E0,-5.020752650E-1,2.767424011E0
8.038948667E0,-2.631528879E0,-9.618652207E-1,-5.576974887E-1,2.856773606E0
8.048982667E0,-3.524834912E0,2.500035524E-2,-5.484781837E-1,3.567339974E0
8.059016667E0,-4.195516394E0,6.141242892E-1,-4.471406740E-1,4.263735597E0
8.069050667E0,-4.780544938E0,8.785722184E-1,-4.667415641E-1,4.882964954E0
8.079084667E0,-5.129544775E0,9.192127061E-1,-4.810890234E-1,5.233414588E0
8.089118667E0,-5.221602754E0,6.794920671E-1,-4.186413449E-1,5.282244349E0
8.099152667E0,-4.986552286E0,1.228768981E-1,-3.158817923E-1,4.998057997E0
8.109186667E0,-4.454873738E0,-4.492035717E-1,-8.276163653E-2,4.478228819E0
8.119220667E0,-4.118607382E0,-9.588585824E-1,3.014893095E-1,4.239484916E0
8.129254667E0,-4.237401754E0,-1.419863005E0,7.715406901E-1,4.535069968E0
8.139288667E0,-4.478183078E0,-1.677697733E0,1.347306806E0,4.968302426E0
8.149322667E0,-4.730703272E0,-1.680749395E0,1.935863999E0,5.380710120E0
8.159356667E0,-4.607651542E0,-1.185798377E0,2.586881880E0,5.415581999E0
8.169390667E0,-4.722313687E0,-6.547185838E-1,3.241495214E0,5.765084059E0
8.179423667E0,-4.943203953E0,-4.310152227E-1,3.315166622E0,5.967526219E0
8.189457667E0,-4.561652666E0,-3.665829992E-1,3.481326950E0,5.750016998E0
8.199491667E0,-3.891123504E0,-3.130312747E-1,3.596168604E0,5.307660438E0
8.209525667E0,-3.262644885E0,-2.476576495E-1,3.157976509E0,4.547417024E0
8.219559667E0,-2.787214212E0,-1.275418067E-1,2.700985615E0,3.883317302E0
8.229593667E0,-2.317656190E0,2.891448140E-2,2.529527711E0,3.430871129E0
8.239627667E0,-1.690503135E0,1.605388141E-1,2.344974382E0,2.895251010E0
8.249661667E0,-1.140591799E0,1.113993984E-1,2.205399152E0,2.485386267E0
8.259695667E0,-5.664905316E-1,-1.377779424E-2,1.991459325E0,2.070509984E0
8.269729667E0,-1.683597574E-1,-6.074321508E-2,1.842697973E0,1.851369916E0
8.279763667E0,-3.669566363E-2,-4.775596440E-2,1.685119458E0,1.686195360E0
8.289797667E0,4.845733792E-2,-2.788712561E-2,1.525637966E0,1.526662048E0
8.299831667E0,1.609197602E-1,-5.061817646E-2,1.389888423E0,1.400088282E0
8.309865667E0,3.558761626E-1,-1.796153551E-1,1.302798239E0,1.362421657E0
8.319899667E0,5.733326510E-1,-3.702655756E-1,1.223077739E0,1.400616322E0
8.329932667E0,8.325853291E-1,-5.343168122E-1,1.107837013E0,1.485259450E0
8.339966667E0,1.100907331E0,-6.223027897E-1,9.919133310E-1,1.607218022E0
8.350000667E0,1.356418376E0,-5.498207045E-1,8.943450826E-1,1.715233729E0
8.360034667E0,1.642330264E0,-3.313745749E-1,8.049364775E-1,1.858757795E0
8.370068667E0,1.930874569E0,-4.394767284E-3,6.988323176E-1,2.053451369E0
8.380102667E0,2.115682837E0,3.372264683E-1,5.856945419E-1,2.221007351E0
8.390136667E0,2.256727326E0,6.349912477E-1,4.795859966E-1,2.392913462E0
8.400170667E0,2.400760328E0,8.570187968E-1,3.938418415E-1,2.579388060E0
8.410204667E0,2.586482222E0,1.031817216E0,2.955747047E-1,2.800339526E0
8.420238667E0,2.736875825E0,1.144830446E0,1.742014182E-1,2.971779293E0
8.430272667E0,2.813369977E0,1.222213082E0,6.423911914E-2,3.068058362E0
8.440306667E0,2.850483717E0,1.277473363E0,-4.458165720E-2,3.123969132E0
8.450340667E0,2.918387432E0,1.251609374E0,-1.396548986E-1,3.178523985E0
8.460374667E0,2.968579054E0,1.190803594E0,-2.803868544E-1,3.210777412E0
8.470407667E0,2.992787989E0,1.076564203E0,-4.378450629E-1,3.210526238E0
8.480441667E0,3.054672580E0,9.600958532E-1,-6.237210318E-1,3.262182789E0
8.490475667E0,3.070037309E0,8.500898463E-1,-8.580601859E-1,3.299098226E0
8.500509667E0,3.027829475E0,8.603768528E-1,-1.080637373E0,3.328028965E0
8.510543667E0,2.945988921E0,9.693210053E-1,-1.354892253E0,3.384400531E0
8.520577667E0,2.898470354E0,1.036424822E0,-1.671921853E0,3.502945830E0
8.530611667E0,3.063520295E0,1.037610052E0,-1.899289080E0,3.750878594E0
8.540645667E0,3.325125600E0,1.000491927E0,-2.051076366E0,4.032909448E0
8.550679667E0,3.581825969E0,9.387400675E-1,-2.174113478E0,4.293888634E0
8.560713667E0,3.825105223E0,8.050434816E-1,-2.273702086E0,4.522084270E0
8.570747667E0,4.050307226E0,6.005996794E-1,-2.363997421E0,4.728022039E0
8.580781667E0,4.167000985E0,3.562544775E-1,-2.503278098E0,4.874137431E0
8.590815667E0,4.224374158E0,1.620912498E-1,-2.627316545E0,4.977389158E0
8.600849667E0,4.246570188E0,7.827024400E-2,-2.772645582E0,5.072183762E0
8.610883667E0,4.693237823E0,-3.033903855E-1,-2.857399219E0,5.503022559E0
8.620916667E0,5.578760042E0,-1.087434762E0,-2.809478948E0,6.340208981E0
8.630950667E0,6.294308379E0,-1.721591027E0,-2.674148942E0,7.052181662E0
8.640984667E0,6.809939244E0,-2.145864410E0,-2.497722073E0,7.564299183E0
8.651018667E0,7.392900798E0,-2.560327919E0,-2.254209808E0,8.141972925E0
8.661052667E0,7.951682945E0,-3.128390182E0,-1.875732402E0,8.748397501E0
8.671086667E0,8.209286124E0,-3.484581510E0,-1.452895388E0,9.035795038E0
8.681120667E0,7.644398314E0,-3.136633002E0,-1.021486940E0,8.325786914E0
8.691154667E0,5.807655730E0,-1.993190101E0,-1.481128961E0,6.316281727E0
8.701188667E0,2.559491183E0,-1.317709808E0,-7.167236865E0,7.723771005E0
8.711221958E0,4.602548093E-1,-1.359067165E0,-1.076544439E1,1.086064874E1
8.721255958E0,1.055929671E0,-9.950996250E-1,-6.523163137E0,6.682579446E0
8.731289958E0,1.545961719E0,-2.531318128E-1,-2.187546140E0,2.690619160E0
8.741323958E0,1.048591708E0,3.580215061E-1,4.641490549E-1,1.201315243E0
8.751357958E0,1.812052131E-2,6.338200504E-1,1.448078159E0,1.580818321E0
8.761390958E0,-8.442958403E-1,5.926720244E-1,1.599116417E0,1.902963192E0
8.771424958E0,-1.559488667E0,3.156572592E-1,1.767550142E0,2.378208972E0
8.781458958E0,-1.934563285E0,-1.769022471E-1,1.833283371E0,2.671096671E0
8.791492958E0,-2.144504347E0,-8.898105669E-1,1.865728401E0,2.978523830E0
8.801526958E0,-2.244802807E0,-1.816232890E0,1.897356575E0,3.455112665E0
8.811560958E0,-2.410803798E0,-2.911129868E0,1.974119992E0,4.264246921E0
8.821594958E0,-2.658800001E0,-3.928824888E0,2.045615067E0,5.166180741E0
8.831628958E0,-2.920750292E0,-4.795072930E0,2.302300233E0,6.068285840E0
8.841662958E0,-3.534493343E0,-5.608786663E0,2.720383168E0,7.166004159E0
8.851696958E0,-4.369727753E0,-5.942210103E0,2.948936795E0,7.943589224E0
8.861730958E0,-4.770298278E0,-5.339415963E0,3.185925615E0,7.836787002E0
8.871764958E0,-4.405639597E0,-3.860803644E0,3.084343107E0,6.620320040E0
8.881798958E0,-3.933406182E0,-2.659518916E0,3.053757491E0,5.645366230E0
8.891832958E0,-3.708029348E0,-1.861056476E0,3.014667685E0,5.128472882E0
8.901866958E0,-3.560340959E0,-1.112635092E0,2.783542453E0,4.654255384E0
8.911899958E0,-3.880713998E0,-4.267602038E-1,3.156583117E0,5.020565942E0
8.921933958E0,-4.526624921E0,-1.597207886E-1,4.526655911E0,6.403628475E0
8.931967958E0,-4.238239076E0,-1.168554354E-1,5.307420584E0,6.793013978E0
8.942001958E0,-3.483175254E0,-1.628671753E-1,5.243153837E0,6.296800594E0
8.952035958E0,-2.917052513E0,-2.956901872E-1,4.649146893E0,5.496471130E0
8.962069958E0,-2.501930607E0,-2.464361662E-1,4.173793988E0,4.872467938E0
8.972103958E0,-1.934939554E0,3.313090861E-2,3.799825956E0,4.264242726E0
8.982137958E0,-1.025530874E0,4.674135554E-1,3.296797887E0,3.484116145E0
8.992171958E0,-4.342434704E-1,8.560721326E-1,2.383789369E0,2.569801285E0
9.002205958E0,-2.188291222E-1,1.090108693E0,1.149812931E0,1.599466450E0
9.012239958E0,-5.418942189E-1,1.274584839E0,-3.358874194E-1,1.425144278E0
9.022273958E0,-1.531269420E0,1.265556153E0,-1.940428920E0,2.776991683E0
9.032307958E0,-2.835106709E0,9.303639311E-1,-2.688436321E0,4.016353688E0
9.042341958E0,-3.846326523E0,4.624621332E-1,-2.092907932E0,4.403221838E0
9.052374958E0,-4.586379372E0,1.312506956E-1,-1.086101596E0,4.715052403E0
9.062408958E0,-5.195852201E0,-8.799650252E-2,-2.133029187E-1,5.200973141E0
9.072442958E0,-5.789184376E0,-1.762660700E-1,3.181984591E-1,5.800601325E0
9.082476958E0,-6.250765918E0,-1.254409021E-1,4.293364871E-1,6.266748743E0
9.092510958E0,-6.485407081E0,1.669672430E-2,1.003177553E-1,6.486204394E0
9.102544958E0,-6.506968104E0,1.701545602E-1,-4.931717098E-1,6.527848407E0
9.112578958E0,-6.316806711E0,2.339751649E-1,-1.026979814E0,6.404020529E0
9.122612958E0,-5.719308980E0,2.179444385E-1,-1.292729334E0,5.867635308E0
9.132646958E0,-5.102121334E0,9.616506279E-2,-1.419485859E0,5.296775428E0
9.142680958E0,-4.512585171E0,-1.460084832E-1,-1.552350386E0,4.774362275E0
9.152714958E0,-3.719170048E0,-4.651670551E-1,-1.566270268E0,4.062241842E0
9.162748958E0,-2.630538946E0,-8.478486085E-1,-1.583949909E0,3.185510905E0
9.172782958E0,-1.277566919E0,-1.212454664E0,-1.651585822E0,2.414530860E0
9.182816958E0,1.480263573E-1,-1.434357668E0,-1.395850244E0,2.006910966E0
9.192850958E0,1.621648078E0,-1.533186137E0,-1.034247976E0,2.459689228E0
9.202883958E0,3.081313664E0,-1.565234726E0,-5.874375969E-1,3.505643532E0
9.212917958E0,4.211272886E0,-1.547270325E0,-2.224947417E-1,4.492033915E0
9.222951958E0,5.104034543E0,-1.349361371E0,-2.674561755E-1,5.286159053E0
9.232985958E0,5.884067729E0,-8.773238379E-1,-8.022689778E-1,6.002964740E0
9.243019958E0,6.723931965E0,-1.844264442E-1,-1.897825522E0,6.989064021E0
9.253053958E0,7.853346226E0,6.491672373E-1,-3.922790562E0,8.802542294E0
9.263087958E0,9.264703871E0,1.371663821E0,-5.718634796E0,1.097355837E1
9.273121958E0,9.340142893E0,1.848872048E0,-5.299265472E0,1.089673399E1
9.283155958E0,8.045802067E0,2.381469778E0,-4.059580325E0,9.321293988E0
9.293189958E0,5.753097115E0,2.451925803E0,-3.003029972E0,6.937453104E0
9.303223958E0,3.830709195E0,4.590578842E-1,-1.856902029E0,4.281723043E0
9.313257958E0,3.133119995E0,-2.397947817E0,-6.757445866E-1,4.002902120E0
9.323291958E0,2.346591722E0,-4.270081843E0,2.130140662E-2,4.872427054E0
9.333325958E0,1.920716786E0,-5.504509174E0,3.514778870E-1,5.840574537E0
9.343358958E0,1.787095045E0,-6.609742275E0,2.589053535E-1,6.851965676E0
9.353392958E0,1.616685546E0,-7.265232106E0,2.566290325E-1,7.447357127E0
9.363426958E0,1.034237963E0,-5.729690711E0,5.188655448E-1,5.845359293E0
9.373460958E0,-6.836330652E-2,-3.136649374E0,7.995014906E-2,3.138412794E0
9.383494958E0,-1.334180245E0,-1.032470350E0,-1.951731880E-1,1.698271039E0
9.393528958E0,-2.289257433E0,5.889824313E-1,-3.888505121E-1,2.395580226E0
9.403562958E0,-2.971664338E0,1.784553260E0,-5.910717876E-1,3.516359642E0
9.413596958E0,-3.517610092E0,2.604894812E0,-7.443185391E-1,4.439940071E0
9.423630958E0,-3.973214611E0,3.092035704E0,-8.232495184E-1,5.101456547E0
9.433664958E0,-4.382488132E0,3.206611894E0,-8.218613894E-1,5.492177911E0
9.443698958E0,-4.582065881E0,2.914407232E0,-8.176016928E-1,5.491590824E0
9.453732958E0,-4.605784526E0,2.106053057E0,-7.530611497E-1,5.120137857E0
9.463766958E0,-4.271998560E0,7.802518719E-1,-6.189396174E-1,4.386553423E0
9.473800958E0,-3.620694750E0,-8.634536576E-1,-3.593530633E-1,3.739534371E0
9.483834958E0,-3.037201685E0,-2.332094720E0,5.736396298E-2,3.829693262E0
9.493867958E0,-2.831894249E0,-3.091316496E0,6.323446517E-1,4.239778588E0
9.503901958E0,-3.047917292E0,-3.128796564E0,1.423100462E0,4.593950662E0
9.513935958E0,-2.946518387E0,-2.423756257E0,1.955907523E0,4.287439706E0
9.523969958E0,-2.922843595E0,-1.462116739E0,2.194891559E0,3.936794254E0
9.534003958E0,-3.082127012E0,-7.380460846E-1,2.356739565E0,3.949486083E0
9.544037958E0,-3.036327526E0,-2.862141895E-1,2.571002011E0,3.988891419E0
9.554071958E0,-2.728728607E0,-4.163860738E-2,2.840341721E0,3.938938268E0
9.564105958E0,-2.261164486E0,-3.440735579E-2,3.099617203E0,3.836883567E0
9.574139958E0,-1.682833343E0,-1.334574348E-1,2.961498953E0,3.408843645E0
9.584173958E0,-1.242445618E0,-1.441970158E-1,2.689937301E0,2.966517584E0
9.594207958E0,-8.540159592E-1,-1.424381733E-1,2.444906221E0,2.593684314E0
9.604241958E0,-3.669063503E-1,-1.359746611E-1,2.277592092E0,2.310959782E0
9.614275958E0,-7.197337747E-3,1.378130257E-2,2.086182464E0,2.086240399E0
9.624309958E0,1.321909279E-1,1.983118272E-1,1.792190309E0,1.807967954E0
9.634342958E0,5.465333998E-2,3.444302380E-1,1.508832484E0,1.548610552E0
9.644376958E0,-7.301155061E-2,4.738185954E-1,1.228116577E0,1.318372131E0
9.654410958E0,-5.742287368E-2,5.902009910E-1,9.872357047E-1,1.151637501E0
9.664444958E0,8.869904548E-2,6.480714691E-1,8.271899571E-1,1.054565017E0
9.674478958E0,3.467553833E-1,6.950351357E-1,6.840505564E-1,1.035006425E0
9.684512958E0,6.098645926E-1,6.579678816E-1,5.703087634E-1,1.063065680E0
9.694546958E0,8.213499042E-1,5.022056580E-1,4.792709778E-1,1.075419387E0
9.704580958E0,1.033483965E0,3.350361013E-1,4.118347473E-1,1.161871832E0
9.714615667E0,1.209352131E0,2.109347963E-1,3.960306005E-1,1.289909417E0
9.724649667E0,1.367874533E0,2.107687354E-1,3.758262777E-1,1.434137228E0
9.734683667E0,1.454098452E0,2.816516072E-1,3.774360162E-1,1.528459317E0
9.744717667E0,1.468151358E0,4.689899647E-1,4.077028124E-1,1.594252671E0
9.754751667E0,1.443988032E0,6.607534951E-1,3.895261578E-1,1.635061847E0
9.764785667E0,1.384927061E0,8.515212446E-1,4.276301233E-1,1.681064816E0
9.774819667E0,1.337774237E0,1.019055083E0,4.527177483E-1,1.741570133E0
9.784852667E0,1.307785914E0,1.143044706E0,4.732454221E-1,1.800226771E0
9.794886667E0,1.372252344E0,1.183153097E0,4.895622236E-1,1.876858790E0
9.804920667E0,1.492411456E0,1.077286919E0,4.829645178E-1,1.902917177E0
9.814954667E0,1.657778023E0,8.869606340E-1,4.415986830E-1,1.931304362E0
9.824988667E0,1.803307327E0,6.758767337E-1,3.312440358E-1,1.954085281E0
9.835022667E0,1.899028879E0,5.407639521E-1,1.592212902E-1,1.980931032E0
9.845056667E0,1.937586296E0,4.501888275E-1,-8.327779949E-2,1.990940940E0
9.855090667E0,1.922635550E0,4.522137183E-1,-3.157215786E-1,2.000176198E0
9.865124667E0,1.800414417E0,5.349319392E-1,-5.199917185E-1,1.948854956E0
9.875158667E0,1.717406175E0,6.353719014E-1,-7.003710124E-1,1.960535890E0
9.885192667E0,1.736701986E0,6.923945332E-1,-8.449288014E-1,2.051694095E0
9.895226667E0,1.776620927E0,6.835751778E-1,-9.762157497E-1,2.139311603E0
9.905260667E0,1.853099292E0,5.978620130E-1,-1.099396703E0,2.236087897E0
9.915294667E0,1.979819273E0,4.602863842E-1,-1.214562878E0,2.367849423E0
9.925327667E0,2.120433115E0,3.200537807E-1,-1.334316486E0,2.525682383E0
9.935361667E0,2.318170161E0,1.980937260E-1,-1.432901126E0,2.732464026E0
9.945395667E0,2.530355969E0,7.891928494E-2,-1.556211595E0,2.971653431E0
9.955429667E0,2.722411568E0,-3.987216353E-3,-1.581861576E0,3.148622983E0
9.965463667E0,2.858349976E0,3.131593287E-2,-1.642220337E0,3.296669972E0
9.975497667E0,2.991783145E0,1.532514292E-1,-1.629878034E0,3.410389243E0
9.985531667E0,3.450173277E0,-1.288550913E-1,-1.552634561E0,3.785627208E0
9.995565667E0,4.090130857E0,-7.110693705E-1,-1.410571194E0,4.384575370E0
1.000559967E1,4.606986422E0,-1.263375726E0,-1.265223154E0,4.941784267E0
1.001563367E1,5.007187110E0,-1.700149287E0,-1.173922098E0,5.416689344E0
1.002566767E1,5.415139160E0,-2.192669032E0,-1.079801514E0,5.941169996E0
1.003570167E1,5.650812356E0,-2.632584887E0,-1.064281834E0,6.324150480E0
1.004573567E1,5.503939655E0,-2.835820654E0,-1.142513194E0,6.296075516E0
1.005576967E1,4.643624783E0,-2.377215344E0,-1.363092973E0,5.391885233E0
1.006580267E1,3.098507987E0,-1.597075154E0,-3.088374177E0,4.657193989E0
1.007583667E1,2.741467059E-1,-1.736543527E0,-9.729527110E0,9.887084384E0
1.008587067E1,-5.145242795E-1,-1.897365346E0,-1.119408857E1,1.136540142E1
1.009590467E1,9.917871773E-2,-1.782552928E0,-9.088357694E0,9.262050363E0
1.010593867E1,3.762504932E-1,-1.568642483E0,-5.875698609E0,6.093113968E0
1.011597267E1,-2.096767679E-1,-1.542994841E0,-2.214527825E0,2.707199829E0
1.012600667E1,-1.284158193E0,-1.473291353E0,-2.385893489E-1,1.968901864E0
1.013604067E1,-2.479042851E0,-1.605876968E0,2.337896620E-1,2.962963364E0
1.014607467E1,-3.638972561E0,-2.288351700E0,2.468968537E-1,4.305767395E0
1.015610867E1,-4.832473768E0,-3.437591531E0,-3.874418447E-1,5.943058929E0
1.016614267E1,-5.888615109E0,-4.878443116E0,-1.181781413E0,7.737674227E0
1.017617667E1,-6.103769841E0,-5.882429339E0,-9.411860309E-1,8.529056943E0
1.018621067E1,-5.997002022E0,-6.130068278E0,-1.096557953E-1,8.576350898E0
1.019624467E1,-5.966342146E0,-5.863712402E0,7.120815235E-1,8.395678760E0
1.020627867E1,-5.987209105E0,-5.487341164E0,1.418442131E0,8.244365591E0
1.021631167E1,-5.931106240E0,-5.224507651E0,2.001229438E0,8.153429995E0
1.022634567E1,-5.780121776E0,-4.851102705E0,2.415875380E0,7.923348980E0
1.023637967E1,-5.745649517E0,-4.092451617E0,2.560721437E0,7.504528159E0
1.024641367E1,-5.749588201E0,-2.972564224E0,2.717403427E0,7.019842159E0
1.025644767E1,-5.696305448E0,-1.951324037E0,2.975421174E0,6.716300501E0
1.026648167E1,-5.600072558E0,-1.104400458E0,3.139736120E0,6.514480480E0
1.027651567E1,-5.536432047E0,-4.654868978E-1,3.248061637E0,6.435733234E0
1.028654967E1,-5.617720624E0,-3.936520994E-2,3.444664907E0,6.589844532E0
1.029658367E1,-5.684686446E0,2.347130835E-1,3.672791687E0,6.772012183E0
1.030661767E1,-5.653444773E0,2.610126901E-1,3.859103858E0,6.849981607E0
1.031665167E1,-5.659603645E0,1.159725058E-1,3.995740424E0,6.928961292E0
1.032668567E1,-5.721527998E0,-8.386193633E-2,4.094818278E0,7.036366405E0
1.033671967E1,-5.572934461E0,-9.378466129E-2,4.007406789E0,6.864816330E0
1.034675367E1,-5.323072996E0,1.292872006E-1,3.722980678E0,6.497107543E0
1.035678667E1,-5.001510633E0,4.458127713E-1,3.434698913E0,6.083667830E0
1.036682067E1,-4.679567617E0,6.321962786E-1,3.102731431E0,5.650218363E0
1.037685467E1,-4.401756461E0,6.195803261E-1,2.532472368E0,5.115931589E0
1.038688867E1,-4.166006082E0,4.666721284E-1,1.833829501E0,4.575622382E0
1.039692267E1,-4.001220435E0,2.550420982E-1,1.254200860E0,4.200932187E0
1.040695667E1,-3.941075975E0,8.814969957E-2,8.286323190E-1,4.028210735E0
1.041699067E1,-3.794500896E0,-1.529081976E-1,6.008949637E-1,3.844826749E0
1.042702467E1,-3.561402814E0,-4.731116670E-1,4.942084211E-1,3.626522662E0
1.043705867E1,-3.187480974E0,-8.121373236E-1,4.890541005E-1,3.325473787E0
1.044709267E1,-2.697483718E0,-1.074731101E0,4.830302989E-1,2.943600451E0
1.045712667E1,-2.046787434E0,-1.275494081E0,4.361473969E-1,2.450805684E0
1.046716067E1,-1.363400536E0,-1.381176656E0,4.868936274E-1,2.000893646E0
1.047719467E1,-8.249322009E-1,-1.400085382E0,6.127098477E-1,1.736711137E0
1.048722867E1,-3.676319897E-1,-1.325889478E0,6.691541898E-1,1.530001150E0
1.049726267E1,1.568930751E-1,-1.305658112E0,8.135268413E-1,1.546345519E0
1.050729567E1,8.860092920E-1,-1.502892882E0,1.127984617E0,2.077510235E0
1.051732967E1,1.786892146E0,-1.943512741E0,1.345066592E0,2.963010202E0
1.052736367E1,2.857185211E0,-2.699392834E0,1.239128492E0,4.121367300E0
1.053739767E1,3.568986360E0,-3.560748510E0,9.127224429E-1,5.123441797E0
1.054743167E1,3.940830099E0,-3.844813848E0,8.482175678E-1,5.570656015E0
1.055746567E1,4.214672458E0,-3.343687001E0,9.430025415E-1,5.461955738E0
1.056749967E1,4.322132879E0,-2.043625844E0,1.023116997E0,4.889172487E0
1.057753367E1,3.785590909E0,-8.536700964E-2,9.413444173E-1,3.901809243E0
1.058756767E1,3.073773095E0,1.658645166E0,7.566454929E-1,3.573751142E0
1.059760167E1,2.290758121E0,2.830577456E0,5.567180800E-1,3.683704185E0
1.060763567E1,1.610011242E0,3.378729950E0,4.219083305E-1,3.766425216E0
1.061766967E1,1.039135591E0,3.152080176E0,2.748046638E-1,3.330304764E0
1.062770367E1,7.591469318E-1,2.300903918E0,8.574590921E-2,2.424420604E0
1.063773767E1,1.004815359E0,1.331388785E0,-1.293544436E-1,1.673016011E0
1.064777067E1,1.422650957E0,5.676558816E-1,-3.150563116E-1,1.563786886E0
1.065780467E1,1.706139175E0,7.148630440E-2,-5.136926593E-1,1.783227782E0
1.066783867E1,1.719466733E0,-1.114724886E-1,-7.391788365E-1,1.874933950E0
1.067787267E1,1.511531559E0,-8.356138945E-2,-9.112846126E-1,1.766960612E0
1.068790667E1,1.248653314E0,5.927205563E-2,-1.024235862E0,1.616077776E0
1.069794067E1,1.000560340E0,2.106962299E-1,-1.056368066E0,1.470179372E0
1.070797467E1,8.640845722E-1,3.496681738E-1,-9.585919493E-1,1.337089565E0
1.071800854E1,9.001192081E-1,3.758163375E-1,-7.949359846E-1,1.258322585E0
1.072804254E1,1.036441486E0,3.193059218E-1,-5.399527971E-1,1.211493396E0
1.073807654E1,1.112654387E0,1.513119078E-1,-2.482534808E-1,1.150010813E0
1.074811054E1,1.072214752E0,-1.078565705E-1,6.959078327E-2,1.079870543E0
1.075814454E1,9.155637512E-1,-2.999148005E-1,3.347747308E-1,1.019941170E0
1.076817854E1,6.412585858E-1,-3.394525033E-1,5.887023497E-1,9.343505939E-1
1.077821254E1,3.001454732E-1,-2.659787303E-1,8.129565185E-1,9.064934038E-1
1.078824654E1,-1.982001454E-2,-1.190218288E-1,9.048683167E-1,9.128777022E-1
1.079827954E1,-3.382310200E-1,1.269313574E-2,9.317082059E-1,9.912827647E-1
1.080831354E1,-5.848162901E-1,1.773934132E-1,9.178753017E-1,1.102711923E0
1.081834754E1,-7.563882154E-1,2.269444728E-1,9.637467085E-1,1.245967353E0
1.082838154E1,-8.629417339E-1,1.841463625E-1,1.064589251E0,1.382725061E0
1.083841554E1,-9.079214403E-1,1.298567194E-1,1.159604605E0,1.478467771E0
1.084844954E1,-9.221366063E-1,1.039693415E-2,1.260702526E0,1.561990677E0
1.085848354E1,-9.185025617E-1,-9.752103209E-2,1.404409545E0,1.680929349E0
1.086851754E1,-9.307045314E-1,-2.473734748E-1,1.546784568E0,1.822072189E0
1.087855154E1,-1.043955743E0,-4.619908476E-1,1.723752304E0,2.067510856E0
1.088858554E1,-1.132355703E0,-6.410980797E-1,1.986914869E0,2.375093026E0
1.089861954E1,-1.181349231E0,-6.839008677E-1,2.271221697E0,2.649859317E0
1.090865354E1,-1.063841831E0,-6.234301329E-1,2.383001749E0,2.683117945E0
1.091868754E1,-7.529284179E-1,-4.926594937E-1,2.160686517E0,2.340551389E0
1.092872154E1,-3.506382269E-1,-3.106374246E-1,1.774574987E0,1.835363495E0
1.093875454E1,5.808477849E-2,-1.725332075E-1,1.504403803E0,1.515378616E0
1.094878854E1,4.371585998E-1,-9.276373744E-2,1.347870770E0,1.420024072E0
1.095882254E1,7.927087802E-1,-5.915745020E-2,1.239388694E0,1.472403188E0
1.096885654E1,1.188664975E0,-4.615441203E-2,1.108206337E0,1.625784715E0
1.097889054E1,1.582879869E0,-9.297189832E-2,9.907234226E-1,1.869675200E0
1.098892454E1,1.926970968E0,-1.466423213E-1,8.873792946E-1,2.126537819E0
1.099895854E1,2.209608124E0,-1.240299690E-1,7.793736202E-1,2.346310877E0
1.100899254E1,2.395061631E0,1.730658889E-2,6.327675515E-1,2.477299842E0
1.101902654E1,2.534885807E0,2.694531459E-1,4.604343188E-1,2.590415182E0
1.102906054E1,2.633819234E0,5.854185534E-1,2.947552174E-1,2.714147984E0
1.103909454E1,2.767382503E0,8.587431407E-1,1.106246424E-1,2.899669552E0
1.104912854E1,2.916913057E0,1.078207271E0,-4.087335303E-2,3.110077705E0
1.105916254E1,3.103999984E0,1.238146160E0,-1.928973055E-1,3.347391699E0
1.106919654E1,3.330063574E0,1.432411714E0,-3.687150402E-1,3.643772428E0
1.107922954E1,3.537745272E0,1.741504304E0,-5.013619047E-1,3.974901585E0
1.108926354E1,3.667521592E0,2.157126147E0,-6.132072996E-1,4.298829030E0
1.109929754E1,3.647215966E0,2.539020081E0,-7.890905231E-1,4.513476612E0
1.110933154E1,3.627692990E0,2.747190898E0,-9.429582489E-1,4.647191035E0
1.111936554E1,3.959924767E0,2.663954029E0,-1.301602483E0,4.946900469E0
1.112939954E1,5.806062949E0,2.371458760E0,-3.286149815E0,7.080463560E0
1.113943354E1,7.635829219E0,1.826233968E0,-5.075781966E0,9.349041712E0
1.114946754E1,6.684774331E0,1.048613343E0,-5.165547252E0,8.512853588E0
1.115950154E1,5.059642482E0,6.664948761E-2,-5.132403479E0,7.207356636E0
1.116953554E1,3.560604961E0,-8.911963570E-1,-5.167745805E0,6.338590959E0
1.117956954E1,1.784235756E0,-1.940152346E0,-5.767780643E0,6.341528358E0
1.118960354E1,-3.506841275E-1,-3.027621022E0,-7.185607647E0,7.805281908E0
1.119963754E1,-2.020856202E0,-3.968639165E0,-7.952398059E0,9.114526400E0
1.120967154E1,-3.050720447E0,-4.682885912E0,-7.461316729E0,9.322422595E0
1.121970554E1,-3.660193861E0,-4.996831691E0,-5.960669178E0,8.596215627E0
1.122973854E1,-4.398006642E0,-5.062652044E0,-4.785910051E0,8.238801075E0
1.123977254E1,-5.610019841E0,-5.073242521E0,-5.324848795E0,9.250087945E0
1.124980654E1,-6.579705128E0,-4.753744226E0,-5.741060622E0,9.942352880E0
1.125984054E1,-6.090407199E0,-3.648057380E0,-4.248284007E0,8.273409183E0
1.126987454E1,-4.559747059E0,-1.997428747E0,-2.282837922E0,5.476528446E0
1.127990854E1,-3.423814906E0,-8.831084883E-1,-1.481777563E0,3.833804098E0
1.128994254E1,-2.596091244E0,-2.640561658E-1,-1.120086345E0,2.839719850E0
1.129997654E1,-2.060826598E0,7.574424684E-2,-7.395043802E-1,2.190801266E0
1.131001054E1,-1.768435995E0,1.513411438E-1,-2.195262565E-1,1.788424387E0
1.132004454E1,-1.587294517E0,6.929301381E-2,2.431909615E-1,1.607310564E0
1.133007854E1,-1.137484589E0,-2.542369366E-2,5.289922645E-1,1.254731194E0
1.134011254E1,-5.029184335E-1,-1.252023357E-1,7.943227579E-1,9.484467404E-1
1.135014654E1,1.769671512E-1,-7.560099006E-2,9.253084284E-1,9.451077028E-1
1.136018054E1,7.130813974E-1,2.202248526E-1,1.004733498E0,1.251588377E0
1.137021454E1,6.392076749E-1,4.665692174E-1,9.670335015E-1,1.249570758E0
1.138024754E1,-1.752276045E-1,6.790172732E-1,8.635361034E-1,1.112413490E0
1.139028154E1,-9.308287847E-1,9.352533728E-1,7.473338020E-1,1.516459333E0
1.140031554E1,-1.528998946E0,1.086510901E0,7.177579274E-1,2.008362556E0
1.141034954E1,-1.964384378E0,1.221685079E0,7.816470176E-1,2.441780595E0
1.142038354E1,-2.166226169E0,1.370644067E0,8.888872916E-1,2.713175555E0
1.143041754E1,-2.177213672E0,1.471430769E0,1.001670141E0,2.812243046E0
1.144045154E1,-2.154090858E0,1.442957168E0,1.120089707E0,2.824328905E0
1.145048554E1,-2.168407765E0,1.303494058E0,1.241513572E0,2.818234366E0
1.146051954E1,-2.168420044E0,1.098052136E0,1.319652838E0,2.765727317E0
1.147055354E1,-2.079584466E0,8.496343482E-1,1.395459650E0,2.644590273E0
1.148058754E1,-1.865450073E0,5.479273760E-1,1.457113277E0,2.429672300E0
1.149062154E1,-1.604147362E0,2.300926137E-1,1.511250892E0,2.215876943E0
1.150065554E1,-1.299467665E0,-1.043119884E-1,1.520797641E0,2.003078298E0
1.151068954E1,-9.776550418E-1,-4.055383193E-1,1.414670092E0,1.766794323E0
1.152072254E1,-5.554533273E-1,-5.615642524E-1,1.127306340E0,1.376481890E0
1.153075654E1,6.027485311E-2,-4.252750111E-1,6.230500638E-1,7.567583994E-1
1.154079054E1,8.616956922E-1,-1.174863499E-1,-5.401833236E-2,8.713440702E-1
1.155082454E1,1.877138365E0,1.290609133E-1,-7.110343603E-1,2.011436060E0
1.156085854E1,2.874787084E0,3.571467626E-1,-1.261975903E0,3.159831921E0
1.157089254E1,3.571223797E0,6.322752160E-1,-1.570835189E0,3.952332799E0
1.158092654E1,4.077304405E0,9.655571526E-1,-1.485435435E0,4.445585480E0
1.159096054E1,4.431605328E0,1.376752068E0,-1.171775000E0,4.786191460E0
1.160099454E1,4.799345491E0,1.855914434E0,-8.555558965E-1,5.216331222E0
1.161102854E1,5.086763622E0,2.501315480E0,-5.893233971E-1,5.699038984E0
1.162106254E1,5.117331111E0,3.164326000E0,-4.194190246E-1,6.031247720E0
1.163109654E1,5.086952487E0,3.647031194E0,-3.472620445E-1,6.268852612E0
1.164113054E1,5.154928123E0,3.126093396E0,-4.076504798E-1,6.042509643E0
1.165116454E1,5.448169497E0,1.082906678E0,-2.968898897E-1,5.562677534E0
1.166119854E1,5.032449421E0,-6.936440831E-1,-3.191614956E-2,5.080128731E0
1.167123154E1,4.458789618E0,-1.439981520E0,1.715976530E-1,4.688688238E0
1.168126554E1,4.200868059E0,-1.494629597E0,1.911804168E-1,4.462931775E0
1.169129954E1,5.053666627E0,-1.664574827E0,4.435253406E-1,5.339201295E0
1.170133354E1,6.263805209E0,-1.645346843E0,7.565800041E-1,6.520340117E0
1.171136754E1,6.122727683E0,-1.225301582E0,5.158610992E-1,6.265402694E0
1.172140071E1,5.071093669E0,-7.222071469E-1,-3.488391848E-1,5.134127281E0
1.173143471E1,3.173627751E0,-2.158102047E-1,-1.037761641E0,3.345958214E0
1.174146871E1,1.407918605E0,4.264678431E-1,-1.356613234E0,2.001126954E0
1.175150271E1,1.447448999E-1,1.224360765E0,-1.575725800E0,2.000730408E0
1.176153671E1,-7.201951200E-1,1.867425848E0,-1.821129348E0,2.706006728E0
1.177157071E1,-1.333286206E0,2.214567440E0,-1.954896101E0,3.240922680E0
1.178160471E1,-1.696443322E0,2.275626989E0,-1.922299920E0,3.428065799E0
1.179163871E1,-1.897360376E0,2.058269026E0,-1.794168422E0,3.324979414E0
1.180167271E1,-1.886035196E0,1.474311107E0,-1.646293215E0,2.905340488E0
1.181170571E1,-1.682954380E0,5.224452102E-1,-1.436283156E0,2.273366171E0
1.182173971E1,-1.258907577E0,-6.457933939E-1,-1.175468686E0,1.839462972E0
1.183177371E1,-9.209999076E-1,-1.588011970E0,-9.922808285E-1,2.086778400E0
1.184180771E1,-6.988486898E-1,-2.028341807E0,-8.974448378E-1,2.325503648E0
1.185184171E1,-6.000494564E-1,-1.829765101E0,-8.701120283E-1,2.113100711E0
1.186187571E1,-7.609902665E-1,-1.168226325E0,-8.667118724E-1,1.641660258E0
1.187190971E1,-1.220754494E0,-5.284567326E-1,-6.509186246E-1,1.480946694E0
1.188194371E1,-1.707105719E0,-1.118163049E-1,-1.160695696E-1,1.714696757E0
1.189197771E1,-2.071523495E0,-2.662295759E-2,7.500755614E-1,2.203300188E0
1.190201171E1,-2.084929698E0,-2.232496172E-1,1.656443104E0,2.672185622E0
1.191204571E1,-1.809012163E0,-5.614987636E-1,2.317804563E0,2.993329895E0
1.192207971E1,-1.450160353E0,-8.321517581E-1,2.800581824E0,3.261702033E0
1.193211371E1,-9.783654785E-1,-9.135607874E-1,3.164500247E0,3.435964804E0
1.194214771E1,-6.173539987E-1,-8.273178649E-1,3.287901056E0,3.446139022E0
1.195218071E1,-4.539667135E-1,-6.554880774E-1,3.268450878E0,3.364301047E0
1.196221471E1,-3.390408593E-1,-3.050802308E-1,3.244298369E0,3.276201239E0
1.197224871E1,-4.074410033E-1,1.181429923E-2,3.305673083E0,3.330708976E0
1.198228271E1,-5.494803965E-1,2.785981911E-1,3.260223261E0,3.317921242E0
1.199231671E1,-5.158945745E-1,7.237578285E-1,3.110052729E0,3.234563430E0
1.200235071E1,-4.756736246E-1,1.095252489E0,2.834338385E0,3.075600346E0
1.201238471E1,-5.616560537E-1,1.254689103E0,2.592739620E0,2.934621101E0
1.202241871E1,-6.488628897E-1,1.198782120E0,2.284705961E0,2.660447885E0
1.203245271E1,-6.704598731E-1,1.014007182E0,1.971415654E0,2.316075709E0
1.204248671E1,-6.247299689E-1,6.903591174E-1,1.746128867E0,1.978850491E0
1.205252071E1,-4.200198260E-1,3.608544821E-1,1.610095149E0,1.702656454E0
1.206255471E1,-1.358851987E-1,9.468162417E-2,1.520254581E0,1.529249289E0
1.207258871E1,1.124445882E-1,-4.310275018E-2,1.425586406E0,1.430663564E0
1.208262271E1,2.759786385E-1,-5.765471578E-2,1.305724917E0,1.335816542E0
1.209265671E1,3.578115910E-1,1.086237252E-2,1.149186183E0,1.203651116E0
1.210268971E1,4.520514581E-1,1.231908935E-1,9.892864694E-1,1.094629725E0
1.211272371E1,5.620983955E-1,2.049314600E-1,8.075794190E-1,1.005055236E0
1.212275771E1,6.883947453E-1,2.228286177E-1,6.793558270E-1,9.925040342E-1
1.213279171E1,7.961799797E-1,2.000607294E-1,5.362231506E-1,9.805417497E-1
1.214282571E1,9.384082380E-1,2.132824534E-1,3.825786424E-1,1.035599268E0
1.215285971E1,1.084284282E0,3.217594135E-1,2.035059088E-1,1.149180655E0
1.216289371E1,1.200896765E0,5.062098312E-1,1.978814721E-2,1.303377537E0
1.217292771E1,1.315630538E0,7.219492847E-1,-1.408116241E-1,1.507289752E0
1.218296171E1,1.469017038E0,9.070388031E-1,-2.766996002E-1,1.748511687E0
1.219299571E1,1.655857798E0,1.042100714E0,-4.166842818E-1,2.000366150E0
1.220302971E1,1.917496140E0,1.160849478E0,-5.010315371E-1,2.296822927E0
1.221306371E1,2.326844213E0,1.153864979E0,-5.549226925E-1,2.655851572E0
1.222309771E1,2.839608188E0,1.041527687E0,-5.435153595E-1,3.073038159E0
1.223313171E1,3.392584342E0,8.540513349E-1,-5.113105036E-1,3.535600463E0
1.224316571E1,3.871470427E0,6.959765375E-1,-4.938189965E-1,3.964407120E0
1.225319871E1,4.211094254E0,6.751861775E-1,-5.473053785E-1,4.299852831E0
1.226323271E1,4.368889554E0,8.180985600E-1,-6.890746303E-1,4.497922302E0
1.227326671E1,4.366272925E0,1.029274846E0,-9.006358096E-1,4.575466187E0
1.228330071E1,4.357622555E0,1.285916743E0,-1.164521821E0,4.690263028E0
1.229333471E1,4.509479715E0,1.419282376E0,-1.468403373E0,4.950351324E0
1.230336871E1,5.070681440E0,1.117896416E0,-1.736171936E0,5.475015585E0
1.231340271E1,6.193584827E0,4.540626079E-1,-2.101021236E0,6.555986280E0
1.232343671E1,8.601865259E0,-4.197096312E-1,-3.194929450E0,9.185630969E0
1.233347071E1,1.001948001E1,-1.206135578E0,-4.308905308E0,1.097321319E1
1.234350471E1,9.923964572E0,-1.927214797E0,-5.793210769E0,1.165163168E1
1.235353871E1,9.671998694E0,-2.838375303E0,-8.665247322E0,1.329249579E1
1.236357271E1,8.216519129E0,-3.370245640E0,-8.087420209E0,1.201149899E1
1.237360671E1,6.231360179E0,-2.758707574E0,-4.276126694E0,8.045220734E0
1.238364071E1,4.767767895E0,-1.918651550E0,-1.771861294E0,5.436205194E0
1.239367371E1,3.078950220E0,-1.446060870E0,-1.485396844E0,3.711796099E0
1.240370771E1,1.176820562E0,-1.008148271E0,-2.686220811E0,3.101137182E0
1.241374171E1,3.778470755E-1,-6.224460465E-1,-2.899691545E0,2.989718808E0
1.242377571E1,3.974685770E-1,-4.500227666E-1,-2.341762506E0,2.417509751E0
1.243380971E1,2.884796932E-1,-5.631500173E-1,-1.997289584E0,2.095119127E0
1.244384371E1,1.736886173E-2,-9.835788560E-1,-1.631802937E0,1.905389690E0
1.245387771E1,-3.615286660E-1,-1.439672787E0,-1.296842850E0,1.971081451E0
1.246391171E1,-8.974417681E-1,-1.971391681E0,-1.110136576E0,2.433965921E0
1.247394571E1,-1.647265314E0,-2.585883760E0,-9.091625118E-1,3.197945326E0
1.248397971E1,-2.430564755E0,-3.072455717E0,-7.666448164E-1,3.991913506E0
1.249401371E1,-3.115810483E0,-3.445770031E0,-4.574996378E-1,4.668073692E0
1.250404771E1,-3.595926529E0,-3.747482851E0,4.724889386E-1,5.215128102E0
1.251408171E1,-3.764852589E0,-3.897376809E0,1.617745062E0,5.655153410E0
1.252411571E1,-3.993997369E0,-3.899378310E0,2.477796809E0,6.107097774E0
1.253414971E1,-4.072046589E0,-3.704068444E0,3.022452668E0,6.279881097E0
1.254418271E1,-4.295404379E0,-3.287991103E0,3.467922792E0,6.425564004E0
1.255421671E1,-4.373379924E0,-2.485513380E0,3.541809379E0,6.152125031E0
1.256425071E1,-3.997212169E0,-1.726695646E0,3.492540740E0,5.581847704E0
1.257428471E1,-3.574386556E0,-1.149332217E0,3.307196867E0,5.003474285E0
1.258431871E1,-3.397104240E0,-6.537760127E-1,3.105652699E0,4.648958914E0
1.259435271E1,-3.237643653E0,-2.649086899E-1,3.002317196E0,4.423394803E0
1.260438671E1,-2.973472297E0,2.233110130E-2,3.055767764E0,4.263772133E0
1.261442071E1,-2.657665933E0,2.196535796E-1,3.212010044E0,4.174738846E0
1.262445471E1,-2.191853930E0,4.371074367E-1,3.425972528E0,4.090546947E0
1.263448871E1,-1.483460246E0,7.166347504E-1,3.496547252E0,3.865237684E0
1.264452271E1,-7.422975951E-1,9.890296304E-1,3.044736407E0,3.286275265E0
1.265455671E1,-1.990339583E-1,1.254283891E0,2.191399602E0,2.532799797E0
1.266459071E1,1.402214938E-1,1.540244311E0,1.056550938E0,1.873049516E0
1.267462471E1,2.787081188E-1,1.829798430E0,-5.504311538E-1,1.931013973E0
1.268465771E1,-1.215554273E-1,1.825128844E0,-1.929950709E0,2.659056366E0
1.269469171E1,-1.131768935E0,1.372057924E0,-1.678904014E0,2.445845980E0
1.270472571E1,-2.157150121E0,6.875372511E-1,-5.839356995E-1,2.338158467E0
1.271476067E1,-2.984911205E0,6.728274107E-2,5.212336671E-1,3.030826026E0
1.272479467E1,-3.803483974E0,-4.247943699E-1,1.341424946E0,4.055411382E0
1.273482867E1,-4.494896759E0,-6.882880336E-1,1.490683311E0,4.785391732E0
1.274486267E1,-5.010082067E0,-7.351125365E-1,1.198652312E0,5.203660262E0
1.275489667E1,-5.497521166E0,-6.679736370E-1,6.285803604E-1,5.573512449E0
1.276493067E1,-5.845326417E0,-5.213728309E-1,-5.180750012E-2,5.868760906E0
1.277496467E1,-6.054425188E0,-3.516971576E-1,-6.111673522E-1,6.095349110E0
1.278499867E1,-6.142426368E0,-2.544544530E-1,-8.843077523E-1,6.210970049E0
1.279503267E1,-6.155934606E0,-2.203148997E-1,-8.625502628E-1,6.219972868E0
1.280506667E1,-6.065744228E0,-2.528552395E-1,-6.947924763E-1,6.110640342E0
1.281510067E1,-5.835872054E0,-4.054301459E-1,-4.816818579E-1,5.869735398E0
1.282513467E1,-5.470611110E0,-6.519288772E-1,-3.503902318E-1,5.520450208E0
1.283516767E1,-4.823379301E0,-8.636887157E-1,-3.917458340E-1,4.915730961E0
1.284520167E1,-3.747810879E0,-9.590550488E-1,-6.834056085E-1,3.928475048E0
1.285523567E1,-2.314984013E0,-9.553561002E-1,-1.277195036E0,2.811242326E0
1.286526967E1,-4.599367207E-1,-9.064605135E-1,-2.156512190E0,2.384063186E0
1.287530367E1,1.688744293E0,-9.600373811E-1,-2.898581159E0,3.489312510E0
1.288533767E1,4.012395049E0,-1.174566461E0,-2.728285680E0,4.992240294E0
1.289537167E1,6.458350845E0,-1.533180875E0,-1.994032100E0,6.930880409E0
1.290540567E1,8.926729544E0,-1.813713325E0,-1.775246832E0,9.280493397E0
1.291543967E1,1.130272633E1,-1.366453367E0,-2.857013302E0,1.173802974E1
1.292547367E1,1.309408399E1,-9.615044475E-2,-4.317368860E0,1.378781906E1
1.293550767E1,1.301258901E1,1.385156271E0,-4.137666089E0,1.372466434E1
1.294554167E1,1.095548826E1,3.015940624E0,-2.773171831E0,1.169654234E1
1.295557567E1,7.820575506E0,4.444097319E0,-1.674881860E0,9.149679310E0
1.296560967E1,4.284125100E0,4.866054620E0,-1.127434541E0,6.580526125E0
1.297564367E1,3.405661640E0,3.042799809E0,-7.373409104E-1,4.626103490E0
1.298567667E1,3.566422064E0,8.341053128E-2,-9.573587716E-2,3.568681691E0
1.299571067E1,2.149568621E0,-1.692576558E0,8.763441369E-2,2.737360124E0
1.300574467E1,1.622587141E0,-3.311030302E0,5.348565102E-2,3.687624087E0
1.301577867E1,2.411485291E0,-5.442846776E0,3.995178799E-1,5.966528042E0
1.302581267E1,3.037143797E0,-8.193527877E0,1.154046827E0,8.814191148E0
1.303584667E1,1.973713025E0,-9.029934070E0,1.523796678E0,9.367881763E0
1.304588067E1,-8.305619001E-2,-6.501681637E0,1.686891018E-1,6.504399930E0
1.305591467E1,-1.763219109E0,-2.805007582E0,-7.486618508E-1,3.396690114E0
1.306594867E1,-2.935121579E0,1.092657495E-1,-9.272147669E-1,3.080033264E0
1.307598267E1,-3.672916233E0,1.966983465E0,-1.100581787E0,4.309363976E0
1.308601667E1,-4.242555490E0,3.215934695E0,-1.262283028E0,5.471276953E0
1.309605067E1,-4.679866995E0,3.971423024E0,-1.352770298E0,6.285168526E0
1.310608467E1,-5.149258078E0,4.197523744E0,-1.375579263E0,6.784267289E0
1.311611867E1,-5.649873294E0,3.672233278E0,-1.316083844E0,6.865744109E0
1.312615167E1,-5.508038553E0,2.324396861E0,-1.172605889E0,6.092315983E0
1.313618567E1,-4.756956686E0,6.849270540E-1,-8.435374564E-1,4.879479216E0
1.314621967E1,-3.829217277E0,-7.304575682E-1,-3.150136270E-1,3.910972616E0
1.315625367E1,-3.132828804E0,-1.787979729E0,3.365006827E-1,3.622805616E0
1.316628767E1,-2.603165498E0,-2.446437022E0,9.558712399E-1,3.698001425E0
1.317632167E1,-2.002799707E0,-2.740333284E0,1.384125992E0,3.665574707E0
1.318635567E1,-1.806807471E0,-2.464206710E0,1.542739903E0,3.422997861E0
1.319638967E1,-2.150197781E0,-1.896524516E0,1.764830163E0,3.366716686E0
1.320642367E1,-2.423424135E0,-1.307054427E0,2.150307270E0,3.493593733E0
1.321645767E1,-2.408807558E0,-7.158360207E-1,2.597997437E0,3.614466176E0
1.322649167E1,-2.151648476E0,-3.185720962E-1,2.993182676E0,3.700029983E0
1.323652567E1,-1.782889435E0,-9.107155323E-2,3.059048052E0,3.541858799E0
1.324655967E1,-1.081181457E0,5.787223220E-2,2.678747485E0,2.889288948E0
1.325659367E1,-3.008518168E-1,2.224427015E-1,2.132529835E0,2.165104170E0
1.326662667E1,1.502541465E-1,4.026094490E-1,1.838652284E0,1.888203617E0
1.327666067E1,2.909390321E-1,4.538731581E-1,1.605323237E0,1.693431149E0
1.328669467E1,2.640260527E-1,4.992668474E-1,1.326586320E0,1.441807340E0
1.329672867E1,1.884110293E-1,5.416141373E-1,1.105923000E0,1.245756907E0
1.330676267E1,1.273397854E-1,6.336089659E-1,9.638164365E-1,1.160438652E0
1.331679667E1,1.836844325E-1,6.669515437E-1,9.474306379E-1,1.173110884E0
1.332683067E1,3.148716858E-1,6.469020259E-1,9.790589583E-1,1.214982656E0
1.333686467E1,4.753113896E-1,6.059147984E-1,9.365450227E-1,1.212505769E0
1.334689867E1,6.158910254E-1,5.351178807E-1,8.390551271E-1,1.170336023E0
1.335693267E1,7.496346813E-1,4.426143444E-1,7.685841917E-1,1.161284320E0
1.336696667E1,8.326917484E-1,4.146921355E-1,7.584253854E-1,1.200230886E0
1.337700067E1,9.302022555E-1,4.549163014E-1,7.651647399E-1,1.287517828E0
1.338703467E1,9.854987893E-1,5.712256068E-1,7.608278601E-1,1.369804946E0
1.339706867E1,9.883744499E-1,6.923582804E-1,7.252987160E-1,1.407942566E0
1.340710267E1,9.271695971E-1,8.111356956E-1,7.093106742E-1,1.421515463E0
1.341713567E1,8.824921918E-1,9.146559709E-1,7.110025661E-1,1.456335354E0
1.342716967E1,8.728039402E-1,9.010454071E-1,7.231548344E-1,1.447971843E0
1.343720367E1,9.392160308E-1,8.619006371E-1,7.001640210E-1,1.454382727E0
1.344723767E1,1.064734409E0,7.742842036E-1,6.482807994E-1,1.467461544E0
1.345727167E1,1.256836785E0,6.274068242E-1,5.550678496E-1,1.510423234E0
1.346730567E1,1.474164927E0,4.864275312E-1,3.578580764E-1,1.593058812E0
1.347733967E1,1.585608764E0,3.495342726E-1,1.982507238E-1,1.635736137E0
1.348737367E1,1.600259840E0,2.715903032E-1,7.566297054E-3,1.623160527E0
1.349740767E1,1.520611407E0,3.126354182E-1,-1.863019386E-1,1.563556321E0
1.350744167E1,1.446585950E0,4.021919578E-1,-3.582074475E-1,1.543593812E0
1.351747567E1,1.440861233E0,5.123382980E-1,-5.269750482E-1,1.617490132E0
1.352750967E1,1.479808660E0,6.287891060E-1,-6.756524929E-1,1.744051519E0
1.353754367E1,1.597815119E0,6.244417012E-1,-7.943284589E-1,1.890475679E0
1.354757767E1,1.821557072E0,5.272820270E-1,-8.599590692E-1,2.082216632E0
1.355761067E1,2.135168683E0,3.559697181E-1,-9.096908078E-1,2.348019828E0
1.356764467E1,2.430944824E0,1.302666092E-1,-9.630767637E-1,2.618010501E0
1.357767867E1,2.627742515E0,-9.383026958E-2,-1.034109324E0,2.825458713E0
1.358771267E1,2.654473061E0,-2.103126526E-1,-1.151852952E0,2.901245227E0
1.359774667E1,2.568202364E0,-2.026574779E-1,-1.304279923E0,2.887538668E0
1.360778067E1,2.420198811E0,-9.428050518E-2,-1.469434822E0,2.832929543E0
1.361781467E1,2.240581410E0,1.558815068E-1,-1.633639548E0,2.777279653E0
1.362784867E1,2.203367683E0,3.190702790E-1,-1.803630386E0,2.865260469E0
1.363788267E1,2.697826365E0,-1.464435160E-1,-1.873717744E0,3.287937192E0
1.364791667E1,3.467772519E0,-8.362974340E-1,-1.848476191E0,4.017673938E0
1.365795067E1,4.131498446E0,-1.328207899E0,-1.755002309E0,4.681180272E0
1.366798467E1,4.663422285E0,-1.645573715E0,-1.582769649E0,5.192357848E0
1.367801867E1,5.133583447E0,-1.902607960E0,-1.407561048E0,5.652859821E0
1.368805267E1,5.526327474E0,-2.148665811E0,-1.240935282E0,6.057803273E0
1.369808667E1,5.612403166E0,-2.162709069E0,-1.123667618E0,6.118742414E0
1.370811967E1,5.257985884E0,-1.723688423E0,-1.124016697E0,5.646320118E0
1.371815354E1,4.659369288E0,-9.619991219E-1,-1.302550317E0,4.932727623E0
1.372818754E1,4.023596852E0,-1.542799544E-1,-1.663971102E0,4.356826111E0
1.373822154E1,3.595820402E0,5.963405675E-1,-3.330705306E0,4.937524103E0
1.374825554E1,2.929553860E0,9.063903469E-1,-1.119650698E1,1.160885859E1
1.375828954E1,2.234821902E0,6.893434560E-1,-1.537782399E1,1.555464863E1
1.376832354E1,2.165644079E0,3.064818084E-1,-1.062600467E1,1.084877508E1
1.377835754E1,2.244939047E0,2.543451101E-1,-3.433287980E0,4.109976778E0
1.378839154E1,2.094993926E0,6.170057970E-1,3.402512330E-1,2.210309165E0
1.379842554E1,1.189959256E0,7.476670933E-1,1.580994726E0,2.115314028E0
1.380845954E1,5.851659536E-1,6.246486926E-1,2.068162515E0,2.238280896E0
1.381849354E1,1.798819882E-1,2.152354234E-1,2.116489753E0,2.134997117E0
1.382852754E1,-2.960030133E-1,-4.056891775E-1,2.240554805E0,2.296146190E0
1.383856154E1,-7.662597772E-1,-1.255572617E0,2.466780070E0,2.872041183E0
1.384859454E1,-9.962412938E-1,-2.222877502E0,2.699050187E0,3.635732803E0
1.385862854E1,-1.149066753E0,-3.234355763E0,2.914364548E0,4.502769406E0
1.386866254E1,-1.254438842E0,-4.231850408E0,3.116530859E0,5.403234150E0
1.387869654E1,-1.379673337E0,-5.067462548E0,3.324461356E0,6.215683269E0
1.388873054E1,-1.555868071E0,-5.811667505E0,3.739131857E0,7.083594546E0
1.389876454E1,-1.962760606E0,-6.186934789E0,3.821934278E0,7.532448002E0
1.390879854E1,-2.267683547E0,-5.816806623E0,3.691238483E0,7.252783569E0
1.391883254E1,-2.432553393E0,-4.613316325E0,3.390692768E0,6.220675283E0
1.392886654E1,-2.421476428E0,-3.293356508E0,3.058057534E0,5.105042709E0
1.393890054E1,-2.645428880E0,-2.226122707E0,2.782887565E0,4.438285645E0
1.394893454E1,-3.387251097E0,-1.298899900E0,3.306805104E0,4.908723963E0
1.395896854E1,-4.103801647E0,-6.787488860E-1,4.526474648E0,6.147427165E0
1.396900254E1,-3.963474904E0,-2.201570249E-1,4.992093108E0,6.377977424E0
1.397903654E1,-3.552014524E0,1.748785257E-2,4.833729458E0,5.998504270E0
1.398907054E1,-3.269782873E0,1.652352977E-1,4.304162339E0,5.407827307E0
1.399910354E1,-3.177599764E0,4.400690514E-1,3.876388228E0,5.031618698E0
1.400913754E1,-3.065602196E0,7.615852207E-1,3.525930680E0,4.733932407E0
1.401917154E1,-2.882696028E0,1.048067213E0,3.293996193E0,4.500976804E0
1.402920554E1,-2.763585321E0,1.275704581E0,3.075598011E0,4.327138677E0
1.403923954E1,-2.642523984E0,1.350213311E0,2.903252499E0,4.151491788E0
1.404927354E1,-2.475369630E0,1.318426092E0,2.794158658E0,3.958917121E0
1.405930754E1,-2.445043046E0,1.233561358E0,2.411782329E0,3.649192119E0
1.406934154E1,-2.733216053E0,1.105617263E0,1.697946056E0,3.402334542E0
1.407937554E1,-3.208026921E0,9.378559685E-1,9.412087619E-1,3.472302474E0
1.408940954E1,-3.719662968E0,7.348096508E-1,1.494618487E-1,3.794492939E0
1.409944354E1,-4.246110013E0,4.382792187E-1,-8.739295292E-1,4.357211463E0
1.410947754E1,-4.878961764E0,-4.016101599E-2,-2.144902543E0,5.329773702E0
1.411951154E1,-5.711836238E0,-6.348450673E-1,-3.906925896E0,6.949256898E0
1.412954554E1,-6.575437830E0,-1.186848537E0,-5.298364416E0,8.527464899E0
1.413957854E1,-6.784960524E0,-1.403087928E0,-4.509335289E0,8.266707313E0
1.414961254E1,-6.801847867E0,-1.473199552E0,-3.427235527E0,7.757666833E0
1.415964654E1,-6.742980439E0,-1.520785362E0,-2.711918739E0,7.425299763E0
1.416968054E1,-6.501426113E0,-1.454011329E0,-2.012350257E0,6.959327842E0
1.417971454E1,-5.844707197E0,-1.227237010E0,-1.257769416E0,6.103171045E0
1.418974854E1,-4.858901137E0,-8.855257273E-1,-7.965673578E-1,5.002758801E0
1.419978254E1,-3.570280641E0,-4.646957695E-1,-7.297745403E-1,3.673610880E0
1.420981654E1,-2.058861349E0,7.076885104E-3,-1.035549493E0,2.304630749E0
1.421985054E1,-3.731500071E-1,2.790203601E-1,-1.068622515E0,1.165781870E0
1.422988454E1,1.352318308E0,1.147744113E-1,-2.790226990E-1,1.385565458E0
1.423991854E1,3.418039026E0,-3.200339001E-1,5.889514410E-1,3.483141726E0
1.424995254E1,5.749306950E0,-8.035676444E-1,1.117226325E0,5.911721071E0
1.425998654E1,8.468469805E0,-1.256900520E0,1.084797083E0,8.629690867E0
1.427002054E1,1.176345535E1,-1.386146205E0,4.811198674E-1,1.185460920E1
1.428005454E1,1.356547950E1,-6.738179290E-1,-9.717796133E-1,1.361692404E1
1.429008754E1,1.346231357E1,6.589075291E-1,-2.490353120E0,1.370656428E1
1.430012154E1,1.202952939E1,2.389603255E0,-3.027077816E0,1.263261577E1
1.431015554E1,9.817941688E0,3.923616189E0,-2.768553700E0,1.092939306E1
1.432018954E1,7.177873535E0,4.193693817E0,-2.140923659E0,8.584433029E0
1.433022354E1,6.677417949E0,1.477101983E0,-1.067056192E0,6.921585776E0
1.434025754E1,5.916450194E0,-1.343427617E0,-6.126044516E-1,6.097906598E0
1.435029154E1,4.631405564E0,-3.826053057E0,-1.218783106E0,6.129766043E0
1.436032554E1,3.801081353E0,-6.293130165E0,-1.914204304E0,7.597097133E0
1.437035954E1,3.289480389E0,-7.048191648E0,-4.656531049E-1,7.791952229E0
1.438039354E1,1.550694455E0,-5.328449510E0,3.975643252E-1,5.563729403E0
1.439042754E1,-9.141227049E-1,-2.896760920E0,1.872722840E-1,3.043339458E0
1.440046154E1,-2.687642854E0,-1.057388844E0,1.013411643E-1,2.889942094E0
1.441049554E1,-3.715288666E0,3.671887708E-1,1.195740983E-2,3.733408690E0
1.442052954E1,-4.447274696E0,1.229325051E0,-1.909322025E-1,4.618002535E0
1.443056354E1,-4.901606861E0,1.704895472E0,-3.658627684E-1,5.202525728E0
1.444059654E1,-5.197237406E0,1.885040000E0,-4.274764878E-1,5.545032787E0
1.445063054E1,-5.273321376E0,1.775190114E0,-4.803984672E-1,5.584800889E0
1.446066454E1,-5.051497895E0,1.416264628E0,-5.054165103E-1,5.270567553E0
1.447069854E1,-4.743958910E0,8.532777482E-1,-4.224011046E-1,4.838558850E0
1.448073254E1,-4.404612826E0,1.360606152E-1,-2.223924154E-1,4.412321954E0
1.449076654E1,-3.906280949E0,-7.182912666E-1,-1.474419281E-2,3.971799414E0
1.450080054E1,-3.592340432E0,-1.494144278E0,3.241322136E-1,3.904156579E0
1.451083454E1,-3.577001431E0,-1.983022377E0,7.559755482E-1,4.159184537E0
1.452086854E1,-4.091142133E0,-2.142738488E0,1.234499837E0,4.780456257E0
1.453090254E1,-4.608843497E0,-1.893850585E0,1.587094542E0,5.229433765E0
1.454093654E1,-4.452835106E0,-1.385628726E0,1.749262975E0,4.980725690E0
1.455097054E1,-3.720398548E0,-7.804296273E-1,2.160019349E0,4.372198457E0
1.456100454E1,-2.942397561E0,-4.362595904E-1,2.743817639E0,4.046796397E0
1.457103754E1,-2.525257781E0,-3.416902328E-1,3.137511839E0,4.041987088E0
1.458107154E1,-2.079821278E0,-2.933366829E-1,3.085935888E0,3.732921546E0
1.459110554E1,-1.561954438E0,-2.487592649E-1,2.878246297E0,3.284187051E0
1.460113954E1,-1.122910696E0,-2.026440293E-1,2.551243685E0,2.794787536E0
1.461117354E1,-5.771821654E-1,-8.864671290E-2,2.260842304E0,2.335038633E0
1.462120754E1,6.780402035E-2,4.704552770E-2,2.005145903E0,2.006843481E0
1.463124154E1,5.286613852E-1,1.224670082E-1,1.765735751E0,1.847242207E0
1.464127554E1,7.006896856E-1,1.624023217E-1,1.646166623E0,1.796442345E0
1.465130954E1,6.756855297E-1,2.253774190E-1,1.534226941E0,1.691507678E0
1.466134354E1,5.516409427E-1,3.332374978E-1,1.363365453E0,1.508018673E0
1.467137754E1,4.485086301E-1,4.654605854E-1,1.197760611E0,1.361045197E0
1.468141154E1,4.304997906E-1,5.815710855E-1,1.106329454E0,1.321937918E0
1.469144554E1,4.886228684E-1,6.763275540E-1,9.910118365E-1,1.295482817E0
1.470147954E1,6.653689948E-1,7.449703574E-1,8.596151067E-1,1.317814427E0
1.471151354E1,9.227958798E-1,6.825285262E-1,7.747250106E-1,1.384773002E0
1.472154667E1,1.188786012E0,6.323079604E-1,7.410847364E-1,1.536955473E0
1.473158067E1,1.396903328E0,6.467891747E-1,7.176609367E-1,1.698444101E0
1.474161467E1,1.516840538E0,7.040614825E-1,6.773685046E-1,1.804254938E0
1.475164867E1,1.499036644E0,7.991541660E-1,6.294872636E-1,1.811632539E0
1.476168267E1,1.415751827E0,8.932358658E-1,5.889656205E-1,1.774571512E0
1.477171667E1,1.283522600E0,1.030028552E0,5.315904017E-1,1.729444257E0
1.478175067E1,1.180769772E0,1.135893561E0,4.329196608E-1,1.694665415E0
1.479178467E1,1.154527176E0,1.121198924E0,3.089819317E-1,1.638746429E0
1.480181867E1,1.200192176E0,1.019884218E0,1.847860479E-1,1.585802939E0
1.481185267E1,1.336056032E0,8.090336215E-1,9.616462424E-2,1.564873400E0
1.482188667E1,1.495930018E0,5.672378057E-1,1.513347119E-2,1.599935739E0
1.483192067E1,1.594581317E0,3.539272857E-1,-6.764205247E-2,1.634787309E0
1.484195467E1,1.630888433E0,2.348247653E-1,-1.415043730E-1,1.653772426E0
1.485198867E1,1.595655158E0,2.529721838E-1,-2.549511740E-1,1.635576476E0
1.486202267E1,1.533530538E0,3.564591300E-1,-4.084468706E-1,1.626532468E0
1.487205567E1,1.579729974E0,4.266023290E-1,-5.227616908E-1,1.717793970E0
1.488208967E1,1.715957235E0,4.323554045E-1,-6.247969195E-1,1.876649039E0
1.489212367E1,1.847438310E0,4.383137172E-1,-7.434209915E-1,2.039073808E0
1.490215767E1,1.889811913E0,4.667785478E-1,-8.652395435E-1,2.130237251E0
1.491219167E1,1.924810130E0,4.477060997E-1,-1.024756995E0,2.226086630E0
1.492222567E1,1.952997802E0,3.992087084E-1,-1.201161352E0,2.327306727E0
1.493225967E1,2.008434377E0,3.131961662E-1,-1.370742300E0,2.451700418E0
1.494229367E1,2.045473272E0,2.422752875E-1,-1.516775926E0,2.557981124E0
1.495232767E1,1.995703526E0,3.652083188E-1,-1.670991854E0,2.628387996E0
1.496236167E1,2.147313057E0,4.434768087E-1,-1.764187993E0,2.814246670E0
1.497239567E1,2.987924275E0,-5.886625886E-2,-1.662569232E0,3.419838177E0
1.498242967E1,4.134959413E0,-9.915807706E-1,-1.399129947E0,4.476459134E0
1.499246367E1,5.138003942E0,-2.005485626E0,-1.041781748E0,5.613053208E0
1.500249767E1,5.922288639E0,-2.934376059E0,-6.609517157E-1,6.642358222E0
1.501253067E1,6.470864471E0,-3.785299133E0,-3.154420817E-1,7.503337940E0
1.502256467E1,6.615346831E0,-4.417725792E0,5.677646399E-3,7.954819112E0
1.503259867E1,5.878865461E0,-4.244139501E0,2.095359962E-1,7.253804833E0
1.504263267E1,4.181841803E0,-3.277404719E0,-3.968929186E-2,5.313262444E0
1.505266667E1,2.399519256E0,-1.852880899E0,-5.350635016E-1,3.078498536E0
1.506270067E1,8.097434735E-1,-6.334727257E-1,-1.438192272E0,1.767871375E0
1.507273467E1,-1.849810233E0,-7.290308475E-3,-7.964459111E0,8.176457667E0
1.508276867E1,-3.630874752E0,-1.240644675E-1,-1.930529584E1,1.964416175E1
1.509280267E1,-2.681330200E0,-5.854448658E-1,-1.522390189E1,1.546930723E1
1.510283667E1,-1.604493517E0,-1.062946622E0,-6.565660701E0,6.841940909E0
1.511287067E1,-7.243267626E-1,-1.155602186E0,-1.014376799E0,1.699713494E0
1.512290467E1,-1.117304386E0,-1.466661780E0,1.119940018E0,2.157250915E0
1.513293867E1,-1.595567450E0,-2.053045124E0,1.704824721E0,3.109221300E0
1.514297267E1,-1.948977549E0,-2.569878176E0,1.503813819E0,3.558685618E0
1.515300567E1,-3.199166050E0,-3.169051135E0,1.441482500E0,4.728151892E0
1.516303967E1,-5.020792996E0,-3.940897635E0,1.813927917E0,6.635463131E0
1.517307367E1,-5.594435257E0,-4.963845209E0,6.362636018E-1,7.506150576E0
1.518310767E1,-5.274475032E0,-5.604245716E0,-1.571286996E-1,7.697554568E0
1.519314167E1,-5.147933099E0,-5.707853699E0,1.099344370E0,7.764622791E0
1.520317567E1,-5.429743166E0,-5.638599862E0,2.232449394E0,8.140009186E0
1.521320967E1,-5.677771529E0,-5.117226446E0,2.858217244E0,8.160422897E0
1.522324367E1,-5.470718699E0,-3.858102230E0,3.068345125E0,7.363997400E0
1.523327767E1,-5.446649221E0,-2.555540804E0,3.065848364E0,6.752496036E0
1.524331167E1,-5.523122030E0,-1.555226047E0,3.275026656E0,6.606769606E0
1.525334567E1,-5.356262961E0,-7.500779003E-1,3.433938775E0,6.406567355E0
1.526337967E1,-5.097739431E0,-2.313456720E-1,3.546026391E0,6.214078474E0
1.527341367E1,-4.846492175E0,2.511846900E-2,3.617691035E0,6.047876137E0
1.528344767E1,-4.537721767E0,1.366494298E-1,3.550320586E0,5.763190797E0
1.529348167E1,-4.055904180E0,1.084991795E-1,3.285969136E0,5.221084557E0
1.530351467E1,-3.484466904E0,4.022942841E-2,2.600087231E0,4.347824930E0
1.531354867E1,-2.775789045E0,5.231737733E-2,1.434677510E0,3.125066638E0
1.532358267E1,-1.907399753E0,2.899493909E-1,-5.894460424E-1,2.017347541E0
1.533361667E1,-1.499148910E0,6.482316828E-1,-2.052855674E0,2.623331505E0
1.534365067E1,-1.969214762E0,7.374847519E-1,-1.119307861E0,2.382129431E0
1.535368467E1,-2.758905210E0,6.232892150E-1,3.453213537E-1,2.849437530E0
1.536371867E1,-3.753851053E0,3.198526365E-1,1.433384106E0,4.030917195E0
1.537375267E1,-4.707600923E0,-6.533152521E-2,1.988841527E0,5.110896720E0
1.538378667E1,-4.937155593E0,-2.766575003E-1,1.847453513E0,5.278743146E0
1.539382067E1,-4.900239197E0,-3.693861544E-1,1.284338579E0,5.079204259E0
1.540385467E1,-4.900413444E0,-4.099395186E-1,8.637144434E-1,4.992805321E0
1.541388867E1,-4.862112427E0,-4.167813456E-1,6.270331872E-1,4.920062455E0
1.542392267E1,-4.782123687E0,-3.949595368E-1,5.452019888E-1,4.829279988E0
1.543395667E1,-4.557419867E0,-3.594499809E-1,6.053891337E-1,4.611483073E0
1.544398967E1,-4.222001358E0,-3.677395785E-1,7.543598163E-1,4.304600631E0
1.545402367E1,-3.833192507E0,-3.544517809E-1,9.546105802E-1,3.966141982E0
1.546405767E1,-3.350618291E0,-3.723752511E-1,1.154763696E0,3.563535527E0
1.547409167E1,-2.780252810E0,-4.829408365E-1,1.262529634E0,3.091442805E0
1.548412567E1,-2.137447343E0,-6.811930221E-1,1.318284005E0,2.602033396E0
1.549415967E1,-1.513806126E0,-9.183128196E-1,1.387895692E0,2.249702619E0
1.550419367E1,-8.862127751E-1,-1.135140440E0,1.448564063E0,2.042609788E0
1.551422767E1,-3.916003114E-1,-1.256100036E0,1.464249365E0,1.968543702E0
1.552426167E1,1.721420288E-2,-1.307493553E0,1.366997743E0,1.891697267E0
1.553429567E1,4.079923958E-1,-1.316337467E0,1.278221807E0,1.879641750E0
1.554432967E1,9.173351651E-1,-1.237352693E0,1.286550435E0,2.006927381E0
1.555436367E1,1.828026139E0,-1.297855003E0,1.260721090E0,2.572066259E0
1.556439767E1,3.156503010E0,-1.793888340E0,1.108640420E0,3.796133587E0
1.557443167E1,4.682659625E0,-2.927566976E0,7.799893320E-1,5.577305166E0
1.558446567E1,6.073732109E0,-4.431391320E0,3.870486926E-1,7.528429946E0
1.559449867E1,7.661228939E0,-5.188068972E0,2.017054050E-1,9.254791926E0
1.560453267E1,8.801504989E0,-4.211168806E0,6.007239327E-2,9.757255837E0
1.561456667E1,8.829275755E0,-1.866414279E0,-3.088915922E-1,9.029674780E0
1.562460067E1,6.795763839E0,1.069712436E0,-1.304163125E0,7.001966318E0
1.563463467E1,4.025495443E0,2.890891485E0,-2.386568550E0,5.500688738E0
1.564466867E1,2.940489323E0,3.461485593E0,-2.801318281E0,5.336266867E0
1.565470267E1,2.162300641E0,3.652804735E0,-3.055126909E0,5.229945212E0
1.566473667E1,1.177450308E0,3.543515596E0,-3.440956311E0,5.077703452E0
1.567477067E1,4.848496601E-1,2.958737898E0,-3.850637383E0,4.880227187E0
1.568480467E1,1.079670829E-1,2.019374517E0,-4.089194718E0,4.561912293E0
1.569483867E1,-2.483128300E-1,9.456526458E-1,-4.204536309E0,4.316716781E0
1.570487267E1,-6.651389068E-1,-2.264316720E-1,-4.145803659E0,4.204922003E0
1.571490667E1,-9.426457152E-1,-1.446064378E0,-3.973587371E0,4.332329595E0
1.572494029E1,-9.457862547E-1,-2.473683293E0,-3.456894067E0,4.354737335E0
1.573497429E1,-8.240498561E-1,-3.042621469E0,-2.480628031E0,4.011249057E0
1.574500729E1,-7.193887889E-1,-3.026565599E0,-1.345772350E0,3.389501848E0
1.575504129E1,-6.715725982E-1,-2.532918511E0,-4.097202480E-1,2.652273858E0
1.576507529E1,-6.235923931E-1,-1.787298528E0,2.470735127E-1,1.909017764E0
1.577510929E1,-5.892961344E-1,-1.096449414E0,6.654271746E-1,1.411476027E0
1.578514329E1,-6.082963693E-1,-5.716214633E-1,9.028972203E-1,1.229633669E0
1.579517729E1,-6.622866350E-1,-2.815048420E-1,1.060187906E0,1.281353565E0
1.580521129E1,-6.355172047E-1,-1.777220267E-1,1.181971375E0,1.353707342E0
1.581524529E1,-6.484950998E-1,-2.268620270E-1,1.241756816E0,1.419144906E0
1.582527929E1,-7.727656817E-1,-2.863492602E-1,1.303739641E0,1.542368227E0
1.583531329E1,-9.668891484E-1,-2.806803846E-1,1.392280519E0,1.718167962E0
1.584534729E1,-1.165975439E0,-1.771840829E-1,1.496824934E0,1.905617435E0
1.585538129E1,-1.356628876E0,-1.058720255E-1,1.551370393E0,2.063589322E0
1.586541529E1,-1.430439448E0,-1.444817752E-1,1.579721057E0,2.136012785E0
1.587544929E1,-1.531466179E0,-2.216960120E-1,1.519749089E0,2.168911034E0
1.588548229E1,-1.582416477E0,-2.624826801E-1,1.581209319E0,2.252368082E0
1.589551629E1,-1.664933554E0,-2.775427687E-1,1.745401327E0,2.428056737E0
1.590555029E1,-1.780168433E0,-3.222219282E-1,1.995333544E0,2.693358976E0
1.591558429E1,-1.873540866E0,-3.656182086E-1,2.271856704E0,2.967349817E0
1.592561829E1,-1.892638749E0,-4.188191003E-1,2.438948347E0,3.115438960E0
1.593565229E1,-1.766990856E0,-4.824104941E-1,2.493873729E0,3.094249948E0
1.594568629E1,-1.471437493E0,-5.475753736E-1,2.487630656E0,2.941644671E0
1.595572029E1,-1.090903622E0,-4.467547578E-1,2.462764787E0,2.730360951E0
1.596575429E1,-6.209257704E-1,-1.930926025E-1,2.267071928E0,2.358484406E0
1.597578829E1,-1.851792732E-1,2.158558130E-2,1.979413476E0,1.988173788E0
1.598582229E1,1.678212288E-1,1.264308357E-1,1.743392955E0,1.756009031E0
1.599585629E1,5.003941905E-1,1.739295226E-1,1.563123881E0,1.650455117E0
1.600589029E1,8.464207184E-1,1.379071659E-1,1.408014645E0,1.648621139E0
1.601592429E1,1.195587786E0,7.707214952E-2,1.265608193E0,1.742737608E0
1.602595729E1,1.513581885E0,6.181734860E-2,1.149829669E0,1.901804347E0
1.603599129E1,1.842062673E0,1.183698642E-1,1.042081418E0,2.119702809E0
1.604602529E1,2.147113960E0,1.968219566E-1,9.542391358E-1,2.357840022E0
1.605605929E1,2.422424262E0,2.932331872E-1,8.209221804E-1,2.574497666E0
1.606609329E1,2.668459016E0,4.386475933E-1,6.882371628E-1,2.790475878E0
1.607612729E1,2.916864817E0,5.936058247E-1,5.511258030E-1,3.027244273E0
1.608616129E1,3.184033163E0,7.897419029E-1,4.107661687E-1,3.306128900E0
1.609619529E1,3.440512215E0,1.009998330E0,3.124848524E-1,3.599287112E0
1.610622929E1,3.692533641E0,1.201129192E0,2.211899355E-1,3.889272556E0
1.611626329E1,3.981050465E0,1.329753903E0,1.862536991E-1,4.201392470E0
1.612629729E1,4.343321142E0,1.447751300E0,1.488683563E-1,4.580675077E0
1.613633129E1,4.661182802E0,1.482940428E0,1.043862480E-1,4.892507937E0
1.614636529E1,4.858969841E0,1.504531857E0,4.170804307E-2,5.086741942E0
1.615639929E1,4.851689473E0,1.663527006E0,-7.661899030E-3,5.128963984E0
1.616643329E1,4.653944241E0,1.903823011E0,-6.832413018E-2,5.028758022E0
1.617646629E1,4.415249496E0,2.158421305E0,-1.874728435E-1,4.918165991E0
1.618650029E1,4.378499746E0,2.233241107E0,-3.665634111E-1,4.928792408E0
1.619653429E1,4.498041977E0,1.907872208E0,-5.863634634E-1,4.920993812E0
1.620656829E1,4.503588938E0,1.518055882E0,-7.990214342E-1,4.819257436E0
1.621660229E1,4.104499805E0,1.169099314E0,-1.078486183E0,4.401913709E0
1.622663629E1,3.358214701E0,9.518372458E-1,-1.448816224E0,3.779241799E0
1.623667029E1,2.640313151E0,7.113699174E-1,-1.918101619E0,3.340121932E0
1.624670429E1,2.066989564E0,-1.609153748E-2,-4.125974582E0,4.614799133E0
1.625673829E1,7.696815678E-1,-1.518704338E0,-1.135779774E1,1.148470471E1
1.626677229E1,7.377002218E-1,-2.503298855E0,-1.067840040E1,1.099267674E1
1.627680629E1,1.545243680E0,-2.875665920E0,-7.426257994E0,8.112123045E0
1.628684029E1,1.484513329E0,-3.350208401E0,-5.364815683E0,6.496839499E0
1.629687429E1,2.074864009E-1,-4.109019118E0,-4.534620404E0,6.122897265E0
1.630690829E1,-1.424459209E0,-4.769110708E0,-4.644700086E0,6.807843996E0
1.631694129E1,-3.425402133E0,-5.628536219E0,-6.244597106E0,9.077928880E0
1.632697529E1,-5.131227604E0,-6.361777647E0,-7.375759100E0,1.100924765E1
1.633700929E1,-6.487891563E0,-6.820346119E0,-7.992609361E0,1.234875146E1
1.634704329E1,-7.395859489E0,-6.889120485E0,-7.807004703E0,1.277137585E1
1.635707729E1,-7.460170675E0,-6.373589607E0,-5.602002724E0,1.129863821E1
1.636711129E1,-6.810798785E0,-4.905250261E0,-2.765603780E0,8.837252089E0
1.637714529E1,-5.942991291E0,-3.170830443E0,-1.031605108E0,6.814508073E0
1.638717929E1,-5.417162881E0,-1.679943649E0,-2.291640759E-2,5.671718391E0
1.639721329E1,-4.845933766E0,-8.446127594E-1,5.353410982E-1,4.948033435E0
1.640724729E1,-4.146471704E0,-4.952556574E-1,4.827050476E-1,4.203749507E0
1.641728129E1,-3.648172570E0,-2.865773016E-1,-1.221819565E-2,3.659431505E0
1.642731529E1,-3.584066037E0,-1.119706714E-1,-2.229287513E-1,3.592737677E0
1.643734929E1,-3.557276434E0,-1.398075110E-1,1.344844982E-2,3.560048121E0
1.644738329E1,-3.299550464E0,-3.380608660E-1,5.427449888E-1,3.360935961E0
1.645741729E1,-2.796571804E0,-3.973200577E-1,1.360126680E0,3.135063264E0
1.646745029E1,-2.197170804E0,-4.672100723E-1,2.164947383E0,3.119750304E0
1.647748429E1,-1.634741163E0,-4.916678059E-1,2.907050850E0,3.371210547E0
1.648751829E1,-1.125272679E0,-3.647095513E-1,3.403593480E0,3.603290196E0
1.649755229E1,-8.321383095E-1,-1.763701504E-1,3.559107782E0,3.659345406E0
1.650758629E1,-4.667867339E-1,2.011389560E-1,3.703931619E0,3.738643627E0
1.651762029E1,7.782644033E-3,8.493671304E-1,3.614794325E0,3.713249669E0
1.652765429E1,2.422133070E-1,1.498760070E0,3.130088214E0,3.478850566E0
