"Time (s)","Linear Acceleration x (m/s^2)","Linear Acceleration y (m/s^2)","Linear Acceleration z (m/s^2)","Absolute acceleration (m/s^2)"
-3.110874997E-3,4.612017074E0,-1.497442926E1,7.290872147E0,1.728181269E1
6.919125000E-3,2.333834998E0,-2.241476092E1,1.718044983E0,2.260132676E1
1.694812501E-2,3.146183552E-1,-2.888568269E1,-4.489630172E0,2.923419964E1
2.697812500E-2,8.317048846E-1,-3.000516955E1,-3.722552662E0,3.024664165E1
3.700712500E-2,1.772593658E0,-2.658127396E1,-1.330950243E0,2.667353823E1
4.703612500E-2,1.555041567E0,-1.965824313E1,-7.025113126E-1,1.973216155E1
5.706612500E-2,1.149023484E0,-1.343290324E1,-4.696015104E-1,1.349013232E1
6.709512500E-2,6.713597596E-2,-1.007183832E1,-1.097130688E0,1.013164005E1
7.712512500E-2,-1.249464177E0,-8.091755919E0,-3.261133672E0,8.813209825E0
8.715412500E-2,-3.153547535E0,-7.281517771E0,-5.754889287E0,9.802250447E0
9.718412500E-2,-5.176499087E0,-6.299063335E0,-7.104203296E0,1.081406705E1
1.072131250E-1,-5.746770428E0,-4.221407865E0,-6.674161634E0,9.766784949E0
1.172421250E-1,-4.859230919E0,-1.286303828E0,-5.437728124E0,7.405105659E0
1.272721250E-1,-3.846383241E0,1.886926312E0,-4.274712837E0,6.052133903E0
1.373011250E-1,-3.558919794E0,4.487567275E0,-2.788109713E0,6.370064828E0
1.473311250E-1,-3.590129892E0,6.390067061E0,-1.393831201E0,7.460881657E0
1.573601250E-1,-3.543752116E0,7.673790513E0,-2.817504068E-1,8.457223137E0
1.673901250E-1,-3.607084771E0,8.646140376E0,3.659216791E-1,9.375537457E0
1.774191250E-1,-3.875763161E0,9.598696244E0,4.379307246E-1,1.036090213E1
1.874481250E-1,-3.947422543E0,1.031778741E1,-1.885259271E-2,1.104713706E1
1.974781250E-1,-3.773236327E0,1.079049854E1,-9.923233670E-1,1.147418306E1
2.075071250E-1,-3.475822088E0,1.098583881E1,-1.803211725E0,1.166282840E1
2.175371250E-1,-3.189873362E0,1.102509351E1,-1.584042295E0,1.158607652E1
2.275661250E-1,-3.143558152E0,1.093359862E1,-8.743785954E-1,1.141008653E1
2.375961250E-1,-3.074965050E0,1.081200460E1,-2.842214584E-1,1.124436016E1
2.476251250E-1,-2.953527444E0,1.067274381E1,1.901818768E-1,1.107551145E1
2.576551250E-1,-2.795965155E0,1.057123029E1,5.655005980E-1,1.094934345E1
2.676841250E-1,-2.616780740E0,1.051566303E1,9.113142872E-1,1.087461283E1
2.777131250E-1,-2.460180610E0,1.052904731E1,1.230521976E0,1.088244045E1
2.877431250E-1,-2.338257101E0,1.056887270E1,1.540544858E0,1.093351704E1
2.977721250E-1,-2.283938952E0,1.066607915E1,1.820953786E0,1.105881975E1
3.078021250E-1,-2.357905353E0,1.078585702E1,2.041359025E0,1.122771464E1
3.178311250E-1,-2.537607393E0,1.089728040E1,2.278489201E0,1.141847995E1
3.278611250E-1,-2.795736237E0,1.094318689E1,2.519444772E0,1.157225485E1
3.378901250E-1,-3.079536403E0,1.089415330E1,2.749250872E0,1.165008588E1
3.479191250E-1,-3.362544272E0,1.075533573E1,2.939995233E0,1.164592300E1
3.579491250E-1,-3.672390568E0,1.054022368E1,3.053238551E0,1.157173424E1
3.679781250E-1,-3.917059706E0,1.010655441E1,3.027190082E0,1.125387393E1
3.780081250E-1,-3.838181351E0,9.481637326E0,2.814687355E0,1.060921992E1
3.880371250E-1,-3.518082547E0,8.996645871E0,2.597624384E0,1.000320919E1
3.980671250E-1,-3.215069892E0,8.686924705E0,2.458461821E0,9.583494653E0
4.080961250E-1,-3.116594009E0,8.417342920E0,2.382127590E0,9.286514519E0
4.181251250E-1,-3.174197270E0,8.164573635E0,2.207558967E0,9.033775929E0
4.281551250E-1,-3.293616709E0,8.031805587E0,1.812602938E0,8.868108108E0
4.381841250E-1,-3.394347863E0,7.912594893E0,8.408145542E-1,8.650879982E0
4.482141250E-1,-5.495587492E0,5.545275376E0,-1.046272936E1,1.305451135E1
4.582431250E-1,-5.905085546E0,2.604823476E-1,-1.986037904E1,2.072130647E1
4.682731250E-1,-5.837929543E-1,-7.110774397E0,-1.463547202E1,1.628192151E1
4.783021250E-1,9.993218994E-1,-6.054489507E0,-9.168480921E-1,6.204522373E0
4.883321250E-1,1.867378047E0,-7.299639462E0,7.513599608E0,1.064077141E1
4.983611250E-1,8.104509282E0,-2.087834888E1,6.532920971E0,2.332954305E1
5.083895000E-1,1.471731784E1,-3.754829292E1,7.528410605E0,4.102621981E1
5.184195000E-1,2.141727973E1,-5.876492895E1,1.160347202E1,6.361334222E1
5.284485000E-1,2.247403765E1,-7.656928897E1,1.213226964E1,8.071635738E1
5.384785000E-1,1.123335847E1,-5.705721454E1,-1.718266417E1,6.063792560E1
5.485075000E-1,4.888269947E0,-2.714064199E1,-1.634872258E1,3.205916968E1
5.585375000E-1,4.547645661E0,-1.589188897E1,2.113169850E0,1.666429426E1
5.685665000E-1,4.165629229E0,-9.204623730E0,4.907364614E0,1.123208762E1
5.785955000E-1,3.783249976E0,-3.721201955E0,6.870892375E0,8.681560136E0
5.886255000E-1,3.925682010E0,-3.153724998E0,3.416446245E0,6.085151235E0
5.986545000E-1,3.560912525E0,-2.221013995E0,-1.749014468E0,4.546652921E0
6.086845000E-1,2.476887859E0,-1.066029274E-1,-5.363314118E0,5.908593402E0
6.187135000E-1,9.016888931E-1,1.652529563E0,-4.997497104E0,5.340306557E0
6.287435000E-1,-4.899519405E-1,2.994735696E0,-3.215364007E0,4.421205773E0
6.387725000E-1,-1.517408887E0,4.425427160E0,-2.376383286E0,5.247297666E0
6.488015000E-1,-2.397332397E0,5.884722033E0,-2.226258947E0,6.733007123E0
6.588315000E-1,-3.422631137E0,7.324278460E0,-2.820679874E0,8.562458397E0
6.688605000E-1,-4.816085777E0,8.805361812E0,-5.372880748E0,1.138406458E1
6.788905000E-1,-6.926363740E0,1.010427633E1,-9.400391434E0,1.544144663E1
6.889195000E-1,-7.848063852E0,1.017801557E1,-7.330343192E0,1.479587910E1
6.989495000E-1,-7.358303407E0,9.575328432E0,-2.164185491E0,1.226846537E1
7.089785000E-1,-7.045567417E0,9.290724565E0,3.613801467E-1,1.166568381E1
7.190085000E-1,-6.958421685E0,9.216976558E0,1.397691532E0,1.163296311E1
7.290375000E-1,-6.718998669E0,9.279407279E0,1.846945975E0,1.160446259E1
7.390665000E-1,-6.436919045E0,9.465057546E0,1.919677151E0,1.160630869E1
7.490965000E-1,-6.132847459E0,9.674878448E0,1.907659954E0,1.161267658E1
7.591255000E-1,-5.728962733E0,9.858849978E0,1.900290123E0,1.155980274E1
7.691555000E-1,-5.273750562E0,9.999653270E0,1.991997854E0,1.147926679E1
7.791845000E-1,-4.729577098E0,1.003248188E1,2.098024246E0,1.128810426E1
7.892145000E-1,-4.247268054E0,1.001419647E1,2.028271641E0,1.106513907E1
7.992435000E-1,-3.871077494E0,9.955826050E0,1.891119350E0,1.084804340E1
8.092735000E-1,-3.519813323E0,9.905389137E0,1.880989634E0,1.067913582E1
8.193025000E-1,-3.194802565E0,9.875229199E0,2.001755979E0,1.057042772E1
8.293315000E-1,-2.916266647E0,9.818169730E0,2.113674903E0,1.045794863E1
8.393615000E-1,-2.711556504E0,9.731809863E0,2.205477358E0,1.034044449E1
8.493905000E-1,-2.529813055E0,9.647195390E0,2.197090112E0,1.021251869E1
8.594205000E-1,-2.408877725E0,9.575837724E0,2.063509447E0,1.008748885E1
8.694495000E-1,-2.405610301E0,9.495148487E0,1.902495693E0,9.978190997E0
8.794795000E-1,-2.535131682E0,9.420031062E0,1.731572224E0,9.907684907E0
8.895085000E-1,-2.782771790E0,9.318935042E0,1.589820514E0,9.854638422E0
8.995375000E-1,-2.939717490E0,9.273626137E0,1.448022026E0,9.835590905E0
9.095675000E-1,-3.005910018E0,9.247010196E0,1.240816730E0,9.802158883E0
9.195965000E-1,-3.047461794E0,9.292534279E0,9.433350288E-1,9.824871382E0
9.296265000E-1,-3.151008089E0,9.365747266E0,4.750500921E-1,9.893015032E0
9.396555000E-1,-3.666167961E0,9.149246505E0,-1.229968683E0,9.932890923E0
9.496855000E-1,-5.174977056E0,8.179836622E0,-7.726221911E0,1.238485445E1
9.597145000E-1,-6.954944345E0,6.335875651E0,-1.554953684E1,1.817423085E1
9.697445000E-1,-6.268640857E0,4.206947116E0,-1.255034088E1,1.464600009E1
9.797735000E-1,-2.885922521E0,2.879617469E0,2.243296126E0,4.653291638E0
9.898025000E-1,2.284138781E-1,-2.045699852E0,4.150849514E0,4.633207579E0
9.998325000E-1,2.924253359E0,-1.425954166E1,-1.452041402E0,1.462854095E1
1.009861500E0,6.209982759E0,-2.427158635E1,-2.331035643E0,2.516162787E1
1.019891500E0,1.040679256E1,-4.362907911E1,-6.041606337E0,4.525813609E1
1.029920500E0,1.304806407E1,-6.300906260E1,-8.761828122E0,6.493969186E1
1.039950500E0,1.318626418E1,-6.472341946E1,3.118384427E0,6.612656736E1
1.049979500E0,1.008892154E1,-4.026048882E1,3.269225049E0,4.163389401E1
1.060008500E0,8.128868197E0,-1.976841637E1,-1.934748642E-1,2.137536471E1
1.070038500E0,6.696532497E0,-1.145356227E1,4.370374162E-1,1.327473683E1
1.080067500E0,6.019318505E0,-7.196016276E0,1.802935444E0,9.553293763E0
1.090097500E0,6.469496807E0,-6.170402371E0,2.416131634E0,9.260990575E0
1.100126500E0,7.097057998E0,-7.865455810E0,2.639779301E0,1.091796969E1
1.110156500E0,7.030728353E0,-8.978876182E0,2.469324778E0,1.166828709E1
1.120185500E0,5.917081693E0,-7.746347442E0,2.004062998E0,9.951583942E0
1.130215500E0,4.348956981E0,-5.268617876E0,1.521861835E0,6.999130274E0
1.140244500E0,2.632453032E0,-2.402644300E0,1.171910729E0,3.751784023E0
1.150273500E0,9.649268228E-1,2.948283076E-1,8.880774522E-1,1.344131342E0
1.160303500E0,-6.343217415E-1,2.521655604E0,5.704134285E-1,2.662044804E0
1.170332500E0,-2.171791256E0,4.288359654E0,3.026904738E-1,4.816464191E0
1.180362500E0,-3.337430481E0,5.691799584E0,-3.119980717E-1,6.605480112E0
1.190391500E0,-4.266533167E0,6.923244835E0,-1.156712573E0,8.214171187E0
1.200421500E0,-5.473984369E0,8.487522372E0,-4.803087709E0,1.118356796E1
1.210450500E0,-7.384829301E0,1.039358721E1,-1.086336421E1,1.675037434E1
1.220480500E0,-8.898082280E0,1.089196060E1,-8.814755949E0,1.659851187E1
1.230509500E0,-9.534041827E0,1.045382171E1,-4.781861147E0,1.493474265E1
1.240538500E0,-1.002368533E1,1.005020713E1,-2.725586021E0,1.445371060E1
1.250568500E0,-1.013355685E1,9.873940473E0,-1.585162622E0,1.423714913E1
1.260597500E0,-9.874970752E0,9.742820170E0,-1.161737670E0,1.392074806E1
1.270627500E0,-9.563134648E0,9.634636155E0,-1.267223779E0,1.363398747E1
1.280656500E0,-8.753029817E0,9.417476413E0,-1.748074236E0,1.297536730E1
1.290686500E0,-7.368734840E0,8.975061459E0,-2.208360035E0,1.182061062E1
1.300715500E0,-6.205618982E0,8.533521833E0,-2.116159970E0,1.076145133E1
1.310745500E0,-5.315399694E0,7.958430632E0,-1.324791956E0,9.661530198E0
1.320774500E0,-4.817752526E0,7.316437343E0,5.992102347E-2,8.760398697E0
1.330803500E0,-4.631141270E0,7.061227430E0,1.392989202E0,8.558552517E0
1.340833500E0,-4.521721154E0,6.932403914E0,2.394102688E0,8.616026572E0
1.350862500E0,-4.523101389E0,6.706288576E0,2.744203556E0,8.541861963E0
1.360892500E0,-5.091026242E0,6.729055880E0,2.633687671E0,8.839403373E0
1.370921500E0,-5.773892738E0,7.303136682E0,2.648325591E0,9.679218521E0
1.380951500E0,-6.032653080E0,8.139690809E0,2.568273700E0,1.045196151E1
1.390980500E0,-6.000652438E0,8.741994367E0,2.476348454E0,1.088864532E1
1.401010500E0,-5.863735206E0,9.076393706E0,2.500679888E0,1.109133505E1
1.411039500E0,-5.619077178E0,9.289647508E0,2.525536401E0,1.114674451E1
1.421068500E0,-5.225335616E0,9.389591042E0,2.608633522E0,1.105773580E1
1.431098500E0,-4.777423987E0,9.387538669E0,2.676559457E0,1.086800960E1
1.441127500E0,-4.308113887E0,9.361323847E0,2.730938562E0,1.066078116E1
1.451157500E0,-3.855650201E0,9.328712756E0,2.746886258E0,1.046118083E1
1.461186500E0,-3.397912033E0,9.154208452E0,2.614195393E0,1.010838049E1
1.471216500E0,-3.109190557E0,8.766209441E0,2.434957037E0,9.614702786E0
1.481245500E0,-2.848314107E0,8.186179681E0,2.495215080E0,9.019563699E0
1.491275500E0,-2.219831688E0,7.409543728E0,2.547875104E0,8.143749660E0
1.501304500E0,-1.049431222E0,5.661532642E0,2.531280706E0,6.289804429E0
1.511334292E0,2.539252507E0,-6.507383841E-1,2.852428501E0,3.873965938E0
1.521364292E0,9.017387114E0,-1.185750313E1,1.314503195E0,1.495465043E1
1.531393292E0,2.022547216E1,-4.090372464E1,-2.649440304E1,5.276492970E1
1.541423292E0,2.649795113E1,-6.041736613E1,-2.064850652E1,6.912857850E1
1.551452292E0,2.097021331E1,-5.246498444E1,6.358795567E0,5.685735414E1
1.561482292E0,1.330031529E1,-4.651340768E1,8.501789578E0,4.911899742E1
1.571511292E0,6.667578839E0,-3.113354652E1,-1.054872714E0,3.185697856E1
1.581540292E0,5.766405963E0,-1.708838951E1,-1.290365889E0,1.808119293E1
1.591570292E0,6.629615207E0,-1.073793792E1,1.626053224E0,1.272395998E1
1.601599292E0,7.642123747E0,-6.874142842E0,8.786026239E-1,1.031638685E1
1.611629292E0,9.981391246E0,-7.014208800E0,1.538927518E0,1.229616177E1
1.621658292E0,1.190195601E1,-1.146426151E1,1.801285068E0,1.662319093E1
1.631688292E0,1.014923674E1,-1.470836458E1,1.307602311E0,1.791794684E1
1.641717292E0,6.608973366E0,-1.279176189E1,2.185537549E-1,1.439984261E1
1.651747292E0,3.203861949E0,-8.528553454E0,-1.280390539E0,9.200019312E0
1.661776292E0,7.005382428E-1,-5.068269464E0,-1.031501466E0,5.219396944E0
1.671805292E0,-8.346312699E-1,-1.543034602E0,-4.741004312E-1,1.817233161E0
1.681835292E0,-1.737184674E0,1.993219337E0,-1.170604388E0,2.891547777E0
1.691864292E0,-2.738136192E0,4.899990690E0,-2.361062996E0,6.089492347E0
1.701894292E0,-3.857677723E0,7.013937489E0,-3.351487187E0,8.678102493E0
1.711923292E0,-5.344722311E0,8.748223405E0,-4.786085175E0,1.131388884E1
1.721953292E0,-6.978351919E0,9.948665550E0,-5.486147162E0,1.333308488E1
1.731982292E0,-8.345168399E0,1.022888751E1,-4.504235932E0,1.394848080E1
1.742011292E0,-9.392000095E0,9.706570356E0,-3.728584650E0,1.401176353E1
1.752041292E0,-1.007651843E1,9.181417885E0,-2.210132911E0,1.381011751E1
1.762070292E0,-1.066013136E1,8.999670635E0,-7.451212156E-1,1.397095837E1
1.772100292E0,-1.097052613E1,8.997720004E0,4.292581344E-1,1.419491709E1
1.782129292E0,-1.094085618E1,8.934822675E0,1.260398909E0,1.418174868E1
1.792159292E0,-1.017677245E1,8.611908436E0,1.516082447E0,1.341753220E1
1.802188292E0,-9.124775323E0,8.250023090E0,1.532764553E0,1.239652261E1
1.812218292E0,-8.245112014E0,8.094486569E0,1.450566734E0,1.164503022E1
1.822247292E0,-7.712594390E0,8.159803476E0,1.128737154E0,1.128452713E1
1.832276292E0,-7.466526014E0,8.407626017E0,8.294111681E-1,1.127497711E1
1.842306292E0,-7.242726173E0,8.758785231E0,5.420334192E-1,1.137836550E1
1.852335292E0,-6.883281455E0,9.199105128E0,5.504802704E-2,1.148939202E1
1.862365292E0,-6.324784652E0,9.700600934E0,-5.704087508E-1,1.159439199E1
1.872394292E0,-5.659355139E0,1.003430855E1,-9.503094415E-1,1.155935710E1
1.882424292E0,-5.034484252E0,9.985916991E0,-8.026600834E-1,1.121199505E1
1.892453292E0,-4.451029193E0,9.678643470E0,-4.666954442E-1,1.066328303E1
1.902483292E0,-3.972043998E0,9.404586811E0,-4.278626963E-2,1.020907524E1
1.912512292E0,-3.627746200E0,9.252548094E0,4.139595524E-1,9.946936777E0
1.922541292E0,-3.391009980E0,9.177703149E0,7.893882195E-1,9.815921635E0
1.932571292E0,-3.229067541E0,9.073567162E0,1.026474030E0,9.685563854E0
1.942600292E0,-3.066789765E0,9.010621886E0,1.195071477E0,9.592950644E0
1.952630292E0,-2.868309538E0,8.991246552E0,1.298097224E0,9.526529828E0
1.962659292E0,-2.593845913E0,8.992436460E0,1.305161830E0,9.449624200E0
1.972689292E0,-2.207219828E0,9.051177004E0,1.204451580E0,9.393951678E0
1.982718292E0,-1.803897604E0,9.102403291E0,8.618712549E-1,9.319367698E0
1.992748292E0,-1.182568083E0,9.060242527E0,-3.428164065E-1,9.143521478E0
2.002777292E0,-5.350050294E-1,8.721971161E0,-2.537773454E0,9.099412367E0
2.012806292E0,-9.567765351E-1,7.630147480E0,-4.292197766E0,8.806675512E0
2.022836292E0,-2.541649866E0,5.473487356E0,-6.671894084E0,8.996289154E0
2.032865292E0,-2.603452304E0,4.323514869E0,1.184678782E0,5.184034002E0
2.042895292E0,-1.628686225E0,1.944580443E0,5.738939252E0,6.274506806E0
2.052924292E0,-6.670239030E-1,-9.398841922E0,5.726280030E0,1.102603434E1
2.062954292E0,1.405080220E0,-2.662369901E1,4.387272323E0,2.701932194E1
2.072983292E0,2.061382522E0,-4.440523852E1,-3.336776762E0,4.457811778E1
2.083012292E0,4.187583769E0,-6.093113992E1,-6.262101331E0,6.139506155E1
2.093042292E0,7.459587123E0,-6.716310236E1,1.376283853E0,6.759010220E1
2.103071292E0,7.045251667E0,-5.047477467E1,1.273115433E0,5.097998893E1
2.113101292E0,7.506520384E0,-2.475777064E1,-4.998099368E0,2.634911863E1
2.123130292E0,8.177446280E0,-1.300636173E1,-4.357667871E0,1.596951290E1
2.133160292E0,7.822461818E0,-8.109420358E0,-6.859697588E-1,1.128823113E1
2.143189292E0,8.297871441E0,-8.745993862E0,1.763165753E0,1.218424526E1
2.153219292E0,9.023293971E0,-1.151587605E1,3.404727255E0,1.502089887E1
2.163248292E0,8.428084255E0,-1.329171988E1,4.049738292E0,1.625124001E1
2.173277292E0,6.827943991E0,-1.213724679E1,3.282784742E0,1.430769913E1
2.183307292E0,5.027762293E0,-8.889066458E0,1.927780223E0,1.039279716E1
2.193336292E0,2.986461886E0,-4.843913553E0,2.252569664E-1,5.695014821E0
2.203366292E0,1.103788839E0,-8.923552752E-1,-2.124810925E0,2.555282608E0
2.213395292E0,-6.420067370E-2,2.899994431E0,-5.076519300E0,5.846805763E0
2.223425292E0,-7.851892608E-1,5.995630265E0,-6.838846124E0,9.128741466E0
2.233454292E0,-1.687163206E0,8.490708520E0,-8.006544446E0,1.179166675E1
2.243484292E0,-3.111232697E0,1.113953873E1,-1.024569943E1,1.545132514E1
2.253513292E0,-5.073780465E0,1.276720242E1,-1.100297467E1,1.760142487E1
2.263542292E0,-6.739239975E0,1.246674909E1,-8.527093404E0,1.653930199E1
2.273572292E0,-7.683194005E0,1.178222140E1,-5.229608177E0,1.500669894E1
2.283601292E0,-7.936283133E0,1.137292566E1,-2.616496857E0,1.411290487E1
2.293631292E0,-7.642252386E0,1.112008036E1,-6.563674986E-1,1.350892398E1
2.303660292E0,-6.963346210E0,1.092646034E1,5.990408117E-1,1.297052720E1
2.313690292E0,-6.654086974E0,1.058007362E1,1.300571619E0,1.256607806E1
2.323719292E0,-6.724900848E0,1.022516751E1,2.104076114E0,1.241794985E1
2.333749292E0,-6.559332259E0,1.004954990E1,2.671733165E0,1.229456998E1
2.343778292E0,-5.631466259E0,9.779150090E0,2.708063085E0,1.160511932E1
2.353807292E0,-4.717918920E0,9.555981165E0,2.580542328E0,1.096515999E1
2.363837292E0,-4.208297823E0,9.364432812E0,2.565554745E0,1.058227025E1
2.373866292E0,-3.708770482E0,9.123802346E0,2.534977316E0,1.016980126E1
2.383896292E0,-3.444003587E0,8.882518162E0,2.509503336E0,9.851796618E0
2.393925292E0,-3.351008593E0,8.685421970E0,2.512704102E0,9.642587583E0
2.403955292E0,-3.428353222E0,8.660326890E0,2.469654561E0,9.636081222E0
2.413984292E0,-3.712135555E0,8.816575018E0,2.301837133E0,9.839227592E0
2.424013292E0,-4.058519055E0,9.062444004E0,2.118132820E0,1.015312538E1
2.434043292E0,-4.328509268E0,9.213493372E0,1.877567843E0,1.035131458E1
2.444072292E0,-4.519151595E0,9.336183159E0,1.632192947E0,1.050005242E1
2.454102292E0,-4.548824752E0,9.367762216E0,1.409362575E0,1.050871440E1
2.464131292E0,-4.431581647E0,9.283626630E0,1.125330566E0,1.034847854E1
2.474161292E0,-4.189228883E0,9.122872054E0,8.102884340E-1,1.007139516E1
2.484190292E0,-3.951501853E0,8.871877983E0,4.987792261E-1,9.724883884E0
2.494220292E0,-3.739576246E0,8.627826896E0,2.724814554E-1,9.407341473E0
2.504249292E0,-3.591843418E0,8.401555438E0,1.169045885E-1,9.137895797E0
2.514278042E0,-3.462555341E0,8.201291810E0,-4.017384332E-2,8.902364337E0
2.524308042E0,-3.337788038E0,8.064411415E0,-2.791495653E-1,8.732324143E0
2.534337042E0,-3.233923946E0,7.907915366E0,-1.253662916E0,8.635106267E0
2.544367042E0,-4.835447955E0,6.001164654E0,-1.785956007E1,1.945146319E1
2.554396042E0,-6.830546587E0,3.627720764E0,-2.212230424E1,2.343529538E1
2.564426042E0,-5.090015259E0,3.181249596E0,-1.136949218E1,1.285666973E1
2.574455042E0,-1.146993623E0,2.016459095E0,8.111140609E-2,2.321267050E0
2.584485042E0,8.899788205E-1,9.275783175E-1,6.871988143E0,6.991186228E0
2.594514042E0,1.195641142E0,-4.294291654E0,3.781131238E0,5.845293148E0
2.604543042E0,5.600481863E0,-1.845641812E1,-8.604879498E-2,1.928761704E1
2.614573042E0,1.143020265E1,-3.789083217E1,2.734357137E0,3.967167004E1
2.624602042E0,1.405213975E1,-6.071970928E1,4.718580240E0,6.250288574E1
2.634632042E0,1.256064251E1,-7.125090018E1,1.097515478E1,7.317728158E1
2.644661042E0,5.346636690E0,-5.808087489E1,6.553059951E0,5.869341655E1
2.654691042E0,2.856349936E0,-3.202288463E1,-3.484961579E0,3.233834925E1
2.664720042E0,3.573702432E0,-1.694370133E1,-5.779416018E0,1.825546530E1
2.674750042E0,4.793908750E0,-9.928934705E0,-3.881789886E0,1.168903752E1
2.684779042E0,6.785664529E0,-6.630391132E0,-2.487133058E0,9.807811199E0
2.694808042E0,9.274032519E0,-5.524890813E0,-2.221235604E0,1.102116079E1
2.704838042E0,1.099049086E1,-5.138600943E0,-2.101765294E0,1.231314445E1
2.714867042E0,1.052302117E1,-4.398209540E0,-1.915584100E0,1.156493338E1
2.724897042E0,8.707934335E0,-2.363753300E0,-1.302245092E0,9.116539493E0
2.734926042E0,6.461510096E0,4.722030097E-1,-3.514065510E-1,6.488264403E0
2.744956042E0,4.417024126E0,3.663410414E0,-1.065926363E0,5.836683734E0
2.754985042E0,2.402022741E0,6.725271562E0,-3.264051433E0,7.851943873E0
2.765015042E0,7.251073658E-2,9.067247491E0,-4.892219741E0,1.030310870E1
2.775044042E0,-2.886218098E0,1.065636225E1,-5.832135099E0,1.248607669E1
2.785073042E0,-6.432637714E0,1.135775564E1,-5.954417920E0,1.434686495E1
2.795103042E0,-9.601960745E0,1.065361055E1,-3.030041769E0,1.465872508E1
2.805132042E0,-1.148653706E1,9.427309676E0,1.150807469E0,1.490433022E1
2.815162042E0,-1.137253273E1,8.882933899E0,2.204692662E0,1.459800278E1
2.825191042E0,-9.935207598E0,8.778556421E0,1.780197669E0,1.337686460E1
2.835221042E0,-8.478812360E0,8.820351734E0,1.162113646E0,1.228980764E1
2.845250042E0,-7.257448293E0,8.967008674E0,5.043649982E-1,1.154695563E1
2.855279042E0,-6.202933940E0,9.313574899E0,2.950370167E-1,1.119402134E1
2.865309042E0,-4.814341553E0,9.802812603E0,5.423900263E-1,1.093467907E1
2.875338042E0,-3.485217687E0,1.009827358E1,7.276906657E-1,1.070753965E1
2.885368042E0,-2.639758543E0,1.030639820E1,7.617635608E-1,1.066632330E1
2.895397042E0,-2.194267369E0,1.030351670E1,8.028034133E-1,1.056511992E1
2.905427042E0,-2.062976035E0,1.010753206E1,7.950424039E-1,1.034650506E1
2.915456042E0,-2.104986233E0,9.805131608E0,9.421279442E-1,1.007269467E1
2.925486042E0,-2.210329670E0,9.575341296E0,1.062675312E0,9.884432052E0
2.935515042E0,-2.364592960E0,9.536719851E0,1.073364022E0,9.883948387E0
2.945544042E0,-2.467012205E0,9.576175693E0,9.964298666E-1,9.938921602E0
2.955574042E0,-2.492047935E0,9.695185828E0,8.522527313E-1,1.004655493E1
2.965603042E0,-2.537151310E0,9.842108231E0,6.840774536E-1,1.018686375E1
2.975633042E0,-2.625096650E0,9.939985943E0,4.660453069E-1,1.029133865E1
2.985662042E0,-2.816676285E0,9.949429196E0,5.324584208E-2,1.034058227E1
2.995692042E0,-3.216836043E0,9.753662077E0,-8.228505190E-1,1.030335096E1
3.005721042E0,-3.826971947E0,9.360414020E0,-9.471775266E-1,1.015678149E1
3.015751042E0,-4.250329363E0,9.069873476E0,1.140674099E-1,1.001703129E1
3.025780042E0,-4.475158314E0,8.943191795E0,1.021884039E0,1.005246081E1
3.035809042E0,-4.665807657E0,8.798627574E0,1.418115857E0,1.005965511E1
3.045839042E0,-4.779750302E0,8.546733617E0,1.320487236E0,9.881111021E0
3.055868042E0,-4.313673420E0,8.264368064E0,1.053312750E0,9.381738945E0
3.065898042E0,-3.521339739E0,7.900283580E0,2.900862157E-1,8.654389881E0
3.075927042E0,-2.991690759E0,6.905689740E0,-3.024672271E0,8.110943639E0
3.085957042E0,-1.673459379E0,5.093535283E0,-6.361397578E0,8.319371798E0
3.095986042E0,1.105909624E0,2.447852633E0,-3.542914503E0,4.446038887E0
3.106016042E0,5.866924862E0,-6.833311150E0,-6.772394857E0,1.126855273E1
3.116045042E0,1.128171144E1,-2.034991495E1,1.304975742E0,2.330448482E1
3.126074042E0,1.612523381E1,-3.500789758E1,7.956463044E0,3.935583009E1
3.136104042E0,2.175710119E1,-5.827107780E1,2.431320215E0,6.224790179E1
3.146133042E0,1.860129341E1,-7.138109662E1,-1.698722566E0,7.378451551E1
3.156163042E0,7.476101414E0,-5.963230492E1,-8.283294332E-1,6.010482520E1
3.166192042E0,4.032487836E0,-3.425481830E1,1.968074555E0,3.454745797E1
3.176222042E0,5.155521616E0,-1.881070910E1,2.158535911E0,1.962349248E1
3.186251042E0,3.463502882E0,-1.022049208E1,8.637191212E-1,1.082590972E1
3.196280042E0,3.003307130E0,-4.336634851E0,-1.482149885E0,5.479326950E0
3.206310042E0,3.732526842E0,-1.327827246E0,-3.497571684E0,5.284684428E0
3.216339042E0,3.964968575E0,-4.723848581E-1,-3.155490857E0,5.089326655E0
3.226369042E0,3.263846780E0,-1.690593767E-1,-1.365279247E0,3.541929460E0
3.236398042E0,2.263975242E0,6.466318846E-1,5.865579564E-2,2.355240369E0
3.246428042E0,9.129506305E-1,1.947366056E0,5.229445990E-1,2.213410144E0
3.256457042E0,-6.302895015E-1,3.609042419E0,4.618201089E-1,3.692658913E0
3.266486042E0,-2.274480058E0,5.141352643E0,1.508229892E-2,5.622009784E0
3.276516042E0,-4.057412762E0,6.562757558E0,-7.498200381E-1,7.752071670E0
3.286545042E0,-6.056322024E0,8.007546659E0,-2.323389385E0,1.030524033E1
3.296575042E0,-8.530257332E0,9.362107959E0,-5.550248433E0,1.382821801E1
3.306604042E0,-1.014289602E1,1.034583183E1,-6.621673518E0,1.592988186E1
3.316634042E0,-1.006471875E1,1.067597732E1,-4.200948458E0,1.526181585E1
3.326663042E0,-9.675744420E0,1.059550560E1,-1.855431454E0,1.446815105E1
3.336693042E0,-9.141902987E0,1.015955591E1,-3.927972364E-1,1.367279255E1
3.346722042E0,-8.218806560E0,9.570659430E0,7.463031571E-2,1.261554093E1
3.356751042E0,-7.120060945E0,8.705090250E0,3.289140666E-1,1.125086879E1
3.366781042E0,-6.300947308E0,8.338763943E0,6.249328673E-1,1.047031337E1
3.376810042E0,-5.979307762E0,8.383721430E0,9.652817488E-1,1.034266287E1
3.386840042E0,-5.803224126E0,8.376911763E0,1.382802182E0,1.028407520E1
3.396869042E0,-5.638090569E0,8.474210601E0,1.922603098E0,1.035841268E1
3.406899042E0,-5.452802830E0,8.598111931E0,2.322359691E0,1.044288954E1
3.416928042E0,-5.213617212E0,8.711177786E0,2.329763435E0,1.041605590E1
3.426958042E0,-4.876653868E0,8.827393536E0,2.034917586E0,1.028812515E1
3.436987042E0,-4.467159615E0,8.991818410E0,1.691130542E0,1.018175996E1
3.447016042E0,-4.086203867E0,9.087825598E0,1.367208828E0,1.005757904E1
3.457046042E0,-3.885595254E0,9.141151035E0,1.093391905E0,9.992697262E0
3.467075042E0,-3.820009959E0,9.234451547E0,7.781322563E-1,1.002362516E1
3.477105042E0,-3.792457002E0,9.446292077E0,4.942190923E-2,1.017927338E1
3.487134042E0,-4.112618956E0,9.213591605E0,-6.315601015E-1,1.010953872E1
3.497164042E0,-4.786594175E0,8.562139860E0,-1.144621700E0,9.875823086E0
3.507192667E0,-5.395587240E0,8.125334725E0,-1.773930624E0,9.913639892E0
3.517222667E0,-5.807030078E0,7.705782968E0,-2.231641309E0,9.903580788E0
3.527251667E0,-5.781542065E0,7.363831950E0,-2.034286087E0,9.580739508E0
3.537280667E0,-5.376175654E0,7.182032660E0,-1.391402267E0,9.078593396E0
3.547310667E0,-4.947421550E0,7.051459656E0,-6.234698939E-1,8.636479490E0
3.557339667E0,-4.904672556E0,6.753534663E0,1.809993180E-1,8.348580962E0
3.567369667E0,-5.019895449E0,5.918316625E0,-6.269782964E-1,7.785815550E0
3.577398667E0,-5.001183189E0,3.756058377E0,-5.549984139E0,8.361945454E0
3.587428667E0,-3.764204426E0,-4.811966121E-2,-5.988897196E0,7.073785414E0
3.597457667E0,-7.692637843E-1,-8.334400166E0,-6.633307139E0,1.067964215E1
3.607487667E0,4.638150035E0,-1.688548177E1,-2.247928144E0,1.765460595E1
3.617516667E0,1.139553217E1,-2.185634715E1,8.274976083E0,2.600064025E1
3.627545667E0,1.916412534E1,-3.251390106E1,9.884464291E0,3.901435757E1
3.637575667E0,1.863522597E1,-4.001696398E1,1.103090097E1,4.550065746E1
3.647604667E0,8.654964994E0,-4.024685779E1,4.513567504E0,4.141364839E1
3.657634667E0,4.308279656E-1,-3.368550298E1,-1.124865479E1,3.551662932E1
3.667663667E0,6.178223022E0,-2.390575647E1,-6.235346811E0,2.546635392E1
3.677693667E0,1.346180720E1,-1.698843955E1,1.320483727E0,2.171568577E1
3.687722667E0,1.467968750E1,-1.267720208E1,-1.642589296E0,1.946542517E1
3.697751667E0,1.378283220E1,-1.219295556E1,-3.509461412E0,1.873368485E1
3.707781667E0,1.239471373E1,-1.405137143E1,-3.774728537E0,1.911330801E1
3.717810667E0,1.086558615E1,-1.378291640E1,-3.725443525E0,1.794181363E1
3.727840667E0,8.855160209E0,-1.163481192E1,-2.978873370E0,1.492167542E1
3.737869667E0,6.372827715E0,-8.563565996E0,-2.045405152E0,1.086882137E1
3.747899667E0,3.682057770E0,-5.093616559E0,-4.571247947E-1,6.301701528E0
3.757928667E0,1.333325382E0,-2.093901374E0,1.027469226E0,2.686609862E0
3.767957667E0,-2.529952803E-1,3.470275712E-1,1.296603699E0,1.365875506E0
3.777987667E0,-1.772409470E0,2.622141175E0,8.929189467E-1,3.288520019E0
3.788016667E0,-3.297821442E0,4.601302636E0,1.015076363E-1,5.661971036E0
3.798046667E0,-4.832256544E0,6.238779126E0,-6.739372122E-1,7.920054271E0
3.808075667E0,-7.056861899E0,7.419827811E0,-9.429149795E-1,1.028310426E1
3.818105667E0,-9.195350046E0,8.223214191E0,-9.857282925E-1,1.237527270E1
3.828134667E0,-1.130918984E1,8.800857117E0,-1.066619259E0,1.436977862E1
3.838164667E0,-1.328455120E1,9.162059509E0,-9.881198037E-1,1.616783893E1
3.848193667E0,-1.387109475E1,9.281097710E0,-7.721850532E-1,1.670755261E1
3.858222667E0,-1.263715216E1,9.253415236E0,-2.779327780E-1,1.566526587E1
3.868252667E0,-1.061528906E1,9.273533751E0,-1.261074847E-1,1.409605240E1
3.878281667E0,-8.857000912E0,9.465820023E0,-2.386734392E-1,1.296553813E1
3.888311667E0,-7.510111744E0,9.799916477E0,-4.687981761E-1,1.235556203E1
3.898340667E0,-6.224282709E0,1.015891037E1,-9.042526048E-1,1.194833997E1
3.908370667E0,-4.949845805E0,1.045995778E1,-1.429813212E0,1.166001956E1
3.918399667E0,-4.041658024E0,1.066437176E1,-1.702787551E0,1.153097178E1
3.928429667E0,-3.576599435E0,1.068813952E1,-1.559864058E0,1.137811785E1
3.938458667E0,-3.271364545E0,1.056043400E1,-1.235186884E0,1.112431026E1
3.948487667E0,-3.024064161E0,1.045388954E1,-9.822012520E-1,1.092673281E1
3.958517667E0,-2.818727781E0,1.037967668E1,-5.733721928E-1,1.077087136E1
3.968546667E0,-2.680620640E0,1.023326123E1,-8.068346299E-2,1.057884078E1
3.978576667E0,-2.547523686E0,1.004252272E1,1.123156571E-1,1.036121394E1
3.988605667E0,-2.431650583E0,9.802858796E0,2.600494344E-2,1.009998225E1
3.998635667E0,-2.367691107E0,9.543906080E0,-1.265173380E-1,9.834028222E0
4.008664667E0,-2.358589624E0,9.305880548E0,-2.205581439E-1,9.602656075E0
4.018694667E0,-2.524206452E0,9.087925000E0,-1.189825793E-1,9.432717311E0
4.028723667E0,-2.939884428E0,8.898105084E0,2.807868040E-1,9.375395233E0
4.038752667E0,-3.481184862E0,8.780600608E0,8.918127266E-1,9.487514165E0
4.048782667E0,-4.004288177E0,8.736514941E0,1.652939014E0,9.751575488E0
4.058811667E0,-4.364695054E0,8.775596561E0,2.365741061E0,1.008257847E1
4.068841667E0,-4.568195701E0,8.733280261E0,2.870711575E0,1.026545571E1
4.078870667E0,-4.995904908E0,8.464594855E0,3.201204389E0,1.033712443E1
4.088900667E0,-5.690315561E0,7.855055952E0,3.420120635E0,1.028488310E1
4.098929667E0,-6.698481374E0,5.441667393E0,3.016661878E-1,8.635531206E0
4.108959667E0,-7.558361798E0,6.214993823E-1,-4.452115606E0,8.794113254E0
4.118988667E0,-5.303904068E0,-5.742551077E0,-9.212813048E-1,7.871280104E0
4.129017667E0,-2.258788616E0,-1.851734143E1,1.366005617E0,1.870454573E1
4.139047667E0,3.969379422E0,-3.046310009E1,4.454889525E0,3.104194712E1
4.149076667E0,9.854573325E0,-5.006894048E1,5.933020034E0,5.137326292E1
4.159106667E0,1.165363645E1,-6.427651910E1,4.481306076E-1,6.532594409E1
4.169135667E0,1.190034802E1,-5.511300598E1,-1.311668699E1,5.788876565E1
4.179165667E0,8.750976859E0,-3.007150505E1,-1.152640922E1,3.337264031E1
4.189194667E0,6.864259878E0,-1.536029170E1,-4.085796901E0,1.731330012E1
4.199223667E0,7.376729153E0,-1.028909278E1,-6.697810113E-1,1.267794029E1
4.209253667E0,8.332444273E0,-9.901508925E0,3.731307479E-1,1.294637915E1
4.219282667E0,8.768269415E0,-1.144368399E1,1.485601058E0,1.449301426E1
4.229312667E0,8.477316642E0,-1.310867630E1,2.475180180E0,1.580597383E1
4.239341667E0,7.416795444E0,-1.220527213E1,2.366568149E0,1.447681482E1
4.249371667E0,5.921446640E0,-8.873495908E0,1.571406462E0,1.078293922E1
4.259400667E0,4.151216719E0,-4.943528473E0,1.788920546E-1,6.457791912E0
4.269430667E0,2.552347054E0,-1.167880754E0,-9.308381402E-1,2.957174426E0
4.279459667E0,1.174646568E0,2.316003183E0,-1.736662225E0,3.124045612E0
4.289488667E0,-3.537033373E-1,5.056131229E0,-2.621167029E0,5.706144552E0
4.299518667E0,-2.173915842E0,7.039213248E0,-3.079422090E0,7.984940429E0
4.309547667E0,-4.438509135E0,8.150336834E0,-2.185528412E0,9.534405503E0
4.319577667E0,-6.796298275E0,8.651687045E0,-4.565365648E-1,1.101134799E1
4.329606667E0,-9.017356124E0,9.152194671E0,1.418383074E0,1.292622100E1
4.339636667E0,-1.046262528E1,9.325946438E0,2.224999457E0,1.419120951E1
4.349665667E0,-1.142013725E1,9.124757196E0,2.111117331E0,1.476948019E1
4.359695667E0,-1.172092036E1,9.020881995E0,1.692367228E0,1.488692020E1
4.369724667E0,-1.103187862E1,9.209394473E0,9.877426583E-1,1.440454540E1
4.379753667E0,-1.029600770E1,9.512438119E0,6.478972220E-1,1.403260576E1
4.389783667E0,-9.511822407E0,9.791231022E0,3.685494179E-1,1.365572404E1
4.399812667E0,-8.460293058E0,9.967968378E0,-4.802203098E-2,1.307437411E1
4.409842667E0,-7.216188585E0,1.009963949E1,-7.579365581E-1,1.243585796E1
4.419871667E0,-5.819706257E0,1.040422446E1,-1.978200763E0,1.208429335E1
4.429901667E0,-4.631664888E0,1.074509842E1,-2.406109360E0,1.194566122E1
4.439930667E0,-3.859960768E0,1.095965147E1,-2.018924866E0,1.179361332E1
4.449959667E0,-3.374138424E0,1.098190130E1,-1.726882172E0,1.161761973E1
4.459989667E0,-3.122836497E0,1.081527670E1,-1.443341914E0,1.134925345E1
4.470018667E0,-3.049838395E0,1.054610832E1,-1.090962971E0,1.103232138E1
4.480048667E0,-3.204667695E0,1.032785748E1,-7.200068396E-1,1.083757100E1
4.490077667E0,-3.522577302E0,1.011862072E1,-3.628612465E-1,1.072038733E1
4.500107667E0,-3.843602890E0,9.908420334E0,5.592043161E-2,1.062794448E1
4.510137542E0,-3.895307771E0,9.668377513E0,4.270946646E-1,1.043232267E1
4.520167542E0,-3.700220684E0,9.187894261E0,5.530518758E-1,9.920428441E0
4.530196542E0,-3.648317289E0,8.568698097E0,5.447733879E-1,9.328964796E0
4.540225542E0,-4.048810631E0,8.180092145E0,6.709820294E-1,9.151884610E0
4.550255542E0,-4.594372808E0,8.261837974E0,1.030284076E0,9.509348742E0
4.560284542E0,-4.931869125E0,8.571896524E0,1.418809336E0,9.990683812E0
4.570314542E0,-5.230584662E0,8.637049710E0,1.599542094E0,1.022331544E1
4.580343542E0,-5.495007448E0,8.645605940E0,1.665907992E0,1.037867325E1
4.590373542E0,-5.716490622E0,8.688656065E0,1.786479918E0,1.055284415E1
4.600402542E0,-5.817342812E0,8.586410483E0,1.860693948E0,1.053708235E1
4.610432542E0,-5.622265080E0,7.987846220E0,1.696635110E0,9.914339240E0
4.620461542E0,-5.060133648E0,6.497480997E0,1.110815438E0,8.310001370E0
4.630490542E0,-5.542341828E0,-2.576540494E0,-5.869116983E0,8.473644318E0
4.640520542E0,-5.054217435E0,-1.129435896E1,-9.149940569E0,1.538925179E1
4.650549542E0,-1.340122186E0,-1.808699337E1,-2.567828143E-1,1.813839006E1
4.660579542E0,4.590732624E0,-3.811391047E1,2.824771171E0,3.849317250E1
4.670608542E0,1.157198593E1,-5.906658447E1,4.582443611E0,6.036365669E1
4.680638542E0,1.634295488E1,-6.612588115E1,-3.846323599E0,6.822403196E1
4.690667542E0,1.932372275E1,-5.263102665E1,-6.056042528E0,5.639243636E1
4.700696542E0,1.454795908E1,-2.760785324E1,-9.247780859E-2,3.120649333E1
4.710726542E0,1.013736455E1,-1.408375799E1,3.229545844E-1,1.735576846E1
4.720755542E0,8.677771474E0,-7.917770848E0,5.240730751E-1,1.175880375E1
4.730785542E0,7.549476369E0,-6.303299058E0,1.793967862E0,9.997224272E0
4.740814542E0,7.493516761E0,-7.617095325E0,3.446095136E0,1.122713260E1
4.750844542E0,8.125753385E0,-9.698522834E0,5.337558303E0,1.373239753E1
4.760873542E0,8.295464142E0,-1.056838270E1,5.957343282E0,1.469678119E1
4.770903542E0,7.050472646E0,-9.929879615E0,4.570001906E0,1.300755900E1
4.780932542E0,6.370925031E0,-7.417132829E0,4.532458688E0,1.077709269E1
4.790961542E0,5.439720855E0,-3.380275953E0,7.233689886E-1,6.445160292E0
4.800991542E0,4.567135308E0,1.216837737E0,-7.329807002E0,8.721553169E0
4.811020542E0,2.956057827E0,4.800301511E0,-8.951893621E0,1.057911016E1
4.821050542E0,5.805741352E-1,7.017925290E0,-8.026413869E0,1.067762433E1
4.831079542E0,-2.248521344E0,8.356131928E0,-5.959074642E0,1.050672925E1
4.841109542E0,-5.318788741E0,8.956697109E0,-3.283850690E0,1.092225307E1
4.851138542E0,-7.881648504E0,9.517275521E0,-7.549427837E-1,1.238017993E1
4.861168542E0,-9.196427103E0,9.893418717E0,9.213329065E-1,1.353893865E1
4.871197542E0,-9.389193431E0,1.009707139E1,1.196658411E0,1.383979029E1
4.881226542E0,-9.269251251E0,1.010950608E1,1.110060562E0,1.376057289E1
4.891256542E0,-8.948983462E0,1.020292471E1,1.174343097E0,1.362215325E1
4.901285542E0,-9.300658985E0,1.043396574E1,1.377101147E0,1.404515241E1
4.911315542E0,-9.528422068E0,1.074695316E1,1.456454880E0,1.443638078E1
4.921344542E0,-9.127266821E0,1.093286655E1,1.530274808E0,1.432397681E1
4.931374542E0,-8.521202919E0,1.086938684E1,1.624924273E0,1.390664763E1
4.941403542E0,-7.287564962E0,1.039159214E1,1.610705599E0,1.279406748E1
4.951433542E0,-6.007751543E0,9.835706699E0,1.502792895E0,1.162293385E1
4.961462542E0,-5.181537632E0,9.448491799E0,1.476069950E0,1.087663146E1
4.971491542E0,-4.688520874E0,9.225178447E0,1.525760758E0,1.046011908E1
4.981521542E0,-4.364143369E0,9.148330831E0,1.569152945E0,1.025670246E1
4.991550542E0,-4.147924444E0,9.098729485E0,1.583643515E0,1.012423243E1
5.001580542E0,-4.044916093E0,9.071982567E0,1.537751058E0,1.005121347E1
5.011609542E0,-4.008837603E0,9.101171867E0,1.374805530E0,1.003953179E1
5.021639542E0,-3.887694112E0,9.200671012E0,1.229350194E0,1.006368792E1
5.031668542E0,-3.712667067E0,9.361943067E0,4.828911352E-1,1.008281005E1
5.041697542E0,-3.652270299E0,9.435191138E0,-7.373046577E-1,1.014423621E1
5.051727542E0,-3.855437362E0,9.514270636E0,-2.044345636E0,1.046733453E1
5.061756542E0,-4.187286731E0,9.554278455E0,-4.228479488E0,1.125600488E1
5.071786542E0,-4.704785781E0,9.461298371E0,-5.503600516E0,1.191389083E1
5.081815542E0,-5.113045102E0,9.096600514E0,-3.715338367E0,1.107678249E1
5.091845542E0,-5.298565561E0,8.655262617E0,-1.645405315E0,1.028084270E1
5.101874542E0,-5.326321124E0,8.326692951E0,-1.435467323E-1,9.885550965E0
5.111904542E0,-5.199127811E0,8.122168458E0,8.678531027E-1,9.682650436E0
5.121933542E0,-5.146383587E0,8.137595167E0,1.781976392E0,9.791892513E0
5.131962542E0,-5.242386682E0,8.047969630E0,2.360637903E0,9.890654407E0
5.141992542E0,-4.665718487E0,6.992895699E0,1.015231004E0,8.467597844E0
5.152021542E0,-3.944391054E0,4.340891039E0,-1.195514696E0,5.985884328E0
5.162051542E0,-3.359405779E0,-2.326358601E0,-6.128618753E0,7.365970360E0
5.172080542E0,-1.167901074E0,-1.156346303E1,-7.103089986E0,1.362099694E1
5.182110542E0,4.116646226E0,-1.991479322E1,3.542857200E0,2.064213173E1
5.192139542E0,1.301377833E1,-3.733995195E1,5.851063120E0,3.997330832E1
5.202169542E0,2.001533259E1,-5.769070656E1,8.320910640E0,6.162847325E1
5.212198542E0,2.284007102E1,-6.623302085E1,3.935192506E0,7.017098856E1
5.222227542E0,2.116952150E1,-5.468803502E1,-5.101467615E0,5.886386656E1
5.232257542E0,1.385615629E1,-2.971006058E1,-5.862301469E0,3.330236246E1
5.242286542E0,1.037876451E1,-1.480792395E1,-1.857221872E0,1.817808124E1
5.252316542E0,8.836284227E0,-8.274844521E0,-2.355668135E-1,1.210819815E1
5.262345542E0,7.942145551E0,-6.163255904E0,1.817427915E-2,1.005304579E1
5.272375542E0,7.235556318E0,-6.943811831E0,2.508010761E-1,1.003158508E1
5.282404542E0,6.039992505E0,-8.550576407E0,8.828488719E-1,1.050586924E1
5.292433542E0,4.090329370E0,-8.661495164E0,1.728772577E0,9.733496158E0
5.302463542E0,2.058245930E0,-7.004796537E0,2.118501195E0,7.602078541E0
5.312492542E0,3.759183714E-1,-4.785351934E0,2.102503213E0,5.240365208E0
5.322522542E0,-1.291390614E0,-2.358049926E0,1.501341616E0,3.079304437E0
5.332551542E0,-2.759430290E0,1.695306623E-1,3.698755664E-1,2.789265872E0
5.342581542E0,-4.042572821E0,2.735704628E0,-1.271353667E0,5.044087130E0
5.352610542E0,-5.240363545E0,5.322904011E0,-3.699705251E0,8.335618522E0
5.362640542E0,-6.694116427E0,7.460165412E0,-5.745373528E0,1.155311991E1
5.372669542E0,-8.465760790E0,8.652949458E0,-5.195534697E0,1.317331473E1
5.382698542E0,-1.027991032E1,9.003350873E0,-3.505335032E0,1.410759571E1
5.392728542E0,-1.245754206E1,9.121613148E0,-2.000876850E0,1.556912614E1
5.402757542E0,-1.376750548E1,9.158557026E0,-9.965795553E-1,1.656552277E1
5.412787542E0,-1.339315504E1,9.234250987E0,-7.572886866E-1,1.628562186E1
5.422816542E0,-1.292387388E1,9.469610773E0,-5.281164247E-1,1.603056304E1
5.432846542E0,-1.227931659E1,9.722650200E0,-2.633714751E-1,1.566463876E1
5.442875542E0,-1.136513951E1,9.932920167E0,-2.525453188E-1,1.509612792E1
5.452905542E0,-1.013081450E1,9.920539273E0,-1.611363995E-1,1.418014340E1
5.462934542E0,-8.528660458E0,9.588857719E0,5.185720146E-2,1.283304059E1
5.472963542E0,-7.212367430E0,9.285099544E0,2.638047355E-1,1.176014075E1
5.482993542E0,-6.160811183E0,9.041244339E0,5.219528747E-1,1.095317892E1
5.493022542E0,-5.284097210E0,8.805361812E0,7.795695019E-1,1.029872849E1
5.503052542E0,-4.616291681E0,8.630006154E0,1.026488063E0,9.840773996E0
5.513080792E0,-4.022858641E0,8.513289882E0,1.223832761E0,9.495117845E0
5.523110792E0,-3.556482674E0,8.531458935E0,1.237826318E0,9.325587090E0
5.533139792E0,-3.212749424E0,8.627539213E0,9.789420140E-1,9.258213608E0
5.543169792E0,-2.973024692E0,8.735660663E0,5.284760284E-1,9.242831273E0
5.553198792E0,-2.803698682E0,8.828094617E0,1.294772168E-1,9.263516893E0
5.563227792E0,-2.691992013E0,8.888250772E0,-1.274330668E-1,9.287844850E0
5.573257792E0,-2.628691518E0,8.918444039E0,-3.132587314E-1,9.303052951E0
5.583286792E0,-2.632165056E0,8.988477311E0,-3.657141030E-1,9.373087221E0
5.593316792E0,-2.849408414E0,9.028095705E0,-2.468004294E-1,9.470298349E0
5.603345792E0,-3.248543740E0,8.975104728E0,1.037999550E-2,9.544927923E0
5.613375792E0,-3.650511457E0,8.806544119E0,2.953288476E-1,9.537749858E0
5.623404792E0,-3.898623435E0,8.622660881E0,6.087302327E-1,9.482620833E0
5.633433792E0,-3.908038914E0,8.572588250E0,7.701180625E-1,9.452783679E0
5.643463792E0,-3.567854339E0,8.617970830E0,4.966356003E-1,9.340538139E0
5.653492792E0,-3.773451212E0,8.275643250E0,-5.111939979E-1,9.109693988E0
5.663522792E0,-4.754138620E0,6.226532133E0,-7.901983366E0,1.112712351E1
5.673551792E0,-4.266288461E0,4.021069978E0,-5.208401495E0,7.842044831E0
5.683581792E0,-2.644104778E0,2.678841040E0,2.116257033E0,4.318104124E0
5.693610792E0,-1.015464308E0,-3.954211745E0,2.130640014E0,4.605060820E0
5.703640792E0,2.861505426E0,-1.517674059E1,4.246914589E0,1.601742650E1
5.713669792E0,1.064121094E1,-3.626236858E1,8.463980312E0,3.872768658E1
5.723698792E0,1.886056948E1,-6.273462705E1,1.159993445E1,6.652753559E1
5.733728792E0,2.111020267E1,-7.706159646E1,5.520070369E0,8.009120727E1
5.743757792E0,1.563757135E1,-6.689001400E1,-2.939224570E0,6.875642989E1
5.753787792E0,1.041733976E1,-3.798008641E1,-6.202685434E0,3.986829866E1
5.763816792E0,1.023004409E1,-1.625451575E1,-5.977558860E0,2.011452943E1
5.773846792E0,1.064352410E1,-7.169644164E0,-6.184798216E0,1.424570573E1
5.783875792E0,1.097188619E1,-4.531082838E0,-5.278975049E0,1.299155787E1
5.793904792E0,1.004231923E1,-4.201605100E0,-3.065886955E0,1.130934675E1
5.803934792E0,8.253440788E0,-3.963764341E0,-9.959188199E-1,9.209916769E0
5.813963792E0,6.860141684E0,-2.855418182E0,8.222313720E-1,7.476029785E0
5.823993792E0,5.524641137E0,-9.339552909E-1,2.559412830E0,6.159912841E0
5.834022792E0,3.905060927E0,1.189672742E0,2.773011618E0,4.935019302E0
5.844052792E0,2.211295630E0,3.448797135E0,1.524955012E0,4.371443449E0
5.854081792E0,8.415722072E-1,5.858159886E0,-1.045584485E0,6.009952408E0
5.864111792E0,-7.895840281E-1,8.801635966E0,-6.120229753E0,1.074939305E1
5.874140792E0,-3.644786740E0,1.099617786E1,-8.045513214E0,1.410427881E1
5.884169792E0,-6.421777096E0,1.099895646E1,-3.883145270E0,1.331521992E1
5.894199792E0,-7.869338946E0,1.010759521E1,1.641781211E-1,1.281081304E1
5.904228792E0,-8.342248299E0,9.546581765E0,1.859743191E0,1.281362458E1
5.914258792E0,-8.574476901E0,9.614624645E0,2.422741181E0,1.310848336E1
5.924287792E0,-8.908353499E0,9.746370599E0,2.696257557E0,1.347665785E1
5.934317792E0,-9.168169264E0,9.672989212E0,2.635588017E0,1.358559429E1
5.944346792E0,-9.147466612E0,9.882603707E0,2.160809308E0,1.363858858E1
5.954376792E0,-9.429257968E0,1.031217057E1,2.101242553E0,1.413035697E1
5.964405792E0,-8.862135937E0,1.044248630E1,2.132640932E0,1.386113743E1
5.974434792E0,-7.564859224E0,1.023787585E1,2.029975519E0,1.289038392E1
5.984464792E0,-6.500692288E0,9.887279141E0,1.898890300E0,1.198428443E1
5.994493792E0,-5.969512507E0,9.561590983E0,1.859572452E0,1.142440858E1
6.004523792E0,-5.566777343E0,9.239235739E0,1.990469538E0,1.096879465E1
6.014552792E0,-5.084963264E0,8.851927283E0,2.066034275E0,1.041546762E1
6.024582792E0,-4.662676181E0,8.537923617E0,1.968241786E0,9.925253880E0
6.034611792E0,-4.294936602E0,8.402877494E0,1.747845025E0,9.597384686E0
6.044641792E0,-3.982302646E0,8.425454763E0,1.441599298E0,9.430017543E0
6.054670792E0,-3.719624669E0,8.554068949E0,1.129835115E0,9.395968851E0
6.064699792E0,-3.475691696E0,8.753656054E0,7.956515376E-1,9.451983307E0
6.074729792E0,-3.188920266E0,9.005414940E0,5.101567749E-1,9.566972909E0
6.084758792E0,-2.726220151E0,9.324970538E0,-6.561993912E-2,9.715536929E0
6.094788792E0,-2.303593929E0,9.601868944E0,-9.052413690E-1,9.915739717E0
6.104817792E0,-2.120655601E0,9.814359684E0,-1.926900802E0,1.022407858E1
6.114847792E0,-2.287262071E0,1.003225501E1,-2.615708653E0,1.061695060E1
6.124876792E0,-2.908430209E0,1.014264810E1,-2.313176054E0,1.080199334E1
6.134906792E0,-3.416675456E0,1.008869233E1,-8.773771937E-1,1.068761783E1
6.144935792E0,-3.419120176E0,1.002444313E1,7.455013577E-1,1.061770291E1
6.154964792E0,-3.183655141E0,9.999141054E0,1.964914720E0,1.067611220E1
6.164994792E0,-3.316421143E0,9.637628176E0,2.590239351E0,1.051626673E1
6.175023792E0,-4.073039738E0,8.877525224E0,2.740067235E0,1.014436175E1
6.185053792E0,-5.154394273E0,6.932479928E0,4.695910585E-1,8.651449244E0
6.195082792E0,-4.527330680E0,3.804052323E0,-2.958550787E-1,5.920731998E0
6.205112792E0,-2.102516515E0,-4.414660681E0,-2.533130765E0,5.506955248E0
6.215141792E0,2.056671713E0,-1.525888929E1,4.482884824E-1,1.540339454E1
6.225170792E0,9.332040406E0,-2.450777644E1,9.116944731E0,2.776394722E1
6.235200792E0,1.852071644E1,-4.420303712E1,1.187395486E1,4.937525931E1
6.245229792E0,2.500683864E1,-6.739378203E1,1.363188750E1,7.316482893E1
6.255259792E0,2.148632833E1,-7.894169615E1,-1.279611690E0,8.182353636E1
6.265288792E0,1.236117527E1,-5.024776237E1,-1.911345922E1,5.516303654E1
6.275318792E0,1.184412353E1,-1.960818395E1,-1.024163444E1,2.509293160E1
6.285347792E0,1.160502972E1,-6.891801433E0,-7.623413826E0,1.550129285E1
6.295377792E0,1.100240164E1,-2.050543100E0,-6.890804483E0,1.314308774E1
6.305406792E0,9.770214375E0,-1.969127639E0,-3.205801470E0,1.046956139E1
6.315435792E0,7.676133492E0,-2.672248304E0,-1.222162796E0,8.219344152E0
6.325465792E0,5.791287035E0,-3.079404548E0,-1.307683003E-1,6.560399244E0
6.335494792E0,4.098547924E0,-2.799108326E0,6.053809841E-1,4.999958864E0
6.345524792E0,2.355365761E0,-1.796465793E0,1.201720857E0,3.196743692E0
6.355553792E0,6.114895338E-1,-2.515782076E-1,1.671801986E0,1.797813373E0
6.365583792E0,-1.311417620E0,1.156231347E0,1.456534402E0,2.275561374E0
6.375612792E0,-3.557909102E0,2.516027659E0,1.033480164E0,4.478525830E0
6.385641792E0,-5.651101209E0,3.977243342E0,9.205353463E-1,6.971427028E0
6.395671792E0,-8.121559178E0,5.376116597E0,1.184369903E0,9.811477218E0
6.405700792E0,-1.078039105E1,6.330748812E0,1.382560108E0,1.257802385E1
6.415730792E0,-1.317187301E1,6.591105444E0,1.312488245E0,1.478727612E1
6.425759792E0,-1.361860146E1,7.109127821E0,-1.164998333E-2,1.536249133E1
6.435789792E0,-1.277896819E1,7.979337936E0,-1.242625712E0,1.511674504E1
6.445818792E0,-1.179063905E1,8.771838555E0,-7.702303290E-1,1.471589534E1
6.455848792E0,-1.060999266E1,9.458502817E0,1.502746300E-1,1.421470373E1
6.465877792E0,-9.339441227E0,1.016715144E1,5.037879511E-1,1.381484467E1
6.475906792E0,-7.917208346E0,1.076919597E1,6.259315717E-1,1.338094018E1
6.485936792E0,-6.629373132E0,1.103874910E1,4.369577479E-1,1.288384655E1
6.495965792E0,-5.591426865E0,1.103930926E1,2.949732820E-1,1.237810214E1
6.505995792E0,-4.712946155E0,1.085471033E1,1.757135081E-1,1.183501048E1
6.516025125E0,-3.976237329E0,1.066494713E1,1.870336811E-1,1.138360849E1
6.526055125E0,-3.353245153E0,1.049924405E1,7.331202440E-3,1.102172548E1
6.536084125E0,-2.819942540E0,1.030288052E1,-2.444463221E-1,1.068462339E1
6.546114125E0,-2.478153489E0,1.020146290E1,-2.925139614E-1,1.050222141E1
6.556143125E0,-2.449785722E0,1.022419337E1,-1.617246659E-1,1.051483404E1
6.566172125E0,-2.728513429E0,1.018996026E1,1.061117248E-1,1.054947085E1
6.576202125E0,-3.097757789E0,9.978434894E0,4.674931141E-1,1.045867181E1
6.586231125E0,-3.462598026E0,9.624364936E0,8.275891757E-1,1.026171961E1
6.596261125E0,-3.672723567E0,9.193378365E0,1.089580690E0,9.959633038E0
6.606290125E0,-3.756509490E0,8.825486174E0,1.266419202E0,9.674936039E0
6.616320125E0,-3.814810908E0,8.624722610E0,1.394063920E0,9.533207045E0
6.626349125E0,-3.824760822E0,8.536020348E0,1.379226025E0,9.454877215E0
6.636379125E0,-3.815421942E0,8.529611215E0,1.236888424E0,9.425582478E0
6.646408125E0,-3.981387264E0,8.652560034E0,1.031754066E0,9.580331734E0
6.656437125E0,-4.414431763E0,8.645673183E0,8.859794712E-1,9.747811662E0
6.666467125E0,-4.868377427E0,8.162640545E0,6.372798479E-1,9.525540669E0
6.676496125E0,-5.597516155E0,6.153259504E0,-4.876545110E0,9.642379470E0
6.686526125E0,-6.740434561E0,5.194871038E-1,-1.511431103E1,1.655734650E1
6.696555125E0,-4.376246229E0,-2.358973201E0,-3.260629642E0,5.945417671E0
6.706585125E0,-1.526290223E0,-7.128510171E0,2.275260953E0,7.636886245E0
6.716614125E0,2.662851537E0,-1.902150473E1,3.784390476E0,1.957626195E1
6.726643125E0,9.836786095E0,-4.004893188E1,7.822891588E0,4.197471785E1
6.736673125E0,1.559705833E1,-6.094447625E1,1.160263119E1,6.396966831E1
6.746702125E0,1.705367108E1,-6.804103606E1,2.294888887E0,7.018316608E1
6.756732125E0,1.022950849E1,-5.149525413E1,-1.438451771E1,5.443637012E1
6.766761125E0,5.215970716E0,-2.604587716E1,-1.124608552E1,2.884559771E1
6.776791125E0,6.190485803E0,-1.216961815E1,-5.468057047E0,1.470786756E1
6.786820125E0,7.978496522E0,-5.140188462E0,-7.178899137E0,1.190019063E1
6.796850125E0,9.167047768E0,-2.892491283E0,-5.701189628E0,1.117608311E1
6.806879125E0,9.395566896E0,-2.837174869E0,-2.876168781E0,1.022734498E1
6.816908125E0,8.594377899E0,-2.868204288E0,-1.275625643E0,9.149707542E0
6.826938125E0,7.499648151E0,-2.467009281E0,3.171284187E-1,7.901356062E0
6.836967125E0,6.357366507E0,-1.755037685E0,8.064883286E-1,6.644297525E0
6.846997125E0,4.692913010E0,-9.019441241E-1,3.345513672E-1,4.790496878E0
6.857026125E0,2.447559395E0,-7.373338938E-3,-1.554148990E-1,2.452499776E0
6.867056125E0,3.667645553E-1,1.145664843E0,-5.626085651E-1,1.328003227E0
6.877085125E0,-1.827112804E0,2.729382618E0,-1.422295446E0,3.579217095E0
6.887114125E0,-4.266241391E0,4.167391872E0,-1.649396040E0,6.187768412E0
6.897144125E0,-7.105594933E0,5.049890496E0,-1.947215637E-1,8.719448942E0
6.907173125E0,-9.577608846E0,5.718003296E0,1.554537245E0,1.126244818E1
6.917203125E0,-1.126141458E1,6.299437557E0,2.860112327E0,1.321675506E1
6.927232125E0,-1.276600725E1,6.978541954E0,3.438295535E0,1.494967776E1
6.937262125E0,-1.285513870E1,8.110316151E0,3.131711401E0,1.551900239E1
6.947291125E0,-1.209854641E1,9.383014094E0,2.274275113E0,1.547863386E1
6.957321125E0,-1.051636119E1,1.035467048E1,1.230533085E0,1.480970172E1
6.967350125E0,-8.964882041E0,1.103294515E1,6.111936647E-1,1.422914426E1
6.977379125E0,-7.430897174E0,1.141736099E1,2.771720552E-1,1.362538767E1
6.987409125E0,-5.898101047E0,1.150934705E1,1.094399965E-1,1.293308326E1
6.997438125E0,-4.860926904E0,1.144295075E1,1.878266001E-1,1.243402634E1
7.007468125E0,-3.926864902E0,1.132468847E1,4.293668926E-1,1.199388147E1
7.017497125E0,-3.149528159E0,1.115819602E1,8.035758305E-1,1.162198779E1
7.027527125E0,-2.488311272E0,1.085444135E1,1.152694366E0,1.119550331E1
7.037556125E0,-1.843099676E0,1.051160507E1,1.496530527E0,1.077638442E1
7.047586125E0,-1.226888808E0,1.025854225E1,1.794843775E0,1.048639163E1
7.057615125E0,-6.566975740E-1,9.963360772E0,1.965224622E0,1.017653759E1
7.067644125E0,-2.533946452E-1,9.593962923E0,1.931159914E0,9.789673745E0
7.077674125E0,-1.328127792E-1,9.119835595E0,1.601861246E0,9.260399558E0
7.087703125E0,-4.091340646E-1,8.694600345E0,1.042315307E0,8.766406735E0
7.097733125E0,-1.112861086E0,8.430081664E0,3.250899875E-1,8.509431248E0
7.107762125E0,-2.031157095E0,8.339925200E0,-5.474840840E-1,8.601144710E0
7.117792125E0,-3.136661654E0,8.206451393E0,-2.207369517E0,9.058530288E0
7.127821125E0,-4.667006044E0,7.913989454E0,-5.354696492E0,1.063414073E1
7.137851125E0,-5.816152904E0,7.775000553E0,-5.921013361E0,1.137262799E1
7.147880125E0,-5.806247721E0,7.999933584E0,-3.567295053E0,1.050890308E1
7.157909125E0,-5.542083966E0,8.135511219E0,-1.922467443E0,1.002981149E1
7.167939125E0,-5.966656727E0,7.344555434E0,-3.293661733E0,1.001956559E1
7.177968125E0,-6.171872361E0,5.037604326E0,-3.454405199E0,8.683454443E0
7.187998125E0,-3.202431720E0,2.940192869E0,2.705517207E0,5.120559187E0
7.198027125E0,-4.055753030E-1,-2.903930776E0,3.522897145E0,4.583460436E0
7.208057125E0,2.229542159E0,-1.545667019E1,2.578875872E0,1.582814305E1
7.218086125E0,7.012343538E0,-2.866712079E1,5.058434447E0,2.994268751E1
7.228115125E0,1.108944914E1,-5.300308733E1,5.630637124E0,5.444269669E1
7.238145125E0,1.384319418E1,-7.088536500E1,3.102223892E0,7.229102842E1
7.248174125E0,1.280596712E1,-6.091017882E1,-3.791083199E0,6.235715668E1
7.258204125E0,8.671751765E0,-3.317580821E1,-6.443982482E0,3.489066407E1
7.268233125E0,6.581160500E0,-1.530617923E1,-5.469084402E0,1.753572583E1
7.278263125E0,6.166438544E0,-7.182555401E0,-4.261740789E0,1.038154617E1
7.288292125E0,6.461022438E0,-3.340941734E0,-3.267586659E0,7.973946651E0
7.298322125E0,6.401362127E0,-2.831675563E0,-1.790265405E0,7.225017218E0
7.308351125E0,6.114559708E0,-3.478097532E0,2.160371498E-1,7.037874318E0
7.318380125E0,5.572992933E0,-3.768079083E0,2.400263314E0,7.142683962E0
7.328410125E0,4.544944832E0,-3.477308158E0,3.699709929E0,6.814400129E0
7.338439125E0,3.221748874E0,-2.331441001E0,3.890992234E0,5.563731078E0
7.348469125E0,1.984340925E0,-6.289803100E-1,3.333833274E0,3.930352329E0
7.358498125E0,4.474815667E-1,1.167841578E0,2.589195038E0,2.875417300E0
7.368528125E0,-1.229323881E0,2.787030902E0,1.912347082E0,3.596644244E0
7.378557125E0,-2.934119073E0,4.174367015E0,1.438371781E0,5.301255332E0
7.388587125E0,-4.515802017E0,5.523834221E0,9.477354240E-1,7.197458913E0
7.398616125E0,-6.199363046E0,6.822822999E0,6.099780285E-1,9.238781795E0
7.408645125E0,-7.931736338E0,8.019232904E0,2.970888412E-1,1.128312011E1
7.418675125E0,-9.436301524E0,9.082204084E0,1.735991549E-1,1.309810498E1
7.428704125E0,-9.954398160E0,9.808777932E0,-3.585862557E-2,1.397510118E1
7.438734125E0,-9.652290654E0,1.020723410E1,-1.118549148E-1,1.404873142E1
7.448763125E0,-9.254116902E0,1.050065440E1,1.238440275E-3,1.399651471E1
7.458793125E0,-9.142854913E0,1.084867600E1,5.903385468E-3,1.418751570E1
7.468822125E0,-8.504380479E0,1.126053282E1,-3.249332821E-1,1.411487401E1
7.478851125E0,-7.588862629E0,1.162084994E1,-5.941859781E-1,1.389201376E1
7.488881125E0,-6.928191580E0,1.183572109E1,-5.370211494E-1,1.372488703E1
7.498910125E0,-6.309400628E0,1.178203312E1,-4.344386578E-1,1.337211942E1
7.508940125E0,-5.655486621E0,1.141530160E1,-4.872694572E-1,1.274876743E1
7.518968875E0,-4.765589223E0,1.063188463E1,-6.887984955E-1,1.167142900E1
7.528998875E0,-4.064799550E0,9.944509349E0,-1.007304518E0,1.079029768E1
7.539027875E0,-3.611932405E0,9.541754304E0,-1.310769163E0,1.028636217E1
7.549057875E0,-3.322069845E0,9.244387136E0,-1.417693688E0,9.924953247E0
7.559086875E0,-3.170176724E0,8.906391174E0,-1.144590125E0,9.522810024E0
7.569115875E0,-3.240412602E0,8.504658807E0,-5.039632579E-1,9.115013671E0
7.579145875E0,-3.547967959E0,8.192167815E0,2.258732629E-1,8.930325239E0
7.589174875E0,-3.917668109E0,8.136784742E0,9.570138589E-1,9.081369108E0
7.599204875E0,-4.307108166E0,8.266396464E0,1.595309880E0,9.456717446E0
7.609233875E0,-4.758812007E0,8.501001374E0,2.067115864E0,9.959231098E0
7.619263875E0,-5.145695370E0,8.859347400E0,2.482608483E0,1.054180070E1
7.629292875E0,-5.310897923E0,9.164198420E0,2.822058063E0,1.096139504E1
7.639322875E0,-5.405241578E0,9.303676148E0,3.081038260E0,1.119231089E1
7.649351875E0,-5.689572380E0,9.061121948E0,3.305584205E0,1.119830575E1
7.659380875E0,-6.150400801E0,8.172290205E0,3.346880751E0,1.076175487E1
7.669410875E0,-5.682627642E0,6.679815892E0,2.929562631E0,9.246325458E0
7.679439875E0,-4.623439609E0,3.549230665E0,1.819964583E0,6.106185652E0
7.689469875E0,-2.939177207E0,-6.641216667E0,-8.366932905E-1,7.310579809E0
7.699498875E0,-5.558129311E-2,-1.958164227E1,-2.906519923E0,1.979625372E1
7.709528875E0,5.375650574E0,-3.095935563E1,7.886794639E-1,3.143248853E1
7.719557875E0,1.308460098E1,-5.150331861E1,1.799480617E0,5.316988566E1
7.729586875E0,1.980739625E1,-7.198248041E1,3.059201249E0,7.472060723E1
7.739616875E0,2.220460497E1,-6.619493910E1,-1.379855770E0,6.983350519E1
7.749645875E0,1.714766391E1,-3.927163110E1,-4.463353370E0,4.308392867E1
7.759675875E0,1.155688959E1,-1.853991402E1,-3.779115703E0,2.217141909E1
7.769704875E0,8.956428137E0,-1.010792265E1,-2.673638772E0,1.376720922E1
7.779734875E0,6.740815215E0,-6.601954368E0,-1.210282423E0,9.512579818E0
7.789763875E0,4.960866637E0,-4.884582108E0,2.783263230E-4,6.961992548E0
7.799792875E0,3.760814210E0,-3.170975454E0,1.182974757E0,5.059470143E0
7.809822875E0,2.894723458E0,-1.492297143E0,1.841572968E0,3.741358798E0
7.819851875E0,2.149527690E0,3.057403815E-1,2.029632288E0,2.972095842E0
7.829881875E0,1.363496723E0,1.929331489E0,1.588725330E0,2.847014486E0
7.839910875E0,3.664879820E-1,3.496138532E0,7.140520352E-1,3.587083548E0
7.849940875E0,-9.464978608E-1,5.240110946E0,-6.441625323E-1,5.363726903E0
7.859969875E0,-2.326009815E0,7.211127235E0,-3.245844373E0,8.242947492E0
7.869999875E0,-3.993161510E0,9.111667035E0,-6.178298451E0,1.171064416E1
7.880028875E0,-5.737604333E0,1.010782676E1,-6.172420830E0,1.316005487E1
7.890057875E0,-6.661891252E0,1.025018190E1,-3.815889426E0,1.280656223E1
7.900087875E0,-7.247932534E0,1.023933415E1,-1.458424222E0,1.262946915E1
7.910116875E0,-8.131319350E0,1.032779433E1,-5.423411289E-2,1.314475681E1
7.920146875E0,-9.049552063E0,1.036262737E1,8.251754451E-1,1.378257425E1
7.930175875E0,-9.677054781E0,1.036111528E1,1.309793848E0,1.423775470E1
7.940205875E0,-9.803628874E0,1.038533211E1,1.476158828E0,1.435776121E1
7.950234875E0,-9.665193120E0,1.047527281E1,1.471997949E0,1.432878489E1
7.960264875E0,-9.310324432E0,1.056533864E1,1.323173447E0,1.414423238E1
7.970293875E0,-8.689359486E0,1.053791988E1,1.073787360E0,1.370057455E1
7.980322875E0,-7.818555293E0,1.034880689E1,8.247673094E-1,1.299645536E1
7.990352875E0,-6.588037995E0,9.878557434E0,6.795189643E-1,1.189327069E1
8.000381875E0,-5.532022077E0,9.369723957E0,5.920481265E-1,1.089704163E1
8.010411875E0,-4.799738424E0,9.006783189E0,5.472654712E-1,1.022052503E1
8.020440875E0,-4.282597515E0,8.675439604E0,5.619291917E-1,9.691215518E0
8.030470875E0,-3.892332123E0,8.443989267E0,6.331832886E-1,9.319448759E0
8.040499875E0,-3.622422017E0,8.380054641E0,6.532988799E-1,9.152816861E0
8.050528875E0,-3.457256886E0,8.468603706E0,5.984975688E-1,9.166682783E0
8.060558875E0,-3.320104888E0,8.640714160E0,5.580710892E-1,9.273428762E0
8.070587875E0,-3.143066986E0,8.803512923E0,5.839614272E-1,9.365987444E0
8.080617875E0,-2.988493501E0,8.920445541E0,6.763778400E-1,9.432016171E0
8.090646875E0,-2.890827166E0,8.981952403E0,8.151755369E-1,9.470842720E0
8.100676875E0,-2.871680751E0,9.015689083E0,9.260691512E-1,9.507197486E0
8.110705875E0,-3.089043683E0,9.034867365E0,9.251780355E-1,9.593069039E0
8.120735875E0,-3.627108561E0,9.114698231E0,7.662448668E-1,9.839754649E0
8.130764875E0,-4.183329335E0,8.998402374E0,2.855511335E-1,9.927387827E0
8.140793875E0,-5.053997580E0,8.355554223E0,-1.174260067E0,9.835500222E0
8.150823875E0,-6.417008691E0,7.539211582E0,-2.296793325E0,1.016331498E1
8.160852875E0,-6.441862282E0,6.450356532E0,-9.366151893E-1,9.164165922E0
8.170882875E0,-4.288380119E0,5.501507213E0,3.217968357E-1,6.982860364E0
8.180911875E0,-2.314186891E0,4.170468092E-2,-5.875046060E0,6.314536124E0
8.190941875E0,9.978434309E-2,-6.146248693E0,-6.310904531E0,8.809872071E0
8.200970875E0,6.680912245E0,-1.191168577E1,4.353943194E0,1.433456200E1
8.210999875E0,1.761379926E1,-2.701115190E1,5.566398443E0,3.272358542E1
8.221029875E0,2.684305614E1,-5.015252292E1,9.251875080E0,5.763178299E1
8.231058875E0,2.900196043E1,-7.108829613E1,1.101056669E1,7.756218237E1
8.241088875E0,2.055670056E1,-6.867588464E1,-7.428239030E0,7.207033928E1
8.251117875E0,1.159148523E1,-4.231721184E1,-1.285944458E1,4.572170451E1
8.261147875E0,1.075944749E1,-1.875548449E1,-4.050592570E0,2.199866380E1
8.271176875E0,8.736287484E0,-8.737240580E0,-3.903200051E0,1.295750989E1
8.281206875E0,7.493247789E0,-3.403151430E0,-5.341703979E0,9.811422093E0
8.291235875E0,6.900827195E0,-1.335395882E0,-4.855071210E0,8.542623402E0
8.301264875E0,6.569238612E0,-1.150292915E0,-4.142880929E0,7.851212143E0
8.311294875E0,5.920932085E0,-1.380701863E0,-2.942795464E0,6.754540660E0
8.321323875E0,4.547931298E0,-1.223608228E0,-1.181089030E0,4.855498685E0
8.331353875E0,2.669240204E0,-4.230554080E-1,8.130418879E-1,2.822207692E0
8.341382875E0,8.621897820E-1,7.346652246E-1,1.658410692E0,2.008340169E0
8.351412875E0,-6.399599192E-1,1.743425699E0,1.464045151E0,2.364848847E0
8.361441875E0,-2.262657280E0,2.927803203E0,1.044255413E0,3.844752129E0
8.371470875E0,-4.245204279E0,3.987847853E0,7.429963374E-1,5.871689146E0
8.381500875E0,-6.348617318E0,4.555653423E0,1.010179009E0,7.879046998E0
8.391529875E0,-8.794263212E0,5.129211484E0,1.839255717E0,1.034556608E1
8.401559875E0,-1.122665639E1,5.872908903E0,2.487929449E0,1.291195824E1
8.411588875E0,-1.277695441E1,6.611875924E0,2.466094192E0,1.459620114E1
8.421618875E0,-1.326553371E1,7.515660167E0,1.690371573E0,1.534004200E1
8.431647875E0,-1.260016501E1,8.373291752E0,4.350174956E-1,1.513490711E1
8.441677875E0,-1.206140958E1,9.201980789E0,-5.803917751E-1,1.518192695E1
8.451706875E0,-1.100533460E1,9.878873184E0,-1.323944110E0,1.484797471E1
8.461735875E0,-9.636216658E0,1.049399793E1,-2.317910544E0,1.443445092E1
8.471765875E0,-8.216530824E0,1.095989238E1,-3.005667651E0,1.402371769E1
8.481794875E0,-6.919793808E0,1.121372235E1,-3.253490192E0,1.357263105E1
8.491824875E0,-5.961579005E0,1.121958009E1,-3.063063920E0,1.306911482E1
8.501853875E0,-5.197351427E0,1.114219219E1,-2.516383755E0,1.254962533E1
8.511883500E0,-4.474363385E0,1.106688122E1,-1.848381466E0,1.207941645E1
8.521912500E0,-4.079933313E0,1.085042081E1,-1.271440791E0,1.166164865E1
8.531941500E0,-3.754154816E0,1.061408805E1,-7.731784952E-1,1.128496116E1
8.541971500E0,-3.494624395E0,1.037075383E1,-5.772125709E-1,1.095892828E1
8.552000500E0,-3.243278614E0,1.016363960E1,-6.376365280E-1,1.068760995E1
8.562030500E0,-3.091598332E0,1.001657394E1,-8.749563003E-1,1.051928145E1
8.572059500E0,-3.204339959E0,9.784221965E0,-1.038679508E0,1.034783307E1
8.582089500E0,-3.455306255E0,9.470893067E0,-9.544807720E-1,1.012659816E1
8.592118500E0,-3.613012970E0,9.221714557E0,-5.249571741E-1,9.918138037E0
8.602148500E0,-3.660293849E0,9.065855269E0,1.490642746E-1,9.778021425E0
8.612177500E0,-3.626321526E0,9.097270020E0,8.867232370E-1,9.833453500E0
8.622206500E0,-3.465789143E0,9.258812801E0,1.556996584E0,1.000807410E1
8.632236500E0,-3.284125216E0,9.377739905E0,2.030200052E0,1.014145928E1
8.642265500E0,-3.440711897E0,9.274062924E0,2.578294659E0,1.022224754E1
8.652295500E0,-4.030346878E0,8.813174862E0,3.220506048E0,1.021212056E1
8.662324500E0,-4.198285051E0,7.506679428E0,3.674732963E0,9.353047405E0
8.672354500E0,-3.087585973E0,5.646377828E0,3.791443387E0,7.469257840E0
8.682383500E0,-2.214755720E0,1.568006306E0,2.615366006E0,3.768809629E0
8.692412500E0,-2.047833062E0,-4.188545929E0,-1.623090001E0,4.936796370E0
8.702442500E0,-6.117721005E-1,-1.335833253E1,-4.005026972E-1,1.337833007E1
8.712471500E0,4.660337879E0,-3.005308398E1,3.431588194E0,3.060526757E1
8.722501500E0,1.062546673E1,-5.272999429E1,9.119428629E0,5.455746346E1
8.732530500E0,1.507865237E1,-6.727448480E1,9.388491765E0,6.957992412E1
8.742560500E0,1.644770074E1,-6.508100710E1,3.668592802E0,6.722739708E1
8.752589500E0,1.146319498E1,-4.446114726E1,-2.278469905E0,4.597162037E1
8.762618500E0,7.944731190E0,-2.100098136E1,-6.854505553E0,2.347646094E1
8.772648500E0,8.396040929E0,-8.333161726E0,-1.018926678E1,1.561269500E1
8.782677500E0,8.571514117E0,-3.281097236E0,-9.990362045E0,1.356627388E1
8.792707500E0,8.206305213E0,-3.532909917E0,-6.689215291E0,1.116111549E1
8.802736500E0,7.880055723E0,-5.431293263E0,-4.293360193E0,1.048938351E1
8.812766500E0,6.850551665E0,-6.602791690E0,-2.744559066E0,9.902500729E0
8.822795500E0,5.319201554E0,-5.850994708E0,-1.196108188E0,7.997419524E0
8.832824500E0,3.724759401E0,-3.597397104E0,2.999388198E-2,5.178416568E0
8.842854500E0,2.191812415E0,-1.429189898E0,7.424139547E-1,2.719890422E0
8.852883500E0,5.761033541E-1,5.956704766E-1,1.257349001E0,1.505870148E0
8.862913500E0,-1.012226997E0,2.712349679E0,1.223904097E0,3.143148980E0
8.872942500E0,-2.254465331E0,4.768041252E0,6.099025995E-1,5.309313750E0
8.882972500E0,-3.484947253E0,6.663519117E0,-4.904346281E-1,7.535772721E0
8.893001500E0,-4.863900506E0,8.193185230E0,-1.327083480E0,9.620133207E0
8.903031500E0,-6.960116208E0,9.275241138E0,-7.115891880E-1,1.161807536E1
8.913060500E0,-9.746375277E0,9.738525975E0,7.085264164E-1,1.379611282E1
8.923089500E0,-1.117409226E1,9.955265887E0,1.341961720E0,1.502559543E1
8.933119500E0,-1.091239896E1,1.029280927E1,1.133492694E0,1.504350954E1
8.943148500E0,-1.057957895E1,1.061718005E1,6.534707880E-1,1.500263401E1
8.953178500E0,-1.009271639E1,1.081787287E1,1.927224737E-1,1.479616299E1
8.963207500E0,-9.367367529E0,1.102720085E1,-1.960711741E-1,1.447014778E1
8.973237500E0,-8.703126170E0,1.126308688E1,-5.258137912E-1,1.424352525E1
8.983266500E0,-7.639347489E0,1.139090234E1,-6.877793258E-1,1.373263728E1
8.993295500E0,-6.339247155E0,1.140477895E1,-7.810301363E-1,1.307153570E1
9.003325500E0,-5.216087660E0,1.142627800E1,-8.112005997E-1,1.258671703E1
9.013354500E0,-4.368649234E0,1.142644289E1,-6.761217320E-1,1.225176860E1
9.023384500E0,-3.611273716E0,1.128551446E1,-2.963404341E-1,1.185293011E1
9.033413500E0,-2.839589769E0,1.081129358E1,-4.890614826E-2,1.117809155E1
9.043443500E0,-2.443565162E0,1.049194556E1,-2.025709756E-1,1.077464465E1
9.053472500E0,-2.355342957E0,1.037455101E1,-2.954305708E-1,1.064266077E1
9.063502500E0,-2.414039062E0,1.037275358E1,-1.508733666E-1,1.065102643E1
9.073531500E0,-2.685407171E0,1.044394810E1,3.484133613E-1,1.078929356E1
9.083560500E0,-3.312547070E0,1.055141525E1,1.075355510E0,1.111133301E1
9.093590500E0,-4.033416958E0,1.053864727E1,1.724378979E0,1.141512249E1
9.103619500E0,-4.669030057E0,1.034555818E1,2.199989161E0,1.156159020E1
9.113649500E0,-5.162544122E0,9.995577761E0,2.606936660E0,1.154814077E1
9.123678500E0,-5.489521590E0,9.561265878E0,2.882398989E0,1.139565165E1
9.133708500E0,-5.757785997E0,9.078729669E0,3.114598939E0,1.119268326E1
9.143737500E0,-6.034361637E0,8.435806673E0,3.291205902E0,1.088156197E1
9.153766500E0,-6.191890304E0,7.513420683E0,3.348824365E0,1.029590309E1
9.163796500E0,-5.645006071E0,5.596998092E0,2.984230589E0,8.491060793E0
9.173825500E0,-5.009361105E0,1.530505773E0,3.598318406E-1,5.250297664E0
9.183855500E0,-4.650655767E0,-5.558826299E0,-6.513986517E0,9.744802165E0
9.193884500E0,-4.544748366E-1,-1.112164040E1,-5.936069942E-1,1.114673951E1
9.203914500E0,7.449993011E0,-2.356282429E1,4.010557269E0,2.503584738E1
9.213943500E0,1.698668889E1,-4.254173557E1,5.153661032E0,4.609671449E1
9.223972500E0,2.728238552E1,-6.501139717E1,1.406086848E1,7.189240811E1
9.234002500E0,3.079810813E1,-7.266289049E1,7.244286211E0,7.925212175E1
9.244031500E0,2.199476010E1,-5.238762812E1,-2.477404227E1,6.198375773E1
9.254061500E0,1.259844476E1,-2.387107079E1,-2.034043076E1,3.379766197E1
9.264090500E0,1.036030485E1,-9.300313999E0,-4.439066375E0,1.461290756E1
9.274120500E0,9.646066877E0,-3.516745289E0,-7.132101531E0,1.250123897E1
9.284149500E0,8.038575493E0,-1.598572626E0,-6.770337222E0,1.063069125E1
9.294179500E0,6.416984718E0,-1.109201022E0,-5.579312019E0,8.575356691E0
9.304208500E0,4.420072280E0,-1.460031622E0,-2.878135200E0,5.472877993E0
9.314237500E0,2.574931340E0,-1.249456429E0,1.010749606E-1,2.863848621E0
9.324267500E0,1.052250603E0,-5.143017930E-1,2.174892912E0,2.470201782E0
9.334296500E0,-1.769177422E-1,4.970215166E-1,3.049306591E0,3.094608369E0
9.344326500E0,-1.615733912E0,1.908092648E0,3.449544994E0,4.260372553E0
9.354355500E0,-3.585930714E0,3.407143909E0,3.707563909E0,6.181711644E0
9.364385500E0,-6.296789353E0,4.475790982E0,3.845954640E0,8.629810436E0
9.374414500E0,-8.298339803E0,5.320766854E0,3.661403650E0,1.051564929E1
9.384443500E0,-9.918732483E0,6.214202110E0,3.740583721E0,1.228777964E1
9.394473500E0,-1.105664743E1,7.037402950E0,3.604654083E0,1.359294021E1
9.404502500E0,-1.158549066E1,7.800673923E0,3.064825686E0,1.429920501E1
9.414532500E0,-1.191706638E1,8.706100649E0,2.240608599E0,1.492759145E1
9.424561500E0,-1.139646070E1,9.520531835E0,8.077758855E-1,1.487186420E1
9.434591500E0,-1.015309240E1,1.000594487E1,-7.111711121E-1,1.427270060E1
9.444620500E0,-9.012469021E0,1.040681127E1,-1.966318637E0,1.390657138E1
9.454649500E0,-7.767849408E0,1.071137870E1,-2.374079483E0,1.344281858E1
9.464679500E0,-6.665682002E0,1.082448958E1,-1.935419610E0,1.285872234E1
9.474708500E0,-5.963141381E0,1.093474234E1,-1.273346398E0,1.251994633E1
9.484738500E0,-5.147883398E0,1.101497432E1,-7.911826569E-1,1.218426579E1
9.494767500E0,-4.474303451E0,1.101409139E1,-5.013367617E-1,1.189877889E1
9.504797500E0,-3.930064206E0,1.094158007E1,-3.994876206E-1,1.163284872E1
9.514827500E0,-3.410936121E0,1.096838254E1,-5.173534183E-1,1.149815443E1
9.524857500E0,-2.649030181E0,1.099596151E1,-9.382874930E-1,1.134940148E1
9.534886500E0,-1.997074114E0,1.076137707E1,-8.784378055E-1,1.098030940E1
9.544915500E0,-1.594740069E0,1.028008573E1,-1.003253640E0,1.045130979E1
9.554945500E0,-1.304079949E0,9.955547723E0,-1.556731120E0,1.016055937E1
9.564974500E0,-1.205504956E0,9.755885773E0,-2.046332520E0,1.004081800E1
9.575004500E0,-1.259383832E0,9.577727544E0,-2.130297368E0,9.892273724E0
9.585033500E0,-1.446714588E0,9.440052513E0,-1.588672121E0,9.681500589E0
9.595063500E0,-1.813507941E0,9.392318768E0,-5.859295269E-1,9.583724553E0
9.605092500E0,-2.267897555E0,9.474584999E0,6.086226439E-1,9.761226447E0
9.615121500E0,-2.665999970E0,9.484115376E0,1.559209170E0,9.974323713E0
9.625151500E0,-3.097789072E0,9.377983734E0,2.237667450E0,1.012669895E1
9.635180500E0,-3.528572160E0,8.991972191E0,2.583730230E0,9.999102324E0
9.645210500E0,-4.076458313E0,7.414721437E0,1.869322100E0,8.665446987E0
9.655239500E0,-4.004924061E0,5.886009589E0,1.536296563E0,7.283181499E0
9.665269500E0,-3.240338342E0,4.811687794E0,2.505040741E0,6.318810102E0
9.675298500E0,-2.635899673E0,-9.410807079E-1,1.812321103E0,3.334382666E0
9.685327500E0,-9.241971651E-1,-1.124975523E1,1.971217872E0,1.145848302E1
9.695357500E0,3.577405474E0,-2.849947644E1,4.483917443E0,2.907100794E1
9.705386500E0,8.502297701E0,-5.135026189E1,9.201986636E0,5.285655135E1
9.715416500E0,1.488306652E1,-6.828085143E1,1.049052936E1,7.066704711E1
9.725445500E0,1.649523977E1,-6.981783182E1,7.533625152E0,7.213444450E1
9.735475500E0,1.021646101E1,-5.091268434E1,9.863469279E-1,5.193698473E1
9.745504500E0,7.457904879E0,-2.639579560E1,-8.606554726E0,2.874771564E1
9.755533500E0,9.160716988E0,-1.148347312E1,-1.620476647E1,2.187197629E1
9.765563500E0,1.169670470E1,-3.467353274E0,-1.804983899E1,2.178605351E1
9.775592500E0,1.236458654E1,-1.448314971E0,-1.254571691E1,1.767415144E1
9.785622500E0,1.023142988E1,-3.051894568E0,-5.481645976E0,1.200186071E1
9.795651500E0,7.729455421E0,-3.466293173E0,-1.475621468E0,8.598670141E0
9.805681500E0,5.685776952E0,-2.226287599E0,3.884270275E-1,6.118438655E0
9.815710500E0,3.848634711E0,-9.643988192E-2,2.240493994E0,4.454335318E0
9.825740500E0,2.143999440E0,2.340726964E0,3.148239141E0,4.470698604E0
9.835769500E0,5.254006854E-1,4.482439266E0,3.015114997E0,5.427635406E0
9.845798500E0,-6.919214934E-1,6.060695157E0,2.416925540E0,6.561425928E0
9.855828500E0,-2.056528310E0,7.249394923E0,1.632355499E0,7.710228266E0
9.865857500E0,-3.531840169E0,8.232932848E0,7.065961774E-1,8.986342772E0
9.875887500E0,-5.334159901E0,9.139796820E0,-5.090428072E-1,1.059472852E1
9.885916500E0,-7.994987424E0,1.025941700E1,-4.051778970E0,1.362322920E1
9.895946500E0,-1.004523115E1,1.035814372E1,-3.623651687E0,1.487711873E1
9.905975500E0,-1.113625844E1,9.846159182E0,-6.208129191E-1,1.487778583E1
9.916004500E0,-1.156345718E1,9.796577132E0,7.435448062E-1,1.517363913E1
9.926034500E0,-1.168996637E1,1.009681528E1,1.179160033E0,1.549165617E1
9.936063500E0,-1.141358954E1,1.031500998E1,1.353617560E0,1.544350147E1
9.946093500E0,-1.071286038E1,1.055097788E1,1.324660978E0,1.509447709E1
9.956122500E0,-9.384415087E0,1.062180403E1,1.226854602E0,1.422656458E1
9.966152500E0,-7.906271129E0,1.041622412E1,1.139373239E0,1.312650065E1
9.976181500E0,-6.669417204E0,1.013519407E1,1.147996640E0,1.218692664E1
9.986210500E0,-5.630268749E0,9.822848672E0,1.115083979E0,1.137680511E1
9.996240500E0,-4.889223920E0,9.489456807E0,1.032819355E0,1.072478517E1
1.000626950E1,-4.433628464E0,9.133968900E0,1.040688611E0,1.020634518E1
1.001629950E1,-4.055662690E0,8.793998333E0,1.019434055E0,9.737661544E0
1.002632850E1,-3.876400215E0,8.508791034E0,6.618861008E-1,9.373585051E0
1.003635850E1,-3.808595025E0,8.331126895E0,2.288823131E-1,9.163266804E0
1.004638750E1,-3.778573081E0,8.293076724E0,-1.679880937E-1,9.114875538E0
1.005641750E1,-3.784181145E0,8.441893040E0,-5.065162253E-1,9.265103546E0
1.006644650E1,-3.781478855E0,8.653845252E0,-6.488783117E-1,9.466238061E0
1.007647550E1,-3.850826248E0,8.846946040E0,-4.882237959E-1,9.661039256E0
1.008650550E1,-4.087534109E0,9.031811610E0,-2.145928144E-3,9.913705698E0
1.009653450E1,-4.507999200E0,9.096071341E0,7.070862472E-1,1.017647000E1
1.010656450E1,-4.974126953E0,9.111746557E0,1.409404675E0,1.047627251E1
1.011659350E1,-5.419498259E0,9.124939045E0,2.143703864E0,1.082732378E1
1.012662350E1,-5.911582972E0,9.066300827E0,2.900968577E0,1.120536669E1
1.013665250E1,-6.526587267E0,8.363097716E0,3.613966359E0,1.120707355E1
1.014668150E1,-5.924857321E0,7.114394408E0,3.682657109E0,9.963960330E0
1.015671150E1,-4.556787783E0,6.093262979E0,3.155615988E0,8.237116054E0
1.016674050E1,-3.875428992E0,2.382317040E0,2.215609413E0,5.059971287E0
1.017677050E1,-2.522316632E0,-7.283176042E0,-1.807571994E0,7.916694447E0
1.018679950E1,3.271767418E0,-1.463412482E1,1.332254173E0,1.505446686E1
1.019682950E1,1.186110970E1,-2.514041243E1,2.610070767E0,2.792022081E1
1.020685850E1,1.987898020E1,-4.251931033E1,5.266469024E0,4.723135929E1
1.021688750E1,2.475631819E1,-6.046138865E1,1.263977522E1,6.654486250E1
1.022691750E1,2.452765464E1,-6.319173898E1,-2.762778990E0,6.784124604E1
1.023694650E1,1.670496770E1,-4.447413743E1,-2.405642987E1,5.325144753E1
1.024697650E1,1.176087556E1,-2.052720720E1,-7.298378218E0,2.475784227E1
1.025700550E1,1.151806291E1,-1.005491531E1,-3.070440182E0,1.559470096E1
1.026703550E1,1.050379436E1,-5.561669800E0,-6.252846943E0,1.342981615E1
1.027706450E1,8.436600725E0,-4.143506581E0,-4.583964472E0,1.045741884E1
1.028709350E1,7.146719570E0,-5.384907886E0,-3.039363400E0,9.450426627E0
1.029712350E1,6.237240139E0,-6.795124154E0,-1.630059882E0,9.366641450E0
1.030715250E1,5.149265680E0,-6.225592486E0,-6.038156480E-1,8.101699339E0
1.031718250E1,3.605488189E0,-4.579536960E0,3.290532303E-1,5.837806084E0
1.032721150E1,1.805976874E0,-2.514040191E0,1.372894660E0,3.386264948E0
1.033724150E1,1.471367034E-1,-3.128383166E-1,2.027849472E0,2.057107314E0
1.034727050E1,-1.385663810E0,1.688942513E0,1.959752798E0,2.934829133E0
1.035729950E1,-3.104926475E0,3.290142878E0,1.682108288E0,4.826499442E0
1.036732950E1,-4.896739638E0,4.580466667E0,1.566073217E0,6.885587796E0
1.037735850E1,-7.262634773E0,5.595065002E0,1.765932217E0,9.336441122E0
1.038738850E1,-1.029834074E1,6.686893362E0,1.772791586E0,1.240617406E1
1.039741750E1,-1.327378296E1,7.677357899E0,9.703677300E-1,1.536478936E1
1.040744750E1,-1.516188398E1,8.091446017E0,2.540667826E-1,1.718775071E1
1.041747650E1,-1.594211422E1,8.277635981E0,-5.649645545E-2,1.796311373E1
1.042750650E1,-1.584136085E1,8.408528243E0,-2.611845982E-1,1.793656260E1
1.043753550E1,-1.433275348E1,8.468193816E0,-6.936282957E-1,1.666191013E1
1.044756450E1,-1.221871371E1,8.611997899E0,-1.342337696E0,1.500884216E1
1.045759450E1,-1.065837252E1,9.131689070E0,-1.901268947E0,1.416345557E1
1.046762350E1,-9.172431300E0,9.637926968E0,-2.121703715E0,1.347311244E1
1.047765350E1,-7.788366703E0,1.016752917E1,-2.098488514E0,1.297848063E1
1.048768250E1,-6.566093395E0,1.053489687E1,-1.716997454E0,1.253178817E1
1.049771250E1,-5.562521154E0,1.058341823E1,-1.109803870E0,1.200758292E1
1.050774150E1,-4.781428453E0,1.048044175E1,-5.728809536E-1,1.153385928E1
1.051776967E1,-4.103623600E0,1.024461886E1,-1.235773945E-1,1.103663054E1
1.052779967E1,-3.514334190E0,9.920110087E0,3.113431835E-1,1.052882061E1
1.053782867E1,-2.981880008E0,9.470259229E0,5.497084014E-1,9.943822081E0
1.054785867E1,-2.651860818E0,9.127393121E0,1.983421962E-1,9.506892795E0
1.055788767E1,-2.494600245E0,8.972284616E0,-2.855066582E-1,9.316997138E0
1.056791767E1,-2.377858830E0,8.948469492E0,-4.191728568E-1,9.268496358E0
1.057794667E1,-2.288226277E0,9.028531907E0,-2.635597189E-1,9.317716009E0
1.058797567E1,-2.230501979E0,9.162619087E0,5.810266731E-2,9.430381940E0
1.059800567E1,-2.254657412E0,9.280488430E0,4.250013979E-1,9.559893918E0
1.060803467E1,-2.336785356E0,9.338309206E0,6.809585488E-1,9.650299953E0
1.061806467E1,-2.371393856E0,9.422017361E0,8.777898610E-1,9.755431052E0
1.062809367E1,-2.460318897E0,9.528686947E0,1.147009703E0,9.907808802E0
1.063812367E1,-2.679497975E0,9.484686064E0,1.449006697E0,9.961857233E0
1.064815267E1,-3.115217575E0,9.060927236E0,1.770524036E0,9.743702493E0
1.065818267E1,-3.497196293E0,8.132798111E0,2.186823571E0,9.118935483E0
1.066821167E1,-3.346167390E0,5.891688990E0,2.014997292E0,7.068878938E0
1.067824067E1,-3.659940677E0,-3.395964033E0,-7.714557885E0,9.189240493E0
1.068827067E1,-2.237992116E0,-9.184766001E0,-8.006285999E0,1.238826665E1
1.069829967E1,2.379546775E0,-1.218210663E1,1.771312240E0,1.253808247E1
1.070832967E1,9.380367059E0,-2.968185829E1,2.806877521E0,3.125512053E1
1.071835867E1,1.726270437E1,-5.242313241E1,1.105360921E1,5.628825855E1
1.072838767E1,1.983792807E1,-6.412455698E1,5.691669776E0,6.736391692E1
1.073841767E1,1.599366210E1,-5.855574832E1,-8.318120933E0,6.126796899E1
1.074844667E1,8.986618481E0,-3.510280490E1,-8.110113838E0,3.713139063E1
1.075847667E1,7.705522767E0,-1.639803916E1,-3.488326067E0,1.845099424E1
1.076850567E1,8.382014628E0,-8.664408247E0,-5.304901603E0,1.317088154E1
1.077853567E1,8.303927987E0,-6.974039598E0,-4.232617562E0,1.164076886E1
1.078856467E1,8.030874125E0,-9.051648290E0,-1.229695179E0,1.216303524E1
1.079859367E1,7.886309904E0,-1.161995532E1,9.345043445E-1,1.407446425E1
1.080862367E1,7.023967803E0,-1.216612151E1,2.956416553E0,1.435587111E1
1.081865267E1,5.454026653E0,-1.018933812E1,4.390543256E0,1.236308570E1
1.082868267E1,4.005020540E0,-6.819936814E0,4.545434829E0,9.122099838E0
1.083871167E1,2.538423372E0,-3.407401187E0,4.029014590E0,5.855504643E0
1.084874167E1,1.077669911E0,-3.590085161E-1,3.218333223E0,3.412906135E0
1.085877067E1,-6.522349790E-1,2.393814420E0,2.535287218E0,3.547314368E0
1.086880067E1,-2.394190688E0,4.787082126E0,1.637475321E0,5.597287714E0
1.087882967E1,-3.839330329E0,6.714623197E0,6.949053276E-1,7.765920131E0
1.088885867E1,-5.570478045E0,8.458511412E0,-1.128842404E0,1.019072746E1
1.089888867E1,-8.528712498E0,1.066355081E1,-6.019467024E0,1.492260822E1
1.090891767E1,-1.228858560E1,1.156256958E1,-8.341946583E0,1.882260407E1
1.091894767E1,-1.377060918E1,1.092411795E1,-5.256132317E0,1.834646988E1
1.092897667E1,-1.392660588E1,1.030314715E1,-2.348783843E0,1.748204731E1
1.093900667E1,-1.323583804E1,9.859728230E0,-4.930594432E-1,1.651195800E1
1.094903567E1,-1.197858961E1,9.961449902E0,3.028799236E-1,1.558232427E1
1.095906467E1,-1.147544021E1,1.016118260E1,3.129909289E-1,1.533079657E1
1.096909467E1,-1.066613411E1,1.047045470E1,-5.532752395E-2,1.494656816E1
1.097912367E1,-9.061862206E0,1.049756824E1,-8.199340010E-1,1.389203287E1
1.098915367E1,-7.454884207E0,1.006314935E1,-1.361093810E0,1.259741441E1
1.099918267E1,-6.501661171E0,9.509211041E0,-1.462781568E0,1.161190865E1
1.100921267E1,-5.928606555E0,9.012329273E0,-1.097425314E0,1.084319127E1
1.101924167E1,-5.540956038E0,8.614157276E0,-3.083365818E-1,1.024699814E1
1.102927067E1,-5.174148506E0,8.352037708E0,3.690668964E-1,9.831813516E0
1.103930067E1,-4.684603532E0,8.206247326E0,6.839734463E-1,9.473955092E0
1.104932967E1,-4.349302259E0,8.241987846E0,9.739309502E-1,9.369916504E0
1.105935967E1,-4.177402597E0,8.383757683E0,1.188280520E0,9.441932850E0
1.106938867E1,-4.069517376E0,8.583443021E0,1.393909553E0,9.601012947E0
1.107941867E1,-3.924991746E0,8.801045398E0,1.665518568E0,9.779463809E0
1.108944767E1,-3.778057356E0,8.978239421E0,1.939524940E0,9.931981548E0
1.109947667E1,-3.684272988E0,9.125650066E0,2.209190340E0,1.008622221E1
1.110950667E1,-3.622356821E0,9.224162201E0,2.408295050E0,1.019835880E1
1.111953567E1,-3.672278302E0,9.240509262E0,2.572889493E0,1.027094931E1
1.112956567E1,-3.973225136E0,9.243459767E0,2.715573249E0,1.042124774E1
1.113959467E1,-4.381692033E0,9.249059061E0,2.723526632E0,1.059065229E1
1.114962467E1,-4.641104340E0,9.211921055E0,2.502396630E0,1.061420406E1
1.115965367E1,-4.883858222E0,9.008301126E0,2.209440601E0,1.048251821E1
1.116968367E1,-5.270134059E0,8.438944874E0,2.051282773E0,1.015863498E1
1.117971267E1,-5.833975217E0,7.625198981E0,2.056471592E0,9.818757648E0
1.118974167E1,-6.594928354E0,5.963995659E0,2.093227190E0,9.134764599E0
1.119977167E1,-7.887362403E0,-2.409275043E-1,-2.400432884E0,8.248067032E0
1.120980067E1,-7.813900909E0,-1.116247034E1,-6.942990882E0,1.529257708E1
1.121983067E1,1.513250640E-1,-1.904950237E1,2.726532685E0,1.924423083E1
1.122985967E1,1.279113273E1,-3.072554652E1,6.084685113E0,3.383335157E1
1.123988967E1,2.432504861E1,-5.175632061E1,1.032210616E1,5.811170785E1
1.124991867E1,3.242077128E1,-7.270709544E1,1.008007237E1,8.024360409E1
1.125994767E1,3.094587662E1,-6.409311300E1,-3.279752142E1,7.836613953E1
1.126997767E1,2.053238784E1,-3.591320794E1,-9.562601382E0,4.245916627E1
1.128000667E1,1.557358527E1,-1.654620761E1,7.925158221E-1,2.273635031E1
1.129003667E1,1.329542000E1,-1.053202354E1,-4.535378203E0,1.755737362E1
1.130006567E1,1.044994033E1,-8.735919110E0,-4.046252766E0,1.420878943E1
1.131009467E1,8.212911982E0,-7.556667275E0,-3.534128476E0,1.170663092E1
1.132012467E1,6.326317207E0,-8.081693446E0,-3.304646312E0,1.078224214E1
1.133015367E1,3.888325319E0,-7.537053375E0,-2.910451006E0,8.966435881E0
1.134018367E1,2.367417750E0,-4.222447500E0,-9.786654407E-1,4.938776745E0
1.135021267E1,1.482299573E0,-1.266035040E0,7.778369719E-1,2.098829937E0
1.136024267E1,2.062669641E-1,3.911658633E-1,1.585118183E0,1.645647729E0
1.137027167E1,-1.412330037E0,1.708771006E0,2.075997784E0,3.037160069E0
1.138030167E1,-3.991992944E0,3.135398070E0,2.824768247E0,5.809134563E0
1.139033067E1,-7.328733453E0,4.388763948E0,3.582755091E0,9.263245493E0
1.140035967E1,-9.259570600E0,5.538094996E0,2.544043424E0,1.108522895E1
1.141038967E1,-1.090050221E1,6.396614773E0,1.804250776E0,1.276686923E1
1.142041867E1,-1.203065556E1,7.068835242E0,1.348700051E0,1.401870524E1
1.143044867E1,-1.265924995E1,7.641187608E0,6.703283107E-1,1.480181399E1
1.144047767E1,-1.309005175E1,8.440024855E0,-2.316479731E-1,1.557681403E1
1.145050767E1,-1.228236416E1,9.060588682E0,-7.706898471E-1,1.528216933E1
1.146053667E1,-1.138244142E1,9.456828175E0,-1.030121523E0,1.483417413E1
1.147056567E1,-1.077046598E1,1.005982580E1,-1.121645066E0,1.478043031E1
1.148059567E1,-9.544656277E0,1.062077024E1,-1.290399803E0,1.433758542E1
1.149062467E1,-8.440766281E0,1.079188784E1,-1.294078286E0,1.376175923E1
1.150065467E1,-7.422267269E0,1.076392646E1,-1.027560443E0,1.311518374E1
1.151068367E1,-6.571887985E0,1.048474062E1,-8.081653100E-1,1.240050921E1
1.152071425E1,-5.780419400E0,1.004635615E1,-6.011370385E-1,1.160620033E1
1.153074325E1,-4.933558971E0,9.597864770E0,-5.860418665E-1,1.080751856E1
1.154077225E1,-4.051005968E0,9.145820037E0,-5.259722507E-1,1.001665215E1
1.155080225E1,-3.429279129E0,8.941488501E0,-7.904055619E-1,9.609105729E0
1.156083125E1,-3.243809834E0,8.899253477E0,-1.587936541E0,9.604194769E0
1.157086125E1,-3.301568922E0,8.923592513E0,-2.195797877E0,9.764854786E0
1.158089025E1,-3.595769531E0,9.017123989E0,-2.222719628E0,9.958843613E0
1.159092025E1,-4.211557938E0,9.136454551E0,-1.559329623E0,1.018054669E1
1.160094925E1,-4.998101707E0,9.133900487E0,-7.008227098E-1,1.043553119E1
1.161097925E1,-5.731244316E0,9.021357374E0,-1.213178476E-2,1.068794636E1
1.162100825E1,-6.371623773E0,8.883822091E0,3.944309850E-1,1.093962798E1
1.163103725E1,-6.873152908E0,8.614405198E0,5.685540140E-1,1.103501071E1
1.164106725E1,-7.275794517E0,8.176772096E0,6.486842573E-1,1.096437773E1
1.165109625E1,-7.481449277E0,7.798068404E0,7.976830065E-1,1.083597030E1
1.166112625E1,-7.267961587E0,7.520867697E0,9.816843581E-1,1.050478085E1
1.167115525E1,-6.685554934E0,7.204164371E0,1.136999343E0,9.893907043E0
1.168118525E1,-5.741271122E0,7.051742077E0,1.259398012E0,9.180160334E0
1.169121425E1,-4.745982631E0,7.157642754E0,1.493093534E0,8.716967892E0
1.170124325E1,-4.076433170E0,7.229591573E0,1.856541402E0,8.504766174E0
1.171127325E1,-3.446786570E0,6.465974445E0,1.861773198E0,7.560116574E0
1.172130225E1,-1.696211480E0,3.339091090E0,-4.355381902E-1,3.770458355E0
1.173133225E1,-9.629516333E-1,1.591784009E0,-6.616381788E-1,1.974542291E0
1.174136125E1,7.912232950E-1,-3.504550336E0,-3.880505399E-1,3.613653357E0
1.175139125E1,4.983505302E0,-1.372207612E1,2.389392025E0,1.479323807E1
1.176142025E1,1.380063113E1,-3.395893516E1,6.928982123E0,3.730519387E1
1.177144925E1,2.709064128E1,-6.286320030E1,1.531172941E1,7.014366582E1
1.178147925E1,3.420870716E1,-7.689859480E1,9.854328911E0,8.473923133E1
1.179150825E1,2.553399553E1,-6.522729040E1,-8.535316343E0,7.056511862E1
1.180153825E1,1.146200097E1,-3.312336336E1,-2.205039519E1,4.140959544E1
1.181156725E1,9.101043813E0,-1.251855308E1,-1.028337421E1,1.858200621E1
1.182159725E1,7.945101319E0,-5.126101935E0,-2.369218692E0,9.747551140E0
1.183162625E1,6.648102933E0,-4.052199969E0,5.693270159E-1,7.806518459E0
1.184165525E1,6.567073388E0,-4.282559801E0,2.277858871E0,8.164276598E0
1.185168525E1,6.625854278E0,-4.290748242E0,3.278119833E0,8.547428562E0
1.186171425E1,6.098016765E0,-3.477816866E0,2.931143133E0,7.607405516E0
1.187174425E1,4.672519676E0,-2.101825520E0,1.282493783E0,5.281562358E0
1.188177325E1,2.708243179E0,-3.502955800E-1,-1.822086318E-1,2.736875609E0
1.189180325E1,6.518014079E-1,1.731434814E0,-1.153066249E0,2.179970955E0
1.190183225E1,-1.294119217E0,3.902399567E0,-1.813140298E0,4.493433505E0
1.191186125E1,-3.228020597E0,5.581883624E0,-1.826688881E0,6.701815727E0
1.192189125E1,-5.181857475E0,6.619415908E0,-8.263559979E-1,8.446962655E0
1.193192025E1,-7.141501515E0,7.255756109E0,6.357909640E-2,1.018091759E1
1.194195025E1,-9.023091658E0,7.829871410E0,3.228744775E-1,1.195103833E1
1.195197925E1,-1.028024478E1,8.427260383E0,2.939605626E-1,1.329618603E1
1.196200925E1,-1.134773001E1,9.057869142E0,-4.904802364E-1,1.452778512E1
1.197203825E1,-1.233626613E1,9.570417940E0,-8.362933409E-1,1.563572027E1
1.198206725E1,-1.262284285E1,9.986863071E0,-7.274655479E-1,1.611219419E1
1.199209725E1,-1.211185701E1,1.025062278E1,-5.815091050E-1,1.587798793E1
1.200212625E1,-1.136160428E1,1.030064103E1,-4.452952927E-1,1.534234485E1
1.201215625E1,-1.015437995E1,9.992941836E0,-3.129394734E-1,1.425020175E1
1.202218525E1,-8.567714596E0,9.458785822E0,-1.118163049E-1,1.276271388E1
1.203221525E1,-7.184451653E0,9.089400253E0,2.023826587E-1,1.158768748E1
1.204224425E1,-6.249768384E0,8.936007906E0,4.496766114E-1,1.091393839E1
1.205227325E1,-5.584709584E0,8.894865727E0,7.167306447E-1,1.052717057E1
1.206230325E1,-5.087590418E0,9.029052309E0,9.533510900E-1,1.040750884E1
1.207233225E1,-4.742947342E0,9.367454068E0,1.219225155E0,1.057030062E1
1.208236225E1,-4.509133560E0,9.782487096E0,1.406850611E0,1.086317485E1
1.209239125E1,-4.330825058E0,1.010232102E1,1.358735043E0,1.107515673E1
1.210242125E1,-4.199342228E0,1.026002277E1,1.036976799E0,1.113453471E1
1.211245025E1,-4.317077961E0,1.007169681E1,4.194430347E-1,1.096595510E1
1.212247925E1,-4.836746329E0,9.295929757E0,-4.127526140E-1,1.048707728E1
1.213250925E1,-5.458507374E0,8.359082433E0,-1.499666973E0,1.009547240E1
1.214253825E1,-6.068366704E0,7.507807356E0,-2.422392687E0,9.952900687E0
1.215256825E1,-6.303814198E0,7.118226673E0,-1.874829007E0,9.691347080E0
1.216259725E1,-6.062058728E0,7.182837821E0,-5.226896238E-1,9.413549789E0
1.217262725E1,-5.639480453E0,7.456220881E0,7.117090559E-1,9.375793267E0
1.218265625E1,-4.969063849E0,8.058946608E0,1.198345917E0,9.543282920E0
1.219268625E1,-4.200541492E0,8.877042829E0,1.125791327E0,9.885031326E0
1.220271525E1,-3.975178106E0,9.482955288E0,1.198552909E0,1.035205347E1
1.221274425E1,-4.431761741E0,9.121000360E0,1.164907445E0,1.020735857E1
1.222277425E1,-4.988865445E0,7.045103148E0,-2.089076251E0,8.881807045E0
1.223280325E1,-5.827557313E0,2.051656995E0,-9.236856506E0,1.111257121E1
1.224283325E1,-3.834455213E0,-6.783366573E-1,1.336702734E-1,3.896287354E0
1.225286225E1,2.350598234E-1,-1.070663076E1,3.465999058E0,1.125612477E1
1.226289225E1,8.657713185E0,-2.610506736E1,4.079122889E0,2.780413248E1
1.227292125E1,1.923666824E1,-5.241475452E1,7.744993812E0,5.636790599E1
1.228295025E1,2.755653105E1,-7.685355721E1,3.573339905E0,8.172270442E1
1.229298025E1,2.884006740E1,-7.805752697E1,-6.652071438E0,8.348039925E1
1.230300925E1,1.892394277E1,-5.250644354E1,-2.563065001E0,5.587138378E1
1.231303925E1,1.259029491E1,-2.502019602E1,-1.576401739E0,2.805371236E1
1.232306825E1,1.103743582E1,-1.282156398E1,-4.355531298E0,1.746963495E1
1.233309825E1,7.991713568E0,-7.304637077E0,-3.020179855E0,1.124040457E1
1.234312725E1,5.411012195E0,-5.266505277E0,-2.412630760E0,7.926911000E0
1.235315625E1,3.816669445E0,-4.870344138E0,-2.444454816E0,6.653012627E0
1.236318625E1,2.167445898E0,-3.563787893E0,-1.242369019E0,4.352227780E0
1.237321525E1,5.020203012E-1,-1.484632028E0,7.340126753E-2,1.568930969E0
1.238324525E1,-1.003589197E0,7.092959100E-1,9.527909267E-1,1.555024924E0
1.239327425E1,-2.384733694E0,2.881201479E0,1.474138615E0,4.020119577E0
1.240330425E1,-3.656517717E0,4.551701875E0,1.231886131E0,5.967047445E0
1.241333325E1,-5.029018859E0,6.013567768E0,1.223027599E0,7.934092544E0
1.242336225E1,-6.684052200E0,7.443621300E0,1.384692003E0,1.009957543E1
1.243339225E1,-8.242249217E0,8.634313797E0,1.757561343E0,1.206544938E1
1.244342125E1,-9.385432502E0,9.605524038E0,1.934030312E0,1.356808419E1
1.245345125E1,-1.003303035E1,1.014406780E1,1.937003036E0,1.439846486E1
1.246348025E1,-9.762203105E0,1.031209222E1,1.328537682E0,1.426200785E1
1.247351025E1,-9.650461645E0,1.061794721E1,7.718418217E-1,1.436899275E1
1.248353925E1,-9.261735824E0,1.119264665E1,5.090633090E-1,1.453665143E1
1.249356825E1,-8.119393369E0,1.166331710E1,2.093566694E-1,1.421271771E1
1.250359825E1,-6.958277258E0,1.199476769E1,-2.502082050E-2,1.386696435E1
1.251362725E1,-5.972368872E0,1.220402317E1,-3.985988438E-2,1.358708799E1
1.252365688E1,-5.204018422E0,1.206950446E1,7.727680206E-3,1.314362223E1
1.253368588E1,-4.590909210E0,1.173911573E1,1.294807069E-1,1.260555634E1
1.254371587E1,-4.209557898E0,1.128117115E1,2.630861493E-1,1.204385381E1
1.255374488E1,-4.049308229E0,1.060993418E1,3.544454221E-1,1.136192026E1
1.256377388E1,-4.078949519E0,1.005106784E1,2.318035821E-1,1.084967865E1
1.257380388E1,-4.217462164E0,9.686572879E0,5.933871388E-2,1.056504625E1
1.258383288E1,-4.481664218E0,9.728797962E0,-2.861089396E-1,1.071525465E1
1.259386288E1,-4.747755800E0,9.729085645E0,-1.080593446E0,1.087952089E1
1.260389188E1,-4.838667139E0,9.470623510E0,-1.834534675E0,1.079216970E1
1.261392188E1,-4.739496315E0,9.259997447E0,-2.203239044E0,1.063318580E1
1.262395088E1,-4.367878278E0,9.115730850E0,-1.856780992E0,1.027728297E1
1.263397988E1,-3.805730182E0,9.141186118E0,-9.472781718E-1,9.946969478E0
1.264400988E1,-3.436963247E0,9.297813145E0,-7.595065355E-2,9.913012365E0
1.265403887E1,-3.336082113E0,9.433787221E0,5.305143678E-1,1.002034085E1
1.266406888E1,-3.230447777E0,9.472862994E0,9.204312658E-1,1.005077708E1
1.267409788E1,-3.054714680E0,9.466841531E0,1.144834612E0,1.001314220E1
1.268412787E1,-2.897940011E0,9.437174513E0,1.285683585E0,9.955465905E0
1.269415688E1,-2.753744457E0,9.371244818E0,1.304488230E0,9.854188324E0
1.270418688E1,-2.569071845E0,9.265318413E0,1.013453596E0,9.668161337E0
1.271421587E1,-2.311132160E0,8.893086419E0,-1.492174351E0,9.308861488E0
1.272424488E1,-1.959928507E0,7.945346902E0,-1.107188995E1,1.376795570E1
1.273427488E1,-1.274310604E0,6.689749142E0,-1.356146247E1,1.517530478E1
1.274430388E1,-2.703473021E0,4.786501497E0,-2.266996937E0,5.946312981E0
1.275433388E1,-3.479794394E0,3.929568654E0,4.283769590E0,6.775039537E0
1.276436288E1,-3.169937865E0,2.008022148E0,6.394025041E0,7.413785487E0
1.277439288E1,-1.954795529E0,-3.577755722E0,1.091648265E1,1.165294620E1
1.278442188E1,3.745218809E0,-2.292871247E1,1.270322335E1,2.647875380E1
1.279445088E1,1.334363848E1,-5.225433499E1,1.403757785E1,5.572810606E1
1.280448088E1,2.456718649E1,-8.155478408E1,9.409468067E0,8.569286754E1
1.281450988E1,2.541170453E1,-9.664501628E1,8.635413659E-1,9.993377608E1
1.282453988E1,1.577444297E1,-6.841119756E1,-6.327719954E0,7.049088623E1
1.283456888E1,9.964255396E0,-2.693572515E1,-7.853209986E0,2.977402529E1
1.284459788E1,8.223425860E0,-1.089325517E1,-7.657313059E0,1.564998992E1
1.285462788E1,7.383930584E0,-3.370789431E0,-8.747860293E0,1.193355404E1
1.286465688E1,6.554118297E0,-1.355793893E-1,-8.368557261E0,1.063050324E1
1.287468688E1,5.517226283E0,1.112244498E0,-6.726959653E0,8.770909865E0
1.288471587E1,4.340699543E0,1.904466205E0,-4.866653375E0,6.793598393E0
1.289474588E1,2.678432904E0,2.673821205E0,-2.695296859E0,4.646283227E0
1.290477488E1,1.013166937E0,3.639439169E0,-1.074286712E0,3.927609534E0
1.291480487E1,-3.483361781E-1,5.026116301E0,-1.035758239E0,5.143537528E0
1.292483388E1,-2.129513841E0,6.363249975E0,-1.802008953E0,6.947878505E0
1.293486288E1,-3.761780755E0,7.753247157E0,-2.849601372E0,9.076566746E0
1.294489288E1,-5.580808321E0,8.946551605E0,-2.841987712E0,1.092076468E1
1.295492188E1,-7.404732054E0,9.450337765E0,-1.273156949E0,1.207310520E1
1.296495188E1,-8.957664238E0,9.606542623E0,2.219369173E-2,1.313491158E1
1.297498088E1,-9.705873953E0,9.624860196E0,7.245051026E-1,1.368820042E1
1.298501088E1,-9.257581962E0,9.535955036E0,8.258496290E-1,1.331612894E1
1.299503988E1,-8.677030631E0,9.579441363E0,5.965183228E-1,1.293879405E1
1.300506888E1,-8.234580009E0,9.772994726E0,5.905196643E-1,1.279329697E1
1.301509888E1,-7.519219952E0,1.012326575E1,3.545868516E-1,1.261526496E1
1.302512788E1,-6.819696493E0,1.044469889E1,2.377501273E-1,1.247623822E1
1.303515788E1,-6.124663696E0,1.066070088E1,2.677264631E-1,1.229771223E1
1.304518688E1,-5.358422338E0,1.068813017E1,2.921643162E-1,1.195968965E1
1.305521688E1,-4.751410894E0,1.060193519E1,4.531790936E-1,1.162679262E1
1.306524588E1,-4.278748293E0,1.041315784E1,7.309966084E-1,1.128166207E1
1.307527488E1,-3.890986971E0,1.018444283E1,1.067936636E0,1.095459465E1
1.308530487E1,-3.586318969E0,1.003718421E1,1.361996620E0,1.074531458E1
1.309533388E1,-3.370803172E0,9.957980164E0,1.584624678E0,1.063177870E1
1.310536388E1,-3.210080170E0,9.916007681E0,1.762454878E0,1.057062298E1
1.311539287E1,-3.083173079E0,9.901694866E0,1.897763103E0,1.054281852E1
1.312542288E1,-2.935365992E0,9.923086320E0,1.969461515E0,1.053388790E1
1.313545188E1,-2.796580282E0,9.944485960E0,1.960283725E0,1.051457914E1
1.314548088E1,-2.684475709E0,9.933544650E0,1.830321317E0,1.045140159E1
1.315551088E1,-2.632607106E0,9.922229118E0,1.585283074E0,1.038722163E1
1.316553988E1,-2.578788164E0,9.912157874E0,1.328667490E0,1.032794168E1
1.317556988E1,-2.530805035E0,9.901366253E0,1.086136533E0,1.027724284E1
1.318559888E1,-2.490245239E0,9.871580536E0,8.998327676E-1,1.022052458E1
1.319562888E1,-2.451946561E0,9.797870536E0,7.226350169E-1,1.012583381E1
1.320565788E1,-2.508720686E0,9.640001560E0,6.998438859E-1,9.985644247E0
1.321568688E1,-2.705030134E0,9.413117314E0,7.659057283E-1,9.823979702E0
1.322571688E1,-2.844944649E0,9.107358806E0,6.639700484E-1,9.564441997E0
1.323574588E1,-3.243029815E0,8.604369621E0,-2.870351386E-1,9.199717829E0
1.324577588E1,-4.769074748E0,6.844794497E0,-1.198550804E1,1.460300273E1
1.325580487E1,-5.635711337E0,3.471177937E0,-1.453726920E1,1.597318110E1
1.326583488E1,-3.053862156E0,3.311990415E0,3.602694097E0,5.768427804E0
1.327586388E1,-1.542977592E0,-1.062738461E0,3.152359089E0,3.667091587E0
1.328589287E1,-6.125648367E-1,-9.329854133E0,2.461952609E0,9.668641293E0
1.329592288E1,4.666814547E0,-2.485656753E1,2.796189981E0,2.544497565E1
1.330595188E1,1.259528609E1,-4.708122378E1,3.244274980E0,4.884473548E1
1.331598187E1,2.048199887E1,-7.049834481E1,6.330485687E0,7.368584632E1
1.332601088E1,2.251653990E1,-7.618951933E1,6.719889200E0,7.973076154E1
1.333604088E1,1.373402666E1,-5.495923356E1,6.984194311E-1,5.665358446E1
1.334606988E1,8.641024647E0,-2.633521377E1,-4.195777180E0,2.803239799E1
1.335609888E1,7.301559688E0,-1.260686124E1,-4.820277354E0,1.534538361E1
1.336612888E1,6.151054519E0,-5.745000476E0,-4.348619889E0,9.473700286E0
1.337615788E1,6.795149882E0,-3.235752663E0,-4.186873040E0,8.612436535E0
1.338618788E1,6.564122883E0,-3.003221176E0,-2.896955048E0,7.778135715E0
1.339621688E1,5.784541687E0,-3.073300055E0,-1.794774778E0,6.791709082E0
1.340624688E1,4.500957691E0,-2.319378195E0,-1.026455319E0,5.166405508E0
1.341627588E1,2.615168955E0,-1.000559170E0,1.354460728E-1,2.803314637E0
1.342630487E1,5.452911589E-1,3.303437108E-1,3.525572830E-1,7.285369263E-1
1.343633488E1,-1.191289498E0,1.734901628E0,-2.373092473E-1,2.117869214E0
1.344636388E1,-2.804583659E0,3.056297522E0,-7.729065996E-1,4.219482036E0
1.345639387E1,-4.313607639E0,4.565948031E0,-1.490666939E0,6.455786568E0
1.346642288E1,-6.010579256E0,6.780727724E0,-4.318485094E0,1.003766133E1
1.347645288E1,-8.904948081E0,8.654257481E0,-6.873165772E0,1.419276860E1
1.348648187E1,-1.154423388E1,8.795978785E0,-4.839972530E0,1.529914745E1
1.349651088E1,-1.110404963E1,8.189026106E0,-2.894438406E0,1.409744092E1
1.350654088E1,-1.077924967E1,7.831436124E0,-2.096849540E0,1.348778682E1
1.351656942E1,-1.089038536E1,8.016550786E0,-1.043508139E0,1.356298230E1
1.352659942E1,-1.080524522E1,8.493456126E0,-4.989797125E-1,1.375285796E1
1.353662842E1,-1.043767170E1,8.936352891E0,-2.180841686E-1,1.374230528E1
1.354665842E1,-1.021066759E1,9.377804809E0,1.084360296E-1,1.386407999E1
1.355668742E1,-9.850846310E0,9.732170636E0,4.934032595E-1,1.385632581E1
1.356671642E1,-9.075883244E0,9.927152474E0,6.567849898E-1,1.346667663E1
1.357674642E1,-7.815004279E0,9.822965616E0,6.439246237E-1,1.256899297E1
1.358677542E1,-6.425788870E0,9.455115525E0,5.773072958E-1,1.144653904E1
1.359680542E1,-5.316993645E0,9.212153190E0,5.433443284E-1,1.065032445E1
1.360683442E1,-4.466827493E0,9.180175352E0,5.776324010E-1,1.022554774E1
1.361686442E1,-3.816058119E0,9.281911057E0,6.589319412E-1,1.005735371E1
1.362689342E1,-3.356117305E0,9.385614350E0,7.843805909E-1,9.998426527E0
1.363692342E1,-3.021990738E0,9.460977944E0,9.603597088E-1,9.978217398E0
1.364695242E1,-2.819767416E0,9.482690409E0,1.187867853E0,9.964112390E0
1.365698142E1,-2.663772765E0,9.435908006E0,1.411102706E0,9.905718354E0
1.366701142E1,-2.618114197E0,9.358915964E0,1.593588459E0,9.848012700E0
1.367704042E1,-2.585761553E0,9.312268047E0,1.807120589E0,9.832099664E0
1.368707042E1,-2.591836810E0,9.319827912E0,2.007330422E0,9.879584292E0
1.369709942E1,-2.748864371E0,9.236261845E0,2.102741779E0,9.863382340E0
1.370712942E1,-3.301093544E0,8.941308991E0,1.970195925E0,9.732723003E0
1.371715842E1,-3.829159975E0,8.547918262E0,1.586508651E0,9.499809600E0
1.372718742E1,-4.075455223E0,8.131966052E0,1.070777140E0,9.158862966E0
1.373721742E1,-4.281531568E0,7.791817145E0,3.492658854E-1,8.897522894E0
1.374724642E1,-4.809773123E0,7.078112435E0,-2.962605246E0,9.055971675E0
1.375727642E1,-5.341017516E0,4.513175740E0,-1.525455065E1,1.678083845E1
1.376730542E1,-2.789784648E0,2.294152138E0,-1.174213874E1,1.228510702E1
1.377733542E1,-6.519528508E-1,2.596692338E0,5.243011165E-1,2.728139527E0
1.378736442E1,-1.537899578E-1,-9.799758017E-2,2.121633987E0,2.129456656E0
1.379739342E1,1.534439780E0,-8.391864848E0,4.531521964E0,9.659844324E0
1.380742342E1,7.611189637E0,-2.896263673E1,5.131210063E0,3.038245959E1
1.381745242E1,1.248740146E1,-5.146312251E1,4.245078564E-1,5.295817577E1
1.382748242E1,1.420902406E1,-6.086653520E1,5.645241860E-1,6.250560103E1
1.383751142E1,1.285602279E1,-5.998151467E1,1.720994611E0,6.136791708E1
1.384754142E1,9.008487067E0,-3.977968397E1,-2.295731471E0,4.085151746E1
1.385757042E1,7.781400915E0,-2.071618687E1,-5.550109270E0,2.281478275E1
1.386759942E1,7.093244444E0,-1.095950296E1,-3.670229437E0,1.356080403E1
1.387762942E1,6.563152245E0,-5.764220858E0,-1.800480491E0,8.918684852E0
1.388765842E1,7.975085256E0,-5.341905708E0,-2.021195340E-1,9.600978791E0
1.389768842E1,9.007533386E0,-7.472523503E0,1.273342305E0,1.177266605E1
1.390771742E1,8.039736750E0,-8.774631186E0,2.500340749E0,1.216072462E1
1.391774742E1,6.653715091E0,-7.717604284E0,2.779999040E0,1.056227888E1
1.392777642E1,5.517605183E0,-5.118889394E0,2.540362601E0,7.943578396E0
1.393780542E1,3.921755897E0,-2.021669549E0,1.738814585E0,4.742445914E0
1.394783542E1,1.752183074E0,1.340946643E0,1.456868863E-1,2.211223212E0
1.395786442E1,-2.425091761E-1,4.237491801E0,-1.700771431E0,4.572501605E0
1.396789442E1,-2.025312657E0,6.531441625E0,-3.179296042E0,7.541189852E0
1.397792342E1,-3.679418629E0,8.581000639E0,-5.002642654E0,1.059236173E1
1.398795342E1,-5.518558279E0,1.008259719E1,-6.859573919E0,1.338532801E1
1.399798242E1,-7.168641951E0,1.048435120E1,-6.104370934E0,1.409164263E1
1.400801142E1,-8.086234394E0,1.019573146E1,-3.615548031E0,1.350601030E1
1.401804142E1,-8.820374538E0,9.914379816E0,-1.405078320E0,1.334421894E1
1.402807042E1,-9.658365911E0,9.667782851E0,2.884548426E-2,1.366568291E1
1.403810042E1,-1.001979576E1,9.605849728E0,8.957606936E-1,1.390938688E1
1.404812942E1,-9.805259078E0,9.660451028E0,9.774568212E-1,1.379937830E1
1.405815942E1,-9.257339303E0,9.832689536E0,8.521217537E-1,1.353167491E1
1.406818842E1,-8.431268649E0,9.989411287E0,7.573477435E-1,1.309382314E1
1.407821742E1,-7.168302813E0,9.845279760E0,9.018312728E-1,1.221177294E1
1.408824742E1,-5.804102962E0,9.504081863E0,1.154528053E0,1.119589739E1
1.409827642E1,-4.943648926E0,9.299576080E0,1.427690088E0,1.062826792E1
1.410830642E1,-4.390418125E0,9.210448726E0,1.679385824E0,1.034062251E1
1.411833542E1,-4.069283487E0,9.139424352E0,2.003521546E0,1.020305073E1
1.412836542E1,-3.800553642E0,9.123492444E0,2.397159612E0,1.016999000E1
1.413839442E1,-3.576554119E0,9.167164128E0,2.690712057E0,1.020140034E1
1.414842442E1,-3.545938975E0,9.216029309E0,2.850875480E0,1.027795556E1
1.415845342E1,-3.910700566E0,9.319908019E0,2.840289681E0,1.049864324E1
1.416848242E1,-4.478421352E0,9.417020330E0,2.662618525E0,1.076225195E1
1.417851242E1,-4.901020093E0,9.371660555E0,2.452605250E0,1.085648617E1
1.418854142E1,-5.163762681E0,9.227002779E0,2.195659883E0,1.079921051E1
1.419857142E1,-5.245987982E0,9.051655891E0,1.918352172E0,1.063639692E1
1.420860042E1,-5.238209431E0,8.887147402E0,1.632298197E0,1.044435850E1
1.421863042E1,-5.208578666E0,8.723789645E0,1.362942699E0,1.025141016E1
1.422865942E1,-5.268047188E0,8.670492859E0,1.138555799E0,1.020911734E1
1.423868842E1,-5.331016438E0,8.726765293E0,9.024030574E-1,1.026598753E1
1.424871842E1,-5.363688340E0,8.806316662E0,6.298340034E-1,1.033039480E1
1.425874742E1,-5.570697901E0,8.908795549E0,3.271026357E-1,1.051219812E1
1.426877742E1,-6.134239097E0,8.504315575E0,-2.491580451E0,1.077776627E1
1.427880642E1,-7.682020469E0,5.272554806E0,-2.043487733E1,2.245879525E1
1.428883642E1,-5.533503762E0,1.252008739E0,-1.164777871E1,1.295600010E1
1.429886542E1,-1.903658704E0,-4.578759865E0,1.181858012E0,5.097621673E0
1.430889442E1,-1.624233132E0,-7.794828461E0,2.618013625E0,8.381615557E0
1.431892442E1,3.823645466E0,-1.942953280E1,7.307311009E0,2.110743479E1
1.432895342E1,1.264856826E1,-4.059298021E1,8.852311445E0,4.342971033E1
1.433898342E1,1.927763968E1,-6.340608855E1,6.481968334E0,6.658810231E1
1.434901242E1,2.320158331E1,-6.975906029E1,8.105735443E0,7.396176652E1
1.435904142E1,2.034852565E1,-5.339821409E1,3.591452240E0,5.725670523E1
1.436907142E1,1.603901778E1,-3.076552978E1,-2.895003247E0,3.481592966E1
1.437910042E1,1.453849361E1,-1.466504373E1,-7.986598424E0,2.214084593E1
1.438913042E1,1.278876110E1,-6.863922493E0,-7.442902093E0,1.631142649E1
1.439915942E1,1.072509393E1,-4.181853206E0,-4.921801389E0,1.251957127E1
1.440918942E1,8.796290442E0,-3.368901950E0,-2.925020514E0,9.863060929E0
1.441921842E1,6.909448915E0,-2.874995829E0,-4.171590757E-1,7.495339019E0
1.442924742E1,5.743456226E0,-2.327711647E0,1.774242865E0,6.446198002E0
1.443927742E1,4.617325761E0,-9.349124801E-1,2.103490223E0,5.159305151E0
1.444930642E1,3.221247183E0,8.420586956E-1,8.500103241E-1,3.436279065E0
1.445933642E1,1.220939266E0,2.602468802E0,-4.987657410E-1,2.917585273E0
1.446936542E1,-1.043841722E0,4.481853375E0,-1.957256622E0,5.000746815E0
1.447939542E1,-2.888540905E0,6.465770377E0,-3.723144400E0,8.000728676E0
1.448942442E1,-4.729936118E0,8.447827964E0,-5.718866345E0,1.124471099E1
1.449945342E1,-6.741103483E0,9.565077093E0,-4.866238223E0,1.267333620E1
1.450948342E1,-7.830804040E0,9.354505994E0,-2.158433585E0,1.238899148E1
1.451951329E1,-8.578644211E0,8.606193953E0,-3.354629481E-1,1.215616083E1
1.452954329E1,-9.346419879E0,8.169352564E0,5.836690664E-1,1.242717005E1
1.453957229E1,-9.858030199E0,8.075341031E0,7.496001828E-1,1.276533559E1
1.454960229E1,-1.004956861E1,8.211760080E0,4.092220652E-1,1.298438661E1
1.455963129E1,-9.939525182E0,8.484143851E0,-2.029089081E-1,1.306966066E1
1.456966129E1,-9.551564763E0,8.820438273E0,-7.952973425E-1,1.302555253E1
1.457969029E1,-9.419148717E0,9.097001048E0,-1.164104623E0,1.314651780E1
1.458971929E1,-9.009002207E0,9.117320707E0,-1.230865792E0,1.287643927E1
1.459974929E1,-8.195476754E0,8.815711384E0,-8.419780040E-1,1.206613167E1
1.460977829E1,-7.209409908E0,8.461277145E0,-2.068978056E-1,1.111807577E1
1.461980829E1,-6.198308793E0,8.178246764E0,5.298735130E-1,1.027538408E1
1.462983729E1,-5.347318475E0,7.966322619E0,1.223295914E0,9.672257432E0
1.463986729E1,-4.809146886E0,7.808022119E0,1.697130808E0,9.325950684E0
1.464989629E1,-4.473325504E0,7.800779173E0,1.959279027E0,9.203345646E0
1.465992529E1,-4.278895058E0,8.046083903E0,1.921154012E0,9.313390458E0
1.466995529E1,-4.285068841E0,8.329807763E0,1.712491590E0,9.522612025E0
1.467998429E1,-4.352128511E0,8.571276135E0,1.470469487E0,9.724714786E0
1.469001429E1,-4.375267405E0,8.854001876E0,1.269984834E0,9.957367903E0
1.470004329E1,-4.356739625E0,9.145223621E0,1.205526371E0,1.020145034E1
1.471007329E1,-4.299871944E0,9.394869908E0,1.363881908E0,1.042173945E1
1.472010229E1,-4.227704732E0,9.578556679E0,1.666592263E0,1.060187555E1
1.473013129E1,-4.165766931E0,9.734019526E0,2.029151208E0,1.078064028E1
1.474016129E1,-4.047905482E0,9.884107611E0,2.352527815E0,1.093688755E1
1.475019029E1,-3.847956434E0,9.974889143E0,2.619773637E0,1.100765170E1
1.476022029E1,-3.467795615E0,9.990753808E0,2.820524923E0,1.094514180E1
1.477024929E1,-2.978119079E0,9.954295249E0,3.022382501E0,1.082090491E1
1.478027929E1,-2.619996124E0,9.851690648E0,3.259241805E0,1.070246913E1
1.479030829E1,-2.720763530E0,9.353955771E0,3.224615471E0,1.026144179E1
1.480033829E1,-2.616328750E0,8.381610585E0,3.047575815E0,9.294314955E0
1.481036729E1,-2.012112275E0,7.058630097E0,2.443951371E0,7.736003681E0
1.482039629E1,2.074236895E-1,5.935064220E-1,-3.514447918E0,3.570240696E0
1.483042629E1,5.073122653E0,-1.627824141E1,-1.751339321E1,2.444251744E1
1.484045529E1,1.025312071E1,-2.745263305E1,-6.305845520E0,2.997561064E1
1.485048529E1,1.989334564E1,-4.334362740E1,8.330570240E0,4.841294907E1
1.486051429E1,2.728957759E1,-6.672121658E1,1.197618056E1,7.307441883E1
1.487054329E1,2.149200012E1,-7.683125359E1,6.530337671E0,8.004744160E1
1.488057329E1,6.408823759E0,-5.516801190E1,-5.625865796E0,5.582322926E1
1.489060229E1,4.639000804E0,-2.598021995E1,-4.292973107E0,2.673802115E1
1.490063229E1,6.607184118E0,-1.219272635E1,-2.505627801E0,1.409239612E1
1.491066129E1,6.972181352E0,-5.469924647E0,-2.846515796E0,9.307740899E0
1.492069129E1,7.751132804E0,-3.449098266E0,-1.457728404E0,8.608211817E0
1.493072029E1,7.689758089E0,-3.354213159E0,1.461804644E-1,8.390738592E0
1.494074929E1,6.706013172E0,-2.776263839E0,8.593863344E-1,7.308679665E0
1.495077929E1,4.800517565E0,-1.468929915E0,1.322934880E0,5.191616385E0
1.496080829E1,2.970569446E0,5.012952465E-1,1.349664842E0,3.301086934E0
1.497083829E1,1.334419397E0,2.718762905E0,1.501845646E-1,3.032309724E0
1.498086729E1,-1.400718051E-1,4.729453722E0,-1.869603935E0,5.087511326E0
1.499089729E1,-1.805946176E0,6.483104448E0,-4.741692529E0,8.232601831E0
1.500092629E1,-4.427373405E0,8.702628572E0,-1.116327725E1,1.483091832E1
1.501095529E1,-8.002512791E0,1.095882819E1,-1.366306719E1,1.925657112E1
1.502098529E1,-9.826510198E0,1.084270015E1,-8.331617476E0,1.683865490E1
1.503101429E1,-1.021967464E1,1.000362938E1,-5.826838691E0,1.544235732E1
1.504104429E1,-1.063106134E1,9.527806941E0,-4.334141014E0,1.491922748E1
1.505107329E1,-1.029509554E1,9.053757965E0,-2.986441421E0,1.403133485E1
1.506110329E1,-8.467159443E0,8.949001004E0,-1.774834018E0,1.244698533E1
1.507113229E1,-6.614311874E0,8.882375489E0,-7.601567459E-1,1.110061053E1
1.508116229E1,-5.877703035E0,8.885544096E0,2.756915402E-1,1.065721787E1
1.509119129E1,-5.450669181E0,8.885375111E0,1.286834171E0,1.050312466E1
1.510122029E1,-5.030943178E0,8.833009787E0,1.954037730E0,1.035136293E1
1.511125029E1,-4.507551888E0,8.745016208E0,2.306714880E0,1.010516037E1
1.512127929E1,-4.142409058E0,8.567731553E0,2.496865164E0,9.838694650E0
1.513130929E1,-3.996018167E0,8.400140412E0,2.574653013E0,9.651909566E0
1.514133829E1,-4.047414316E0,8.218220084E0,2.722630838E0,9.556852132E0
1.515136829E1,-4.284363082E0,8.074976749E0,3.035404251E0,9.631962183E0
1.516139729E1,-4.643877090E0,8.034845554E0,3.326434207E0,9.858473616E0
1.517142629E1,-5.092742400E0,7.991997158E0,3.483236650E0,1.009658265E1
1.518145629E1,-5.446204247E0,7.995324224E0,3.531297255E0,1.029836931E1
1.519148529E1,-5.589876768E0,8.026724356E0,3.519340868E0,1.039522902E1
1.520151529E1,-5.592119175E0,8.104304044E0,3.377412572E0,1.040953681E1
1.521154429E1,-5.517686459E0,8.216707994E0,2.997537682E0,1.034139189E1
1.522157429E1,-5.449818996E0,8.324141811E0,2.454503256E0,1.024775342E1
1.523160329E1,-5.523541861E0,8.385846308E0,1.983494979E0,1.023553542E1
1.524163229E1,-5.645039985E0,8.394410725E0,1.615568143E0,1.024415288E1
1.525166229E1,-5.773113889E0,8.356057084E0,1.347854544E0,1.024545001E1
1.526169129E1,-5.955848733E0,8.335060902E0,1.281851174E0,1.032417148E1
1.527172129E1,-6.116342524E0,8.328628380E0,1.261361361E0,1.040993415E1
1.528175029E1,-6.159162853E0,8.374740692E0,8.833622575E-1,1.043321128E1
1.529178029E1,-6.837038165E0,7.968924630E0,-6.501915525E0,1.235005086E1
1.530180929E1,-7.755990086E0,5.128128580E0,-2.919194114E1,3.063694685E1
1.531183829E1,-4.517937420E0,2.572909373E-1,-1.375596074E1,1.448117443E1
1.532186829E1,-1.662451411E0,-3.005290505E0,8.218375036E0,8.907143422E0
1.533189729E1,2.034338419E0,-8.520819342E0,6.755119843E0,1.106230262E1
1.534192729E1,1.018477963E1,-2.362980532E1,8.798382576E0,2.719391423E1
1.535195629E1,1.925583424E1,-4.209879261E1,1.303556038E1,4.809388034E1
1.536198629E1,2.517253236E1,-5.871500776E1,1.441050157E1,6.548870954E1
1.537201529E1,2.242904684E1,-6.844576630E1,1.638759019E1,7.386770728E1
1.538204429E1,1.230025547E1,-5.691767658E1,-2.117785028E1,6.196304975E1
1.539207429E1,7.849555476E0,-3.151157603E1,-2.333955655E1,3.999162218E1
1.540210329E1,9.739285528E0,-1.392470670E1,-9.328195862E0,1.938469441E1
1.541213329E1,1.320922269E1,-5.117725798E0,-1.116460340E1,1.803671396E1
1.542216229E1,1.326083606E1,-3.997426761E0,-1.083579575E1,1.758532523E1
1.543219229E1,9.008377140E0,-4.534850199E0,-5.673911197E0,1.157190534E1
1.544222129E1,5.414415275E0,-4.033597637E0,-2.786049154E0,7.303962798E0
1.545225029E1,2.819647840E0,-2.518087633E0,-1.738269040E0,4.160860311E0
1.546228029E1,5.394521293E-1,-2.611138469E-1,-3.365861982E-1,6.873713041E-1
1.547230929E1,-1.343719978E0,1.997763208E0,7.872346169E-1,2.533057354E0
1.548233929E1,-2.874101790E0,3.890283551E0,9.866965914E-1,4.936429618E0
1.549236829E1,-4.464772489E0,5.214008975E0,6.719111520E-1,6.897213029E0
1.550239829E1,-6.225183765E0,6.161262589E0,7.318965679E-1,8.789183249E0
1.551242729E1,-8.062922130E0,6.889712223E0,1.314680366E0,1.068677838E1
1.552245567E1,-1.049053872E1,7.336112055E0,2.265179184E0,1.300003767E1
1.553248567E1,-1.227964638E1,7.769734551E0,2.962078412E0,1.483011796E1
1.554251467E1,-1.211555012E1,8.163627555E0,2.712765416E0,1.485901967E1
1.555254467E1,-1.121615479E1,8.457101063E0,2.052735806E0,1.419642247E1
1.556257367E1,-1.057114142E1,8.790730909E0,1.406167656E0,1.382039393E1
1.557260367E1,-1.024492759E1,9.380893309E0,9.160101861E-1,1.392116286E1
1.558263267E1,-9.113008386E0,1.010820566E1,4.182150829E-1,1.361608047E1
1.559266167E1,-8.120938203E0,1.073507162E1,-3.199011912E-2,1.346077350E1
1.560269167E1,-7.273942119E0,1.119941304E1,-2.592807448E-1,1.335680774E1
1.561272067E1,-6.307024319E0,1.145674667E1,-2.180999927E-1,1.307987643E1
1.562275067E1,-5.516631621E0,1.143339055E1,5.362364531E-2,1.269482254E1
1.563277967E1,-4.861263412E0,1.114612620E1,3.546511344E-1,1.216526977E1
1.564280967E1,-4.150930206E0,1.076528301E1,6.190914258E-1,1.155442833E1
1.565283867E1,-3.598194664E0,1.032047479E1,8.113268264E-1,1.095981095E1
1.566286867E1,-3.188101948E0,9.866404581E0,8.932369622E-1,1.040710362E1
1.567289767E1,-2.861403684E0,9.412093467E0,9.423091348E-1,9.882463305E0
1.568292667E1,-2.551310343E0,9.065205059E0,7.715985775E-1,9.448941295E0
1.569295667E1,-2.359266146E0,8.871261102E0,2.082719743E-1,9.181981676E0
1.570298567E1,-2.267833235E0,8.810997359E0,-7.731188536E-1,9.130961329E0
1.571301567E1,-2.120660571E0,8.849279664E0,-2.131142875E0,9.346053808E0
1.572304467E1,-1.975500227E0,8.962423872E0,-3.267714128E0,9.741950443E0
1.573307467E1,-2.053247145E0,9.032084091E0,-2.972214561E0,9.727714339E0
1.574310367E1,-2.438071411E0,9.061758710E0,-1.718981999E0,9.540155252E0
1.575313267E1,-2.825312330E0,9.106867640E0,-3.697767484E-1,9.542230495E0
1.576316267E1,-2.959898863E0,9.120314482E0,6.780244160E-1,9.612536327E0
1.577319167E1,-2.977010154E0,9.045151448E0,1.285131462E0,9.608793736E0
1.578322167E1,-3.039016076E0,8.862577987E0,1.538168550E0,9.494570541E0
1.579325067E1,-3.173797320E0,8.533034760E0,1.518445891E0,9.229916011E0
1.580328067E1,-3.244272641E0,6.107605614E0,-2.476157835E0,7.345713643E0
1.581330967E1,-2.811174055E0,1.604380081E0,-5.763716244E0,6.610382738E0
1.582333867E1,-1.634303792E0,-1.552762615E0,-5.593671026E0,6.030852027E0
1.583336867E1,8.053625934E-1,-5.351098700E0,1.210961870E0,5.545204672E0
1.584339767E1,8.294973561E0,-1.966948616E1,3.345117230E0,2.160752372E1
1.585342767E1,1.852668645E1,-4.157756245E1,6.116649503E0,4.592760838E1
1.586345667E1,2.936808500E1,-7.086765963E1,1.508898791E1,7.818175717E1
1.587348667E1,2.973543516E1,-8.063432942E1,7.033913332E0,8.622973456E1
1.588351567E1,1.523783697E1,-5.947512241E1,-1.623414639E1,6.350613648E1
1.589354467E1,8.195567971E0,-2.843564590E1,-1.311201974E1,3.236785989E1
1.590357467E1,8.056625848E0,-1.276758015E1,-2.840922350E0,1.536200386E1
1.591360367E1,6.602651356E0,-5.976193535E0,-3.453696517E0,9.551853942E0
1.592363367E1,6.634386535E0,-3.503820603E0,-5.345242714E0,9.212136733E0
1.593366267E1,6.838042132E0,-1.501818749E0,-7.174140088E0,1.002409925E1
1.594369267E1,5.404931091E0,-2.657594597E-1,-6.403282937E0,8.383671067E0
1.595372167E1,2.780499270E0,4.523587292E-1,-3.008786556E0,4.121723080E0
1.596375067E1,2.477377564E-1,1.884205018E0,-2.472033574E-1,1.916432113E0
1.597378067E1,-1.552913181E0,4.062972879E0,7.433641273E-1,4.412695117E0
1.598380967E1,-2.947611816E0,6.055205791E0,2.217591619E-1,6.738182968E0
1.599383967E1,-4.043679114E0,7.762105688E0,-1.500622408E0,8.879948936E0
1.600386867E1,-5.502312375E0,8.487588446E0,-1.748191180E0,1.026502662E1
1.601389867E1,-7.174060566E0,8.334045240E0,4.799570024E-2,1.099662488E1
1.602392767E1,-9.318677765E0,8.402049528E0,1.688115717E0,1.266024985E1
1.603395667E1,-1.210476902E1,8.947659068E0,3.193041676E0,1.538770779E1
1.604398667E1,-1.292214779E1,9.581241721E0,2.864266189E0,1.633970982E1
1.605401567E1,-1.191909069E1,1.015127391E1,1.370977943E0,1.571600030E1
1.606404567E1,-1.117713281E1,1.069470478E1,1.882908690E-1,1.547063223E1
1.607407467E1,-9.899076483E0,1.092249359E1,-4.640233397E-1,1.474814901E1
1.608410467E1,-8.283510679E0,1.086148140E1,-6.942223728E-1,1.367736349E1
1.609413367E1,-6.716569735E0,1.045539578E1,-4.286347481E-1,1.243428075E1
1.610416267E1,-5.816530634E0,9.726246822E0,1.493250239E-1,1.133376389E1
1.611419267E1,-5.696758608E0,9.042823087E0,8.902140979E-1,1.072465334E1
1.612422167E1,-5.826939847E0,8.590910500E0,1.667911541E0,1.051374815E1
1.613425167E1,-5.984512954E0,8.380168077E0,2.385047543E0,1.057024428E1
1.614428067E1,-5.964763398E0,8.497678986E0,3.045468478E0,1.081960391E1
1.615431067E1,-5.725122281E0,8.732655194E0,3.410966234E0,1.098503448E1
1.616433967E1,-5.406786997E0,8.800981078E0,3.362436976E0,1.086262381E1
1.617436967E1,-5.175309763E0,8.674157894E0,3.274034969E0,1.061810488E1
1.618439867E1,-4.937830946E0,8.751335878E0,3.414880360E0,1.061270286E1
1.619442767E1,-4.603043936E0,8.981963512E0,3.571309751E0,1.070597662E1
1.620445767E1,-4.264094001E0,9.180415673E0,3.658801639E0,1.076333401E1
1.621448667E1,-4.030950603E0,9.316548209E0,3.680643328E0,1.079785945E1
1.622451667E1,-3.868833918E0,9.329143696E0,3.664202420E0,1.074370408E1
1.623454567E1,-3.646410804E0,9.264391045E0,3.636486325E0,1.059949461E1
1.624457567E1,-3.336613040E0,9.124661302E0,3.529505668E0,1.033681966E1
1.625460467E1,-3.042109545E0,9.008384741E0,3.281812058E0,1.005861405E1
1.626463367E1,-2.715461567E0,9.123237505E0,2.984234097E0,9.975612625E0
1.627466367E1,-2.665574877E0,9.282009290E0,2.677878588E0,1.002157770E1
1.628469267E1,-3.351240142E0,9.148936602E0,2.457735597E0,1.004859770E1
1.629472267E1,-3.373835538E0,8.417320116E0,1.754495502E0,9.236465701E0
1.630475167E1,-2.973401545E0,5.134093325E0,-3.761143116E0,7.024687079E0
1.631478167E1,-1.221674846E0,-7.323577963E0,-2.717524816E1,2.817128673E1
1.632481067E1,2.138901399E0,-1.196778864E1,-1.320594240E1,1.794992420E1
1.633483967E1,5.983214872E0,-1.656740026E1,8.510848085E0,1.956303010E1
1.634486967E1,1.437155092E1,-3.826401083E1,7.787360398E0,4.160912139E1
1.635489867E1,2.285817633E1,-6.607520684E1,1.595020560E1,7.171358478E1
1.636492867E1,2.124686146E1,-7.901922555E1,7.738897505E0,8.219098286E1
1.637495767E1,7.489276360E0,-6.406034052E1,-1.051980052E1,6.534893030E1
1.638498667E1,2.020495428E0,-3.305894108E1,-4.305921181E0,3.339935545E1
1.639501667E1,2.989203353E0,-1.546710396E1,9.267521060E-1,1.578054217E1
1.640504567E1,2.826789045E0,-8.126864356E0,1.603388758E-1,8.605949635E0
1.641507567E1,3.423866069E0,-6.040867249E0,-8.931107354E-1,7.000898711E0
1.642510467E1,4.069720274E0,-5.693179527E0,-1.204443394E0,7.101098515E0
1.643513467E1,4.798908412E0,-4.686628715E0,-1.658199023E0,6.909676885E0
1.644516367E1,4.656036960E0,-2.836589563E0,-1.280446672E0,5.600398575E0
1.645519367E1,3.501005169E0,-6.167263001E-1,-4.421705407E-1,3.582304190E0
1.646522267E1,1.895576390E0,1.717374600E0,1.942105901E-1,2.565210151E0
1.647525167E1,2.343388617E-1,3.957877949E0,3.584021598E-1,3.980975341E0
1.648528167E1,-1.428532379E0,5.963646580E0,3.982784164E-1,6.145275501E0
1.649531067E1,-2.974585314E0,8.006795876E0,-6.973395234E-1,8.569902007E0
1.650534067E1,-4.497232430E0,1.008828653E1,-2.493969038E0,1.132336109E1
1.651536967E1,-5.999902241E0,1.189169414E1,-3.076821249E0,1.367033450E1
1.652540004E1,-7.164084046E0,1.295491909E1,-2.778554193E0,1.506235016E1
1.653542904E1,-7.943885098E0,1.343207411E1,-3.157488266E0,1.592154696E1
1.654545804E1,-8.563942557E0,1.354577906E1,-3.267806515E0,1.635566575E1
1.655548804E1,-8.528373944E0,1.339017062E1,-1.710434539E0,1.596732344E1
1.656551704E1,-7.902825365E0,1.298181979E1,1.612136193E-1,1.519895666E1
1.657554704E1,-7.210222671E0,1.233200351E1,1.267987425E0,1.434131841E1
1.658557604E1,-6.392035818E0,1.159947837E1,1.775321091E0,1.336255160E1
1.659560604E1,-5.428374918E0,1.086500610E1,2.041126159E0,1.231591685E1
1.660563504E1,-4.667495748E0,1.024310560E1,2.276126926E0,1.148422756E1
1.661566404E1,-4.217453978E0,9.775353493E0,2.504454850E0,1.093694418E1
1.662569404E1,-3.958730473E0,9.372168093E0,2.606230024E0,1.050245289E1
1.663572304E1,-3.975855213E0,9.011745136E0,2.613292583E0,1.019059729E1
1.664575304E1,-4.244963666E0,8.698847178E0,2.593037828E0,1.002065387E1
1.665578204E1,-4.533320860E0,8.558050902E0,2.570461729E0,1.001990553E1
1.666581204E1,-4.796937023E0,8.540257241E0,2.530198971E0,1.011674381E1
1.667584104E1,-4.993777106E0,8.611048311E0,2.460054603E0,1.025377157E1
1.668587004E1,-4.994204537E0,8.760054662E0,2.334939390E0,1.035048688E1
1.669590004E1,-4.762898042E0,8.861736572E0,2.052299165E0,1.026778967E1
1.670592904E1,-4.476530363E0,8.898638350E0,1.727921222E0,1.010993572E1
