"Time (s)","Linear Acceleration x (m/s^2)","Linear Acceleration y (m/s^2)","Linear Acceleration z (m/s^2)","Absolute acceleration (m/s^2)"
-2.707083331E-3,-4.235822421E-1,6.991091833E-1,8.217817211E-1,1.159094803E0
7.326916661E-3,3.335982710E-1,1.458826511E0,1.325086071E0,1.998828580E0
1.736091667E-2,4.566301203E-1,1.525466351E0,1.608895885E0,2.263648520E0
2.739591667E-2,4.617417562E-1,1.228126810E0,2.030177248E0,2.417254759E0
3.742991667E-2,-2.522822124E-1,5.638747796E-1,2.081517556E0,2.171247664E0
4.746391666E-2,-5.930234420E-1,2.140947779E-1,2.043406574E0,2.138462953E0
5.749791667E-2,1.159174250E0,4.633108565E-1,1.468889569E0,1.927687334E0
6.753191666E-2,9.857353091E-1,8.303677726E-1,9.516162211E-1,1.602110536E0
7.756691666E-2,5.547066379E-1,5.352022999E-1,7.555169803E-1,1.079327042E0
8.760091667E-2,1.194951609E0,-7.539790164E-1,1.243464788E0,1.882179158E0
9.763491667E-2,2.614409986E0,-1.544860103E0,1.057743185E0,3.215673018E0
1.076689167E-1,2.921235026E0,-2.491653541E0,-7.135099983E-1,3.905259014E0
1.177033333E-1,3.016307244E0,-3.271680003E0,-2.262619858E0,4.992138625E0
1.277373333E-1,2.861450754E0,-3.059499165E0,-2.268766451E0,4.764004279E0
1.377713333E-1,3.035667375E0,-2.811148620E0,-1.736195033E0,4.486892707E0
1.478053333E-1,2.457190052E0,-2.467904490E0,-1.737567374E0,3.891975835E0
1.578393333E-1,1.634391500E0,-2.527489664E0,-2.608368058E0,3.982841134E0
1.678743333E-1,2.080218889E0,-3.106760454E0,-3.558630649E0,5.161697709E0
1.779083333E-1,2.393616199E0,-3.643441296E0,-3.663663014E0,5.694426193E0
1.879423333E-1,2.452588878E0,-4.384556292E0,-3.414536544E0,6.074420622E0
1.979763333E-1,2.092895945E0,-4.878030887E0,-3.271253448E0,6.235102076E0
2.080113333E-1,7.755360925E-1,-5.207495762E0,2.324928957E-1,5.270058945E0
2.180453333E-1,1.373394012E-2,-3.977306785E0,8.334960330E-1,4.063726555E0
2.280793333E-1,-2.993955678E0,-6.418741514E-1,-6.233242983E-1,3.124788986E0
2.381133333E-1,-4.840309914E0,3.624535494E-1,1.460398827E0,5.068800388E0
2.481483333E-1,-4.970171896E0,5.211856286E-2,4.954596668E0,7.018073323E0
2.581823333E-1,-4.362969833E0,-3.709129721E-1,8.029152705E0,9.145511214E0
2.682163333E-1,-2.274810133E0,-6.928604101E-1,7.689426552E0,8.048732657E0
2.782503333E-1,2.164709693E0,1.331275330E-1,9.845534699E0,1.008157946E1
2.882853333E-1,5.378461915E0,2.431831701E0,1.396901690E1,1.516492965E1
2.983193333E-1,2.678911791E0,4.260135144E0,1.348273205E1,1.439129540E1
3.083533333E-1,-2.560630220E0,4.080814489E0,9.661367286E0,1.079592015E1
3.183873333E-1,-6.560744362E0,1.963116263E0,6.873855159E0,9.702941656E0
3.284213333E-1,-9.366553012E0,1.241369146E0,4.214881203E0,1.034594298E1
3.384563333E-1,-7.630762607E0,1.931304778E0,2.367841673E-1,7.874931292E0
3.484903333E-1,-2.294799278E0,2.492011683E0,-3.121171795E0,4.606293448E0
3.585243333E-1,1.638479581E0,2.262354979E0,-5.142576465E0,5.852260938E0
3.685583333E-1,2.768443188E0,7.306265527E-1,-6.453951985E0,7.060565775E0
3.785933333E-1,2.100400262E0,-1.709456885E0,-6.923831311E0,7.434605848E0
3.886273333E-1,1.768384247E0,-3.989130147E0,-7.570018807E0,8.737592741E0
3.986613333E-1,2.631120744E0,-6.318404755E0,-8.127177182E0,1.062525501E1
4.086953333E-1,4.222158940E0,-8.550262996E0,-8.099761927E0,1.251158530E1
4.187293333E-1,6.692647022E0,-1.026334632E1,-7.548189397E0,1.439107241E1
4.287643333E-1,8.833482242E0,-1.162319351E1,-7.050705366E0,1.621238668E1
4.387983333E-1,1.032969585E1,-1.326020807E1,-7.284081191E0,1.831921322E1
4.488323333E-1,1.172554668E1,-1.444342256E1,-7.139411720E0,1.992666806E1
4.588663333E-1,1.305098417E1,-1.510177227E1,-6.815757809E0,2.109137899E1
4.689013333E-1,1.351948063E1,-1.525676558E1,-6.225999452E0,2.131450965E1
4.789353333E-1,1.356239685E1,-1.487931495E1,-5.504437838E0,2.087178616E1
4.889693333E-1,1.305372183E1,-1.443926519E1,-4.471545904E0,1.997214950E1
4.990033333E-1,1.222450128E1,-1.434642193E1,-4.258368115E0,1.932335253E1
5.090383333E-1,1.046339477E1,-1.339804214E1,-3.013812822E0,1.726479746E1
5.190723333E-1,9.473236046E0,-1.193766495E1,-1.141051390E0,1.528240963E1
5.291063333E-1,8.082359444E0,-1.117600547E1,2.230034494E-1,1.379410610E1
5.391403333E-1,6.826407927E0,-1.066648261E1,1.431574978E0,1.274453229E1
5.491743333E-1,5.678739243E0,-9.846927506E0,3.013672489E0,1.175977392E1
5.592093333E-1,3.965008628E0,-9.075164621E0,3.984601479E0,1.067506231E1
5.692433333E-1,2.765142435E0,-8.495403249E0,4.366970791E0,9.944260804E0
5.792773333E-1,1.428291766E0,-7.619549401E0,4.953661698E0,9.199799708E0
5.893113333E-1,4.190547431E-1,-6.747652949E0,5.859672561E0,8.946630076E0
5.993463333E-1,-4.340721470E-1,-6.835028477E0,5.834295645E0,8.996946070E0
6.093803333E-1,-2.395569170E0,-7.201154809E0,5.366595576E0,9.294930355E0
6.194143333E-1,-5.442662589E0,-7.121649048E0,4.896684090E0,1.021361720E1
6.294483333E-1,-8.884927799E0,-6.337411714E0,4.245618846E0,1.171025229E1
6.394833333E-1,-1.259303375E1,-5.399163398E0,3.079820285E0,1.404353080E1
6.495173333E-1,-1.614076986E1,-4.541557540E0,1.324817684E0,1.681979009E1
6.595513333E-1,-1.978766540E1,-3.747437535E0,-4.029998969E-1,2.014342074E1
6.695853333E-1,-2.296734385E1,-3.258059791E0,-2.975915848E0,2.338738789E1
6.796193333E-1,-2.483648352E1,-2.938299248E0,-6.671008816E0,2.588410467E1
6.896543333E-1,-2.464166131E1,-2.607787137E0,-1.012994678E1,2.676990563E1
6.996883333E-1,-2.206796256E1,-2.225332164E0,-1.207446641E1,2.525351092E1
7.097223333E-1,-2.000888194E1,-2.155075529E0,-1.355453235E1,2.426365706E1
7.197563333E-1,-1.897071816E1,-3.031848851E0,-1.457941126E1,2.411720314E1
7.297913333E-1,-1.855918644E1,-4.486965888E0,-1.464452702E1,2.406321749E1
7.398253333E-1,-1.814353829E1,-4.628441610E0,-1.345071971E1,2.305498458E1
7.498593333E-1,-1.891036554E1,-2.922722265E0,-1.112533233E1,2.213407440E1
7.598933333E-1,-2.116449991E1,-7.878146607E-1,-8.022534242E0,2.264768783E1
7.699273333E-1,-2.291212742E1,9.169583121E-1,-5.629554219E0,2.361140141E1
7.799623333E-1,-2.278001309E1,2.669364750E0,-3.970398592E0,2.327699658E1
7.899963333E-1,-2.000499003E1,4.581584363E0,-2.675400538E0,2.069657724E1
8.000303333E-1,-1.642170519E1,5.759006896E0,-3.372207381E0,1.772597936E1
8.100643333E-1,-1.230643715E1,6.430901676E0,-4.640072014E0,1.464018989E1
8.200993333E-1,-6.713758979E0,6.487456530E0,-4.775597609E0,1.048656209E1
8.301333333E-1,-2.142053195E0,5.528527197E0,-4.325915151E0,7.339383267E0
8.401673333E-1,1.756248643E0,3.878423936E0,-4.490531813E0,6.188009170E0
8.502013333E-1,5.823658390E0,2.610048548E0,-3.622840093E0,7.338414053E0
8.602363333E-1,8.947429857E0,1.239417491E0,-2.650051689E0,9.413576935E0
8.702703333E-1,1.115057242E1,5.528780673E-1,-1.210339580E0,1.122968661E1
8.803043333E-1,1.405279581E1,-5.419002854E-1,1.693176044E0,1.416480043E1
8.903383333E-1,1.853670273E1,-4.475479910E0,3.931683007E0,1.947042372E1
9.003723333E-1,2.415249728E1,-9.283934194E0,6.202984811E0,2.660848698E1
9.104073333E-1,2.181395016E1,-1.250920806E1,3.643750321E0,2.540877062E1
9.204413333E-1,1.610848972E1,-1.061816122E1,-4.095389843E-2,1.929327515E1
9.304753333E-1,1.392326829E1,-4.667353076E0,1.394246061E0,1.475077987E1
9.405093333E-1,1.271905645E1,-1.096190967E0,1.372128967E0,1.283973401E1
9.505443333E-1,1.107581577E1,-2.679790628E-1,1.465792884E0,1.117560095E1
9.605783333E-1,1.066448637E1,1.772868477E-2,1.201426523E0,1.073196205E1
9.706123333E-1,1.169928449E1,1.245907170E0,-6.600684938E-1,1.178393961E1
9.806463333E-1,1.011771440E1,4.736175097E0,4.583591419E-1,1.118076886E1
9.906803333E-1,7.184586723E0,5.688505263E0,-4.205428594E-1,9.173561730E0
1.000715333E0,7.447781010E0,4.540236070E0,8.324107897E-1,8.762196828E0
1.010749333E0,4.852484402E0,4.255647406E0,4.298084743E0,7.754396958E0
1.020783333E0,3.467584823E0,3.348322674E0,3.641639476E0,6.041270339E0
1.030817333E0,1.163029904E0,1.632055976E0,3.084473500E0,3.678345013E0
1.040852333E0,3.587249261E-1,2.030367283E0,2.513388226E0,3.250876074E0
1.050886333E0,-1.269079685E-2,2.654001483E0,4.470972292E0,5.199372863E0
1.060920333E0,-8.315570962E-1,-2.304728435E0,5.044919193E0,5.608428481E0
1.070954333E0,1.140689448E0,-3.308910102E0,5.781909270E0,6.758737551E0
1.080989333E0,1.543546818E0,-3.430969851E0,3.312682725E0,5.012779443E0
1.091023333E0,1.179233124E0,-3.410703694E0,-7.327251184E-1,3.682441656E0
1.101057333E0,-1.058179972E0,-4.384090853E0,-4.604307812E0,6.445125902E0
1.111091667E0,-7.514397753E0,-5.708751247E0,-7.595127921E0,1.211371052E1
1.121125667E0,-1.207244912E1,-3.952197964E0,-6.863888580E0,1.443872788E1
1.131160667E0,-1.222040005E1,-2.517616348E0,-6.316378695E0,1.398474916E1
1.141194667E0,-1.288487997E1,-1.068031800E0,-6.114436331E0,1.430199830E1
1.151228667E0,-1.240813777E1,1.399959960E0,-7.816058532E0,1.473134555E1
1.161262667E0,-1.338006429E1,2.445032813E0,-1.320168446E1,1.895491436E1
1.171297667E0,-1.244300822E1,4.136563304E0,-1.321343151E1,1.861543397E1
1.181331667E0,-1.076019593E1,4.489206834E0,-9.527583577E0,1.505688027E1
1.191365667E0,-1.427511280E1,1.674121576E0,-1.071730544E1,1.792880822E1
1.201399667E0,-1.844743095E1,-2.345829830E-3,-1.153563964E1,2.175726766E1
1.211433667E0,-1.868971968E1,6.946824025E-1,-8.538031790E0,2.055933346E1
1.221468667E0,-1.625498586E1,5.068690683E-1,-4.015013432E0,1.675117353E1
1.231502667E0,-1.213030381E1,-1.077571971E0,-4.765580159E-1,1.218739264E1
1.241536667E0,-6.436057166E0,-1.253894759E0,9.472474739E-1,6.625131069E0
1.251570667E0,-1.533604213E0,-8.017802236E-1,7.586753538E-1,1.889545369E0
1.261605667E0,1.638279313E0,5.391534828E-2,-3.301259020E-1,1.672079270E0
1.271639667E0,3.426074855E0,5.602852470E-1,-8.739551108E-1,3.579903072E0
1.281673667E0,4.973508902E0,1.123306552E0,-8.513462667E-1,5.169371226E0
1.291707667E0,7.763975628E0,1.929478693E0,5.495344833E-2,8.000326585E0
1.301741667E0,8.983343455E0,2.675016376E0,1.517036712E0,9.495134156E0
1.311776667E0,9.310479383E0,3.732980586E0,1.739550165E0,1.018067803E1
1.321810667E0,8.541398617E0,5.193412743E0,3.340700244E0,1.053979622E1
1.331844667E0,8.790960120E0,5.493259131E0,6.455403264E0,1.221184290E1
1.341878667E0,1.003386182E1,4.718654207E0,4.385105930E0,1.192364183E1
1.351913667E0,7.328983129E0,4.585539127E0,3.275473968E0,9.244992835E0
1.361947667E0,9.923178706E0,5.538351688E0,1.908515986E0,1.152324817E1
1.371981667E0,1.099610068E1,5.951272702E0,1.791983317E0,1.263103642E1
1.382015667E0,1.301672650E1,4.813187897E0,2.204616502E0,1.405212726E1
1.392049667E0,1.253206366E1,3.962799258E0,1.389727625E0,1.321694898E1
1.402084667E0,1.279626308E1,3.570820924E0,7.742350870E-1,1.330768766E1
1.412118667E0,1.383681838E1,2.331015178E0,3.069384760E-1,1.403514823E1
1.422152667E0,1.422357544E1,6.972370510E-1,-2.086608142E-1,1.424218302E1
1.432186667E0,1.410832565E1,-5.668812717E-1,-2.183019957E-1,1.412139734E1
1.442221667E0,1.347526398E1,-1.106607782E0,-1.600739604E-1,1.352157328E1
1.452255667E0,1.261947953E1,-1.330483928E0,-4.212123656E-1,1.269641174E1
1.462289667E0,1.168997807E1,-1.592217141E0,-1.067718535E0,1.184612871E1
1.472323667E0,1.005164671E1,-1.808482552E0,-1.202607953E0,1.028360232E1
1.482358667E0,7.585053753E0,-1.966700021E0,-6.744067436E-1,7.864844173E0
1.492392667E0,5.829567001E0,-2.294762733E0,-6.775937685E-1,6.301501467E0
1.502426667E0,4.496923989E0,-2.508115499E0,-1.955515906E0,5.507904427E0
1.512460667E0,-5.650585485E-1,-3.805576108E0,-6.241482294E0,7.331971215E0
1.522494667E0,-8.855637342E0,-5.397341405E0,-9.472485264E0,1.404569628E1
1.532529667E0,-9.584390447E0,-4.481194979E0,-7.773548105E0,1.312896412E1
1.542563667E0,-7.166145190E0,-3.057982104E0,-5.630845284E0,9.613080154E0
1.552597667E0,-5.497941581E0,-2.083816681E0,-3.675117125E0,6.933695946E0
1.562631667E0,-5.166451231E0,-2.018833942E0,-2.368428002E0,6.031364689E0
1.572665667E0,-7.507291632E0,-4.449045818E0,-2.367042943E0,9.041920627E0
1.582700667E0,-1.176439207E1,-8.814118602E0,-3.567804345E0,1.512675892E1
1.592734667E0,-1.510795628E1,-1.260025740E1,-3.441190492E0,1.997144515E1
1.602768667E0,-1.989189553E1,-1.534324824E1,-2.739857905E0,2.527072606E1
1.612802667E0,-2.141564718E1,-1.832735370E1,-2.477650044E0,2.829594649E1
1.622837667E0,-2.503179455E1,-2.487028510E1,-4.042140419E0,3.551704828E1
1.632871667E0,-3.012065674E1,-2.904468486E1,-2.563970150E0,4.192161285E1
1.642905667E0,-2.489946505E1,-1.950080217E1,6.173292211E-1,3.163298500E1
1.652939667E0,-1.216816102E1,-4.314238846E0,-4.415547558E-1,1.291788567E1
1.662973667E0,-4.200127509E0,-3.041060847E-1,8.664299635E-1,4.299331632E0
1.673008667E0,2.470059773E0,1.775605851E0,1.600403974E0,3.437333894E0
1.683042667E0,6.698993005E0,3.575323280E0,1.284031016E0,7.701180396E0
1.693076667E0,8.748922148E0,4.144970723E0,6.620555969E-1,9.703748691E0
1.703110667E0,9.919096180E0,5.195124223E0,2.753230926E-1,1.120060657E1
1.713145667E0,1.002919340E1,6.219170489E0,5.428952622E-1,1.181344730E1
1.723179667E0,9.533264732E0,6.838187728E0,1.068954125E0,1.178077293E1
1.733213667E0,9.190882189E0,7.018150992E0,1.307958992E0,1.163776248E1
1.743247667E0,9.133183619E0,7.061191762E0,1.317471242E0,1.161943211E1
1.753281667E0,1.052405730E1,7.781406178E0,2.063890539E0,1.325012107E1
1.763316667E0,1.832056742E1,1.189641284E1,4.605724300E0,2.232443785E1
1.773350667E0,1.772645406E1,1.255033738E1,3.563653407E0,2.200994701E1
1.783384667E0,1.239117617E1,1.018328859E1,2.107220746E0,1.617655688E1
1.793418667E0,8.079544594E0,8.240747067E0,1.500576800E0,1.163789860E1
1.803453667E0,2.169549726E0,7.812021030E0,8.428059697E-1,8.151376601E0
1.813487667E0,-4.796915973E0,8.557981905E0,3.377620733E-1,9.816493282E0
1.823521667E0,-2.057639281E0,9.571171646E0,2.411445529E0,1.008247369E1
1.833555667E0,1.379738826E0,1.112223331E1,5.016616330E0,1.227901431E1
1.843589667E0,6.866420424E-1,1.114101339E1,3.681776519E0,1.175368602E1
1.853624667E0,7.409094661E-1,9.982282362E0,8.565118432E-1,1.004631876E1
1.863658667E0,2.122648625E0,8.308727381E0,-3.229979999E-1,8.581661587E0
1.873692667E0,2.440554723E0,6.810242715E0,-6.390527236E-1,7.262513448E0
1.883726667E0,2.252141647E0,5.256820534E0,-5.856547809E-1,5.748851681E0
1.893761667E0,1.841327385E0,4.735138970E0,4.704073298E-1,5.102284847E0
1.903795667E0,7.342395473E-1,4.838084464E0,1.170142311E0,5.031441346E0
1.913829667E0,-1.371645695E-1,4.894216565E0,1.349913933E0,5.078822455E0
1.923863667E0,-3.982357317E-1,4.528276759E0,1.111121832E0,4.679580519E0
1.933897667E0,-1.242542682E0,3.276440513E0,5.798987818E-1,3.551796355E0
1.943932667E0,-1.757419256E0,2.303061540E0,-1.236968239E-1,2.899640633E0
1.953966667E0,-2.285787696E0,1.963262297E0,-7.670691781E-1,3.109279556E0
1.964000667E0,-2.868905370E0,1.072101608E0,-9.738911891E-1,3.213795875E0
1.974034667E0,-4.053950626E-1,5.906664294E-1,-4.629708409E-1,8.529794764E-1
1.984069667E0,-1.256030454E0,2.496563448E0,4.505994482E-1,2.830809321E0
1.994103667E0,4.181370226E-1,3.023149656E0,3.414176063E-1,3.070967013E0
2.004137667E0,2.518339648E0,2.858230693E0,7.274428900E-1,3.878232901E0
2.014171667E0,2.766279718E-1,3.011594973E0,1.156207227E-1,3.026482359E0
2.024205667E0,8.434909710E-1,-1.570380861E-1,-5.201864308E0,5.272146646E0
2.034240667E0,4.399480433E0,-1.968459887E0,-7.690538692E-1,4.880748534E0
2.044274667E0,-4.612769026E0,-1.540806112E1,1.875572773E0,1.619270696E1
2.054308667E0,-1.081774306E1,-4.038486611E1,5.299423347E0,4.214314729E1
2.064342667E0,-1.021581080E1,-5.597696717E1,7.267489716E0,5.736375206E1
2.074377667E0,-7.490152858E0,-5.868378831E1,8.474376662E0,5.976373867E1
2.084411667E0,2.753782757E-1,-5.018454227E1,4.866041172E0,5.042065522E1
2.094445667E0,6.419629998E0,-2.833610056E1,1.423778739E-1,2.905454380E1
2.104479667E0,6.352228559E0,-1.143414367E1,-1.513593287E0,1.316743763E1
2.114513542E0,6.714385800E0,-7.524928004E-1,-3.515899197E0,7.616480109E0
2.124548542E0,5.643377037E0,1.058507884E1,-5.848880939E0,1.334544891E1
2.134582542E0,3.214517038E0,2.004041714E1,-5.851843139E0,2.112334034E1
2.144616542E0,5.180801468E0,1.938290125E1,-2.262644416E0,2.019052066E1
2.154650542E0,4.797479937E0,1.879411003E1,-2.946715840E-1,1.939900041E1
2.164685542E0,5.104155580E0,1.597090006E1,7.858599365E-1,1.678510139E1
2.174719542E0,5.797317853E0,1.258017923E1,9.470372665E-1,1.388404420E1
2.184753542E0,5.638146703E0,1.049609240E1,5.358587229E-1,1.192660046E1
2.194787542E0,4.867711136E0,9.821299160E0,1.977996111E-1,1.096319541E1
2.204821542E0,4.322127909E0,9.679080257E0,-7.689322472E-2,1.060053286E1
2.214856542E0,3.966825358E0,9.644221496E0,-2.647642819E-1,1.043152970E1
2.224890542E0,3.693791085E0,9.616653044E0,-5.179802763E-1,1.031466974E1
2.234924542E0,3.561341710E0,9.669115432E0,-7.009595346E-1,1.032793747E1
2.244958542E0,3.475100542E0,9.788342498E0,-4.596496224E-1,1.039707894E1
2.254993542E0,3.411654744E0,9.882789649E0,-1.815993154E-1,1.045666762E1
2.265027542E0,3.261070814E0,9.967637426E0,4.535802126E-2,1.048763253E1
2.275061542E0,2.855902916E0,1.031264771E1,-3.379807591E-2,1.070084233E1
2.285095542E0,1.013590275E0,1.267843233E1,-6.171267613E-1,1.273384691E1
2.295129542E0,-1.188707075E0,1.660964756E1,-7.549446110E-1,1.666923387E1
2.305164542E0,-1.878351370E0,1.458601042E1,-1.226967307E-1,1.470696972E1
2.315198542E0,-1.027217942E0,1.101568651E1,1.216294604E0,1.113013471E1
2.325232542E0,1.429227613E-1,9.026344464E0,1.800313553E0,9.205240365E0
2.335266542E0,1.318291899E0,6.854782711E0,2.297360505E0,7.348728110E0
2.345301542E0,1.271088642E0,6.232571138E0,2.113413971E0,6.702770169E0
2.355335542E0,1.184209835E0,5.812959740E0,2.252112557E0,6.345460175E0
2.365369542E0,1.020913693E0,1.080547911E-1,3.814123567E0,3.949870782E0
2.375403542E0,4.285610732E-1,-1.076556835E1,5.954445401E0,1.231001814E1
2.385437542E0,2.710547567E0,-2.467903437E1,3.779077696E0,2.511340745E1
2.395472542E0,1.180434493E1,-4.888539854E1,2.001497386E0,5.033021698E1
2.405506542E0,2.444944930E1,-7.852414882E1,2.821860427E0,8.229082825E1
2.415540542E0,2.430394017E1,-8.291769053E1,4.323417220E0,8.651425805E1
2.425574542E0,1.081411545E1,-5.400895811E1,4.928144449E0,5.530098784E1
2.435609542E0,4.326092906E0,-2.586016024E1,3.457227066E0,2.644646264E1
2.445643542E0,2.108510350E0,-1.105361155E1,1.828733068E0,1.140054424E1
2.455677542E0,3.448610316E-1,-2.432337631E0,2.928870320E-1,2.474061094E0
2.465711542E0,-9.964142253E-1,3.240535685E0,-1.800284609E0,3.838611404E0
2.475745542E0,-2.049573340E0,8.195413604E0,-7.090704414E0,1.102921775E1
2.485780542E0,-3.800230583E0,1.226688541E1,-1.513585452E1,1.984974363E1
2.495814542E0,-5.927353497E0,1.634134105E1,-1.889986277E1,2.567835196E1
2.505848542E0,-5.955548186E0,1.503487544E1,-1.262430816E1,2.051558408E1
2.515882542E0,-5.626059923E0,1.301421804E1,-7.640619843E0,1.610594589E1
2.525917542E0,-5.978879746E0,1.124452782E1,-4.433039650E0,1.348474136E1
2.535951542E0,-6.768760228E0,9.631644135E0,-9.269129044E-1,1.180863461E1
2.545985542E0,-8.307688331E0,8.907217385E0,1.477559236E0,1.226944939E1
2.556019542E0,-1.019285580E1,8.251884259E0,2.893466599E0,1.342981951E1
2.566053542E0,-1.197831947E1,7.659591134E0,3.535723597E0,1.465096635E1
2.576088542E0,-1.432299097E1,7.728710486E0,3.914632527E0,1.673933642E1
2.586122542E0,-1.844485700E1,8.145730398E0,4.632716217E0,2.068883112E1
2.596156542E0,-1.880340593E1,8.146685833E0,4.273403646E0,2.093319238E1
2.606190542E0,-1.773863731E1,8.170274670E0,2.956431756E0,1.975229431E1
2.616224542E0,-1.638608044E1,8.565493823E0,2.402405734E0,1.864518356E1
2.626259542E0,-1.476309335E1,8.588927125E0,4.028798243E0,1.754849879E1
2.636293542E0,-1.161877652E1,8.689285226E0,3.150760460E0,1.484678204E1
2.646327542E0,-9.893173134E0,8.250083317E0,3.626770592E0,1.338253393E1
2.656361542E0,-6.690691128E0,9.263438534E0,-8.061462665E-1,1.145541414E1
2.666396542E0,-3.994873282E0,9.252832854E0,-2.522308738E0,1.038922373E1
2.676430542E0,-1.571261451E0,7.776540710E0,-2.971252109E0,8.471823124E0
2.686464542E0,3.743567555E0,8.510300785E0,-1.301577925E1,1.599531266E1
2.696498542E0,7.616186668E0,5.714658689E0,-1.719416330E1,1.965458916E1
2.706532542E0,6.277745556E0,3.363634193E-1,-1.621153520E1,1.738784355E1
2.716567542E0,1.702006509E0,1.386753731E0,-1.967066349E0,2.947755432E0
2.726601542E0,-4.924662432E-1,4.463095508E0,6.730586096E0,8.090892022E0
2.736635542E0,-1.092657495E0,5.022420276E0,9.399175798E0,1.071275462E1
2.746669542E0,-1.080099429E0,4.315207729E0,8.412426581E0,9.516120718E0
2.756704542E0,-8.493200603E-1,1.761996456E0,5.953530897E0,6.266618404E0
2.766738542E0,-1.092460005E0,-5.110254226E0,4.434557587E0,6.853719290E0
2.776772542E0,1.668204632E0,-1.576569086E1,4.939394492E0,1.660534652E1
2.786806542E0,6.970714286E0,-3.289166159E1,4.974883583E0,3.398825866E1
2.796840542E0,1.540723432E1,-5.184717231E1,6.371869941E0,5.446203148E1
2.806875542E0,1.913257493E1,-6.087307005E1,7.795448266E0,6.428339672E1
2.816909542E0,2.552614389E1,-6.302824147E1,4.868157864E0,6.817508494E1
2.826943542E0,1.492570208E1,-4.490941820E1,4.918628690E0,4.757967353E1
2.836977542E0,6.810413454E0,-2.189616435E1,3.762168717E0,2.323741935E1
2.847012542E0,4.962057130E0,-8.476592757E0,-1.290826650E0,9.906607349E0
2.857046542E0,3.373685849E0,2.159720557E0,-1.524760299E1,1.576501018E1
2.867080542E0,9.589942378E-1,1.249223476E1,-3.553871483E1,3.768256694E1
2.877114542E0,-2.000535665E0,1.542154596E1,-2.506792801E1,2.949961419E1
2.887148542E0,-3.413917324E0,1.438056265E1,-1.363024911E1,2.010569831E1
2.897183542E0,-4.642495100E0,1.340719537E1,-8.803111219E0,1.669731762E1
2.907217542E0,-5.722526702E0,1.262466952E1,-5.381432301E0,1.486907549E1
2.917251542E0,-6.437449973E0,1.188389746E1,-2.232056462E0,1.369853485E1
2.927285542E0,-6.755177146E0,1.134382290E1,1.878108126E-1,1.320416636E1
2.937319542E0,-7.059366846E0,1.061357115E1,1.789166129E0,1.287181682E1
2.947354542E0,-7.083495966E0,9.647144519E0,3.495051534E0,1.246830773E1
2.957388542E0,-7.146222557E0,9.092856542E0,3.688734705E0,1.213899916E1
2.967422542E0,-7.645762469E0,8.534491301E0,3.523635063E0,1.198796186E1
2.977456542E0,-8.305894990E0,8.055546452E0,3.847663196E0,1.219361441E1
2.987491542E0,-8.779908298E0,7.811099508E0,4.098654928E0,1.244584418E1
2.997525542E0,-9.004662988E0,7.844479508E0,4.464509364E0,1.274957482E1
3.007559542E0,-9.068771276E0,8.192005262E0,4.867555600E0,1.315464405E1
3.017593542E0,-9.009727846E0,8.404461504E0,4.760260363E0,1.320871863E1
3.027627542E0,-8.828971115E0,8.239079441E0,3.527170290E0,1.258070313E1
3.037662542E0,-8.523609048E0,8.086092306E0,2.117687262E0,1.193823267E1
3.047696542E0,-8.071349137E0,7.903764428E0,1.228426334E0,1.136332699E1
3.057730542E0,-7.648862078E0,7.691318126E0,1.115053427E0,1.090434820E1
3.067764542E0,-7.158918616E0,7.643311316E0,1.335288877E0,1.055714545E1
3.077799542E0,-6.650610804E0,7.608583533E0,1.436491317E0,1.020708944E1
3.087833542E0,-6.154539460E0,7.380011196E0,1.244507346E0,9.689773978E0
3.097867542E0,-5.549696456E0,7.019985849E0,9.745508281E-1,9.001615488E0
3.107901542E0,-4.942631510E0,6.486714519E0,9.222602018E-1,8.207169754E0
3.117935708E0,-4.307963322E0,5.384622542E0,2.075064569E0,7.201291610E0
3.127970708E0,-3.018714543E0,2.674232849E0,4.356731147E0,5.936772280E0
3.138004708E0,-1.579578531E-1,-1.869136743E0,3.610583160E0,4.068775443E0
3.148038708E0,3.123232353E0,-7.777107305E0,2.724176842E0,8.812441082E0
3.158072708E0,7.146664606E0,-1.564941547E1,2.107868618E0,1.733268962E1
3.168107708E0,1.209966557E1,-2.526210702E1,2.564958329E0,2.812747712E1
3.178141708E0,1.766383505E1,-3.582794151E1,5.763649585E0,4.035928788E1
3.188175708E0,2.155765500E1,-4.464278516E1,9.417972257E0,5.046195555E1
3.198209708E0,2.012074853E1,-4.582065296E1,6.345778495E0,5.044448101E1
3.208243708E0,1.569319708E1,-3.614808592E1,-1.040435281E-1,3.940775780E1
3.218278708E0,1.213798354E1,-1.966299809E1,-3.688116070E0,2.340013543E1
3.228312708E0,9.718073584E0,-8.692662578E0,-5.517205818E0,1.415778573E1
3.238346708E0,8.376146947E0,-2.660701223E0,-7.571599309E0,1.160035710E1
3.248380708E0,7.586040763E0,1.106229467E0,-9.377979641E0,1.211273133E1
3.258414708E0,6.314568397E0,3.186469991E0,-8.716100557E0,1.122487300E1
3.268449708E0,4.508600294E0,4.289564765E0,-6.721061566E0,9.159722216E0
3.278483708E0,2.684637970E0,5.014114891E0,-5.029550956E0,7.592431230E0
3.288517708E0,1.126884171E0,5.663256401E0,-3.709077753E0,6.862914744E0
3.298551708E0,-2.666423893E-1,6.187566288E0,-2.503301194E0,6.680089191E0
3.308586708E0,-1.427412052E0,6.691910858E0,-1.503785752E0,7.005751043E0
3.318620708E0,-2.419177887E0,7.278741513E0,-8.395280937E-1,7.716042191E0
3.328654708E0,-3.383822582E0,8.017806768E0,-3.415996009E-1,8.709315181E0
3.338688708E0,-4.075637949E0,8.539505289E0,2.841097035E-1,9.466503768E0
3.348722708E0,-4.803168693E0,8.718073407E0,4.121398258E-1,9.962183127E0
3.358757708E0,-5.422974429E0,8.672837008E0,2.704981164E-1,1.023229801E1
3.368791708E0,-6.065950634E0,8.519414256E0,2.193045008E-1,1.046060566E1
3.378825708E0,-7.690345734E0,8.375575674E0,2.234566087E-1,1.137284565E1
3.388859708E0,-1.022827005E1,9.194349003E0,2.756845236E-1,1.375607370E1
3.398894708E0,-1.231082607E1,8.984666095E0,-2.221316296E0,1.540178267E1
3.408928708E0,-1.301519804E1,8.573776404E0,-3.023756597E0,1.587602361E1
3.418962708E0,-1.432971644E1,9.477546029E0,-1.449253449E0,1.724137429E1
3.428996708E0,-1.550409345E1,9.342953065E0,4.323366934E-1,1.810675566E1
3.439030708E0,-1.599823696E1,8.458152393E0,2.850395424E0,1.831962559E1
3.449065708E0,-1.520405176E1,7.494366361E0,3.680701801E0,1.734578574E1
3.459099708E0,-1.327832508E1,6.652190137E0,3.410346429E0,1.523797931E1
3.469133708E0,-1.081209582E1,5.743795949E0,3.095911238E0,1.262843119E1
3.479167708E0,-8.980761909E0,5.454621899E0,2.917091689E0,1.090488003E1
3.489201708E0,-7.228127430E0,5.377132258E0,2.461849698E0,9.339169203E0
3.499236708E0,-5.880533672E0,5.223560402E0,2.004260049E0,8.116853940E0
3.509270708E0,-4.827394584E0,4.682708741E0,1.618053795E0,6.917340364E0
3.519304708E0,-3.282493843E0,3.327379702E0,1.210548472E0,4.828213864E0
3.529338708E0,-8.436038223E-1,6.140155309E-1,1.122830881E0,1.532785592E0
3.539373708E0,3.774215151E0,-4.642913761E0,1.643583323E0,6.205055547E0
3.549407708E0,1.131349573E1,-1.235455856E1,2.263268899E0,1.690422104E1
3.559441708E0,1.828233832E1,-2.240678532E1,2.396093665E0,2.901808380E1
3.569475708E0,2.308647736E1,-3.293617762E1,2.687714775E0,4.031130169E1
3.579509708E0,2.592566075E1,-4.098876655E1,4.502172450E0,4.870819669E1
3.589544708E0,2.615402259E1,-4.434994257E1,1.547757398E1,5.376342251E1
3.599578708E0,2.694516256E1,-3.293840657E1,9.430384727E0,4.358798652E1
3.609612708E0,2.430299993E1,-1.500746837E1,-3.788159591E0,2.881336610E1
3.619646708E0,1.746493617E1,-2.879328032E0,-1.189785828E1,2.132776493E1
3.629681708E0,1.266509717E1,3.269723232E0,-1.704869627E1,2.148845785E1
3.639715708E0,8.285682335E0,4.438048375E0,-1.171095904E1,1.501650315E1
3.649749708E0,5.140618232E0,4.931924089E0,-6.546038615E0,9.674732688E0
3.659783708E0,2.683016537E0,5.345759608E0,-3.786425892E0,7.079035566E0
3.669817708E0,4.737250400E-1,5.683115884E0,-1.752142144E0,5.965921861E0
3.679852708E0,-1.401364169E0,6.320322057E0,2.436745262E-1,6.478400243E0
3.689886708E0,-3.621604577E0,6.957413040E0,1.488187720E0,7.983502903E0
3.699920708E0,-5.457049663E0,7.376974152E0,1.388389197E0,9.280450594E0
3.709954708E0,-6.690166048E0,7.533187196E0,1.084957296E0,1.013332934E1
3.719988708E0,-7.660346010E0,7.566725655E0,1.337535962E0,1.085012629E1
3.730023708E0,-8.676756982E0,7.633665749E0,2.123994069E0,1.175033256E1
3.740057708E0,-9.519358299E0,7.529283010E0,2.593429592E0,1.241105000E1
3.750091708E0,-1.020262182E1,7.278854365E0,2.734050450E0,1.282771393E1
3.760125708E0,-1.071718732E1,6.960919030E0,2.575309070E0,1.303628454E1
3.770160708E0,-1.115041806E1,6.590058208E0,2.296566453E0,1.315427335E1
3.780194708E0,-1.101958193E1,6.287663603E0,1.511123862E0,1.277690865E1
3.790228708E0,-1.112747358E1,5.938041038E0,3.086686671E-2,1.261276942E1
3.800262708E0,-1.214349747E1,5.636147540E0,-2.874292994E0,1.369278095E1
3.810296708E0,-1.274769962E1,5.814769453E0,-3.703417064E0,1.449243552E1
3.820331708E0,-1.269446656E1,6.447328259E0,-1.609965341E0,1.432862559E1
3.830365708E0,-1.324288862E1,7.202211986E0,6.002435839E-1,1.508662483E1
3.840399708E0,-1.373145857E1,7.829035258E0,2.580294406E0,1.601576307E1
3.850433708E0,-1.330038312E1,8.784830484E0,3.696961153E0,1.636279192E1
3.860467708E0,-1.151735423E1,9.297603815E0,3.294933502E0,1.516415088E1
3.870502708E0,-9.085588453E0,9.078303992E0,1.813371263E0,1.297119255E1
3.880536708E0,-7.697024424E0,8.446432233E0,7.905926728E-1,1.145475618E1
3.890570708E0,-6.557604992E0,7.449681939E0,2.479698908E-1,9.927811103E0
3.900604708E0,-5.696383216E0,6.376840074E0,-4.998603398E-1,8.565204693E0
3.910639708E0,-5.152109181E0,4.885773185E0,-5.351033358E-1,7.120487638E0
3.920673708E0,-3.616653154E0,1.764392061E0,-1.240935136E0,4.211078175E0
3.930707708E0,-4.596753502E-1,-4.816923391E0,-1.741814792E0,5.142759099E0
3.940741708E0,6.767822335E0,-1.623506791E1,-4.649366748E-1,1.759536914E1
3.950775708E0,1.910052401E1,-3.174861046E1,5.029253771E-1,3.705478670E1
3.960810708E0,3.043613508E1,-4.676593256E1,1.032167976E0,5.580749176E1
3.970844708E0,3.484327039E1,-5.488731281E1,2.055972240E0,6.504535049E1
3.980878708E0,2.585476677E1,-4.891984098E1,1.362997897E1,5.698592925E1
3.990912708E0,1.931146348E1,-2.957489868E1,1.112932949E1,3.703335292E1
4.000946708E0,1.793483479E1,-1.371257557E1,-3.355717794E-1,2.257887588E1
4.010981708E0,1.325725522E1,-4.799862970E0,-1.847874513E0,1.421999089E1
4.021015708E0,9.435209849E0,1.939386946E0,-3.004763086E0,1.009024320E1
4.031049708E0,6.858005111E0,6.296384141E0,-4.072821345E0,1.016191719E1
4.041083708E0,4.672492486E0,8.723973248E0,-4.904139875E0,1.104493020E1
4.051118708E0,2.583311277E0,9.902550899E0,-4.844546807E0,1.132270485E1
4.061152708E0,8.205219385E-1,1.052108223E1,-4.004115976E0,1.128713305E1
4.071186708E0,-7.369815990E-1,1.079751988E1,-2.838974642E0,1.118880487E1
4.081220708E0,-1.916743896E0,1.085063248E1,-1.570014679E0,1.112991817E1
4.091254708E0,-2.923687641E0,1.075316641E1,-5.699386346E-1,1.115810769E1
4.101289708E0,-3.552325596E0,1.070870535E1,5.679535049E-1,1.129681188E1
4.111323708E0,-4.015749889E0,1.054830453E1,1.554372938E0,1.139337750E1
4.121357458E0,-4.446060522E0,1.026678916E1,1.529366005E0,1.129218200E1
4.131391458E0,-4.938575297E0,1.011035393E1,1.446284233E0,1.134462518E1
4.141426458E0,-5.544875427E0,9.977632656E0,1.437202923E0,1.150497063E1
4.151460458E0,-6.355407690E0,1.002922966E1,1.516294116E0,1.196978706E1
4.161494458E0,-7.100250578E0,1.008386955E1,1.151265891E0,1.238641984E1
4.171528458E0,-8.061063884E0,1.025541867E1,5.577840275E-1,1.305624318E1
4.181562458E0,-9.363697817E0,1.067093000E1,-7.064927548E-1,1.421431377E1
4.191597458E0,-9.928779169E0,1.166142260E1,-5.189807349E-1,1.532445020E1
4.201631458E0,-9.964262413E0,2.250378127E1,4.839357403E0,2.508238579E1
4.211665458E0,-1.136125930E1,1.420622441E1,-2.254312134E-1,1.819191700E1
4.221699458E0,-1.056986906E1,6.633449811E0,-7.428092265E-1,1.250106211E1
4.231733458E0,-9.668216130E0,7.512995006E0,-3.660028093E-1,1.224963082E1
4.241768458E0,-8.122454971E0,6.743037742E0,-1.142950420E0,1.061834113E1
4.251802458E0,-6.147578934E0,6.454070098E0,-1.933892171E0,9.120728399E0
4.261836458E0,-5.300762944E0,6.224040635E0,-3.343482349E0,8.832646479E0
4.271870458E0,-5.355578252E0,6.262620564E0,-2.372853321E0,8.575142426E0
4.281904458E0,-5.555189331E0,6.458730914E0,-7.027283174E-1,8.548050105E0
4.291939458E0,-4.513247076E0,5.414378437E0,-6.894586462E-1,7.082389869E0
4.301973458E0,-7.185640392E-1,-8.502950835E-1,-1.470000101E0,1.843972968E0
4.312007458E0,7.684320763E0,-1.110489280E1,-1.175507863E0,1.355541399E1
4.322041458E0,2.520476221E1,-3.210961053E1,3.406529367E-1,4.082184674E1
4.332076458E0,4.690227091E1,-5.622233505E1,2.766389646E0,7.326954952E1
4.342110458E0,4.862666159E1,-6.493775499E1,5.332567704E0,8.130129469E1
4.352144458E0,2.426370664E1,-4.696076178E1,7.029025644E0,5.332398905E1
4.362178458E0,1.098062193E1,-2.001499579E1,1.646744561E1,2.814872785E1
4.372212458E0,7.472412406E0,-3.926096578E0,1.364435376E1,1.604430027E1
4.382247458E0,6.240852549E0,2.418583810E-1,3.214840096E0,7.024381315E0
4.392281458E0,4.866185013E0,4.307972385E0,-7.592724130E0,9.994390545E0
4.402315458E0,1.953118547E0,6.794905468E0,-1.799126042E1,1.933056812E1
4.412349458E0,-1.504448826E0,6.485823988E0,-1.614473544E1,1.746372703E1
4.422384458E0,-4.386063704E0,5.748963718E0,-1.055428974E1,1.279379422E1
4.432418458E0,-6.169376185E0,5.631898953E0,-5.677520099E0,1.010018430E1
4.442452458E0,-7.375831021E0,5.981239682E0,-2.382929390E0,9.790631433E0
4.452486458E0,-8.063370026E0,6.512629378E0,-5.806782156E-1,1.038120729E1
4.462520458E0,-8.522323830E0,7.122226169E0,9.045408726E-2,1.110694787E1
4.472555458E0,-8.460966657E0,7.722777901E0,1.539435934E-1,1.145656816E1
4.482589458E0,-8.466955960E0,8.166143028E0,3.306229153E-1,1.176794573E1
4.492623458E0,-8.765922927E0,8.376836334E0,4.216093916E-1,1.213221110E1
4.502657458E0,-8.731873421E0,8.560927148E0,5.370673424E-1,1.224024217E1
4.512691458E0,-8.555908483E0,8.770072696E0,4.693655021E-1,1.226124174E1
4.522726458E0,-8.374671695E0,8.916022123E0,2.598444164E-1,1.223511731E1
4.532760458E0,-8.304386993E0,9.031921538E0,-2.288600206E-3,1.226941136E1
4.542794458E0,-8.467703819E0,9.356679989E0,-1.506922491E-1,1.262030810E1
4.552828458E0,-8.070481995E0,9.819830339E0,-1.488708414E-1,1.271156599E1
4.562863458E0,-7.050222386E0,1.024499308E1,-3.148738785E-1,1.244044471E1
4.572897458E0,-5.936535380E0,1.047118911E1,-6.218220024E-1,1.205300445E1
4.582931458E0,-5.219039919E0,1.067732919E1,-6.150889336E-1,1.190050716E1
4.592965458E0,-5.105388758E0,1.056823418E1,-1.731017031E-1,1.173808043E1
4.602999458E0,-5.279234666E0,9.148615590E0,-2.266832484E-1,1.056498325E1
4.613034458E0,-5.977507405E0,7.888782692E0,-8.330392192E-1,9.932645241E0
4.623068458E0,-5.697890629E0,7.453009005E0,-1.220400884E0,9.460585561E0
4.633102458E0,-5.351680498E0,7.352654997E0,-1.298452150E0,9.186294010E0
4.643136458E0,-5.143147738E0,7.325472461E0,-1.172532215E0,9.027145021E0
4.653170458E0,-4.869417646E0,7.216467497E0,-1.030894379E0,8.766491577E0
4.663205458E0,-3.852444465E0,5.747308372E0,-1.294403830E0,7.039059820E0
4.673239458E0,-4.012102103E-1,-3.074062532E-1,-1.654626520E0,1.730103222E0
4.683273458E0,7.923654901E0,-9.923782139E0,-2.300558639E0,1.290574791E1
4.693307458E0,2.574621906E1,-3.220929387E1,-8.921558851E-1,4.124442204E1
4.703342458E0,4.786936764E1,-5.817816788E1,2.848241894E0,7.539421767E1
4.713376458E0,4.675432700E1,-6.778619569E1,4.716443667E0,8.248139342E1
4.723410458E0,2.199004724E1,-5.070571162E1,7.505832167E0,5.577606014E1
4.733444458E0,1.116658327E1,-2.054155627E1,1.913763745E1,3.021419010E1
4.743478458E0,8.976757736E0,-2.543825907E0,1.558007217E1,1.816017286E1
4.753513458E0,7.052860065E0,6.034724164E-1,4.991929386E0,8.661776552E0
4.763547458E0,4.675562567E0,4.240700753E0,-2.248532892E0,6.700770729E0
4.773581458E0,2.586323763E0,7.495856817E0,-1.234007384E1,1.466814107E1
4.783615458E0,-1.011819738E-1,8.288545132E0,-1.454079975E1,1.673753493E1
4.793649458E0,-2.423169489E0,8.174099919E0,-1.147318553E1,1.429411229E1
4.803684458E0,-3.835415326E0,7.981392063E0,-6.998192106E0,1.128661698E1
4.813718458E0,-4.621187262E0,8.185644661E0,-3.223379662E0,9.937319894E0
4.823752458E0,-5.346716797E0,8.307091915E0,-1.374603948E0,9.974201352E0
4.833786458E0,-5.753552613E0,8.543418245E0,-1.078892564E0,1.035651351E1
4.843821458E0,-5.713971641E0,8.933758482E0,-7.140387328E-1,1.062879880E1
4.853855458E0,-6.031754948E0,9.089649929E0,-1.710335429E-1,1.091022713E1
4.863889458E0,-6.492893271E0,9.276083137E0,4.728921041E-2,1.132279196E1
4.873923458E0,-6.923812600E0,9.439876512E0,-7.883990899E-2,1.170712028E1
4.883957458E0,-7.419244258E0,9.412986921E0,-3.688651675E-1,1.199106207E1
4.893992458E0,-7.839953179E0,9.384456017E0,-6.573504156E-1,1.224601936E1
4.904026458E0,-7.950558525E0,9.416377137E0,-7.210581690E-1,1.234501779E1
4.914060458E0,-8.162192064E0,9.435313345E0,-7.344763595E-1,1.249743865E1
4.924094458E0,-8.592919604E0,9.572688414E0,-6.043671866E-1,1.287788377E1
4.934128458E0,-8.874901578E0,9.679591888E0,-4.263948990E-1,1.313926139E1
4.944163458E0,-8.760164589E0,9.578858981E0,-2.729673956E-1,1.298343307E1
4.954197458E0,-8.180181023E0,9.168524775E0,-1.357713242E-1,1.228802840E1
4.964231458E0,-7.718498324E0,8.692650298E0,1.075941767E-1,1.162535858E1
4.974265458E0,-7.274798151E0,8.176780867E0,3.504658802E-1,1.095012602E1
4.984299458E0,-7.047943726E0,7.603207603E0,3.261652905E-1,1.037249538E1
4.994334458E0,-6.741349651E0,7.026951637E0,3.580542505E-2,9.737819389E0
5.004368458E0,-6.478820193E0,6.897592515E0,1.419645488E-2,9.463196877E0
5.014402458E0,-6.096000060E0,6.876231467E0,2.455163261E-1,9.192608672E0
5.024436458E0,-5.691429455E0,6.765367674E0,4.175730586E-1,8.850815571E0
5.034471458E0,-5.267198757E0,6.568408892E0,5.744504193E-1,8.439038536E0
5.044505458E0,-3.217890296E0,4.105805488E0,2.544170308E-1,5.222756427E0
5.054539458E0,2.110551905E0,-2.601663641E0,1.798954002E-1,3.354913620E0
5.064573458E0,1.334089263E1,-1.562062845E1,-1.424651436E-1,2.054272975E1
5.074607458E0,3.340975531E1,-4.045335338E1,8.696066827E-1,5.247324809E1
5.084642458E0,4.643922289E1,-6.042663747E1,7.423654228E-1,7.621371953E1
5.094676458E0,3.432948023E1,-6.140786575E1,5.972802150E-1,7.035478614E1
5.104710458E0,1.644821295E1,-4.178729974E1,3.516393871E0,4.504538994E1
5.114744917E0,9.987680511E0,-1.503749499E1,1.283818528E1,2.215172722E1
5.124779917E0,8.674210519E0,-1.156561714E-1,8.912513793E0,1.243737137E1
5.134813917E0,6.944248034E0,3.388102452E0,-4.135747325E-1,7.737755685E0
5.144847917E0,3.551820397E0,5.340114121E0,-5.927711931E0,8.733270619E0
5.154881917E0,-3.715905547E-3,6.270061145E0,-8.565271044E0,1.061496814E1
5.164915917E0,-2.755496283E0,6.843968870E0,-8.237466195E0,1.105841394E1
5.174950917E0,-4.633394494E0,7.309463369E0,-6.478200388E0,1.081035057E1
5.184984917E0,-5.811007354E0,7.510016434E0,-3.962399601E0,1.028925478E1
5.195018917E0,-6.291571882E0,7.707735354E0,-1.754850574E0,1.010309663E1
5.205052917E0,-6.503307747E0,8.006772487E0,-9.830913444E-1,1.036184761E1
5.215086917E0,-6.547964687E0,8.332726108E0,-9.368784602E-1,1.063898055E1
5.225121917E0,-6.425103577E0,8.633968812E0,-8.810567003E-1,1.079831627E1
5.235155917E0,-6.643377798E0,8.704632413E0,-9.116851468E-1,1.098800545E1
5.245189917E0,-7.014218740E0,8.660732102E0,-9.376292427E-1,1.118421627E1
5.255223917E0,-7.364245348E0,8.625849953E0,-1.081861926E0,1.139332358E1
5.265257917E0,-7.629358690E0,8.785780656E0,-1.261209333E0,1.170417467E1
5.275292917E0,-7.830543839E0,9.079003903E0,-1.486059187E0,1.208114649E1
5.285326917E0,-7.806189601E0,9.428921753E0,-1.558747825E0,1.233980779E1
5.295360917E0,-7.611735767E0,9.753625824E0,-1.558444355E0,1.246998344E1
5.305394917E0,-7.658820471E0,1.017165730E1,-1.660958909E0,1.284051899E1
5.315429917E0,-7.986459260E0,1.094214959E1,-1.690845490E0,1.365185437E1
5.325463917E0,-8.902366535E0,1.202247764E1,-1.285329390E0,1.501479838E1
5.335497917E0,-9.245109851E0,1.278353369E1,-1.462578669E0,1.584392395E1
5.345531917E0,-6.579357803E0,1.051356622E1,-8.926448877E0,1.528085447E1
5.355565917E0,-4.055394888E0,8.423315851E0,-1.472581033E1,1.744270528E1
5.365600917E0,-3.866216412E0,7.188671004E0,-9.697505418E0,1.267541839E1
5.375634917E0,-5.511987762E0,6.941475869E0,-2.660379041E0,9.254388849E0
5.385668917E0,-5.925321590E0,6.943165714E0,-5.271623053E-1,9.143023907E0
5.395702917E0,-5.839600824E0,6.690819182E0,-2.723077565E-1,8.884939540E0
5.405736917E0,-5.849904202E0,6.280585549E0,1.211069459E-1,8.583810395E0
5.415771917E0,-4.163314024E0,3.353443666E0,1.635798778E-1,5.348413452E0
5.425805917E0,1.279859904E0,-2.947875525E0,-1.287622668E-2,3.213748168E0
5.435839917E0,1.427681200E1,-1.649219454E1,9.662599880E-1,2.183468571E1
5.445873917E0,3.639347719E1,-4.159979590E1,2.495176488E0,5.532860116E1
5.455907917E0,5.362888441E1,-6.375376867E1,2.255210266E0,8.334078375E1
5.465942917E0,3.976387778E1,-6.345024204E1,4.310118313E0,7.500450860E1
5.475976917E0,2.177813947E1,-4.088980359E1,8.641295958E0,4.712680121E1
5.486010917E0,1.410527106E1,-1.479117986E1,1.645682473E1,2.624051741E1
5.496044917E0,8.317102348E0,-1.914707603E0,1.419915396E1,1.656672176E1
5.506079917E0,4.534538543E0,6.990901798E-1,6.590036573E0,8.029903419E0
5.516113917E0,1.674437326E0,3.096867258E0,-9.226736730E-1,3.639457910E0
5.526147917E0,-1.487715849E0,5.676440703E0,-8.534973696E0,1.035765676E1
5.536181917E0,-4.098902265E0,6.401857386E0,-1.074854594E1,1.316495414E1
5.546215917E0,-5.935586377E0,6.470108426E0,-8.565818928E0,1.226648860E1
5.556250917E0,-7.167758437E0,6.606740899E0,-5.499890458E0,1.119261280E1
5.566284917E0,-7.951372458E0,6.840638296E0,-3.224405264E0,1.097339718E1
5.576318917E0,-8.463712510E0,7.102822768E0,-1.848220960E0,1.120269795E1
5.586352917E0,-8.849259784E0,7.375746821E0,-1.173103195E0,1.157960323E1
5.596386917E0,-9.144868695E0,7.558497453E0,-9.769817349E-1,1.190436897E1
5.606421917E0,-9.314449643E0,7.764131749E0,-1.953284170E0,1.228234640E1
5.616455917E0,-9.966280872E0,8.283313628E0,-7.469374777E0,1.495766020E1
5.626489917E0,-1.140907081E1,8.672711293E0,-1.178156183E1,1.855230490E1
5.636523917E0,-1.220677136E1,8.728183243E0,-9.962944450E0,1.801240439E1
5.646558917E0,-1.301650781E1,8.798091384E0,-7.426417623E0,1.737778946E1
5.656592917E0,-1.364998112E1,8.910080182E0,-4.682778323E0,1.695995066E1
5.666626917E0,-1.272117314E1,8.923957964E0,-1.399191928E0,1.560201941E1
5.676660917E0,-1.011255833E1,8.807579076E0,4.642653414E-1,1.341837648E1
5.686694917E0,-7.587358140E0,8.825187966E0,6.720545550E-1,1.165777009E1
5.696729917E0,-5.698782914E0,8.961284834E0,1.116500978E-1,1.062041517E1
5.706763917E0,-4.494236901E0,8.998408222E0,-6.895872849E-1,1.008191681E1
5.716797917E0,-2.378280999E0,9.319326221E0,-5.292490888E0,1.097800171E1
5.726831917E0,-2.018502113E0,8.837050213E0,-4.747462562E0,1.023260514E1
5.736865917E0,-4.149526289E0,7.020910878E0,2.188576274E-3,8.155474405E0
5.746900917E0,-4.299925447E0,6.401418845E0,3.311301247E-1,7.718624828E0
5.756934917E0,-3.858488731E0,5.994939124E0,2.103785507E0,7.433245849E0
5.766968917E0,-3.576002142E0,5.623847337E0,4.369006791E0,7.968919031E0
5.777002917E0,-3.451785939E0,5.390011920E0,4.760196043E0,7.976623411E0
5.787036917E0,-1.791924845E0,4.070705822E0,3.417090608E0,5.608756436E0
5.797071917E0,2.213959914E0,-4.825075579E-1,1.652149494E0,2.804287787E0
5.807105917E0,7.465809730E0,-6.289158736E0,1.350978127E0,9.854794490E0
5.817139917E0,1.797426490E1,-1.739184246E1,1.150985810E0,2.503747494E1
5.827173917E0,3.075360380E1,-3.346887066E1,-8.309793913E-1,4.546031210E1
5.837208917E0,3.870761101E1,-4.872818328E1,-2.546702152E0,6.228322959E1
5.847242917E0,3.402411056E1,-5.146446971E1,-3.028320934E0,6.176894422E1
5.857276917E0,2.242973681E1,-3.485899004E1,1.331761252E0,4.147307402E1
5.867310917E0,1.590039083E1,-1.301977524E1,5.572940893E0,2.129306568E1
5.877344917E0,1.196950304E1,-6.186734229E-1,-7.534385875E0,1.415693224E1
5.887379917E0,8.257048520E0,4.080523297E0,-1.375580286E1,1.655450492E1
5.897413917E0,3.761482547E0,4.697850106E0,-1.014750129E1,1.179789511E1
5.907447917E0,-3.268125772E-2,4.451525037E0,-6.070932462E0,7.528171370E0
5.917481917E0,-2.853269038E0,4.260080765E0,-2.126638765E0,5.550858020E0
5.927516917E0,-4.888567570E0,4.692101709E0,4.821725124E-1,6.793114283E0
5.937550917E0,-6.800485466E0,5.295201073E0,2.133546665E0,8.879064047E0
5.947584917E0,-8.014490227E0,6.002508929E0,2.891402532E0,1.042220589E1
5.957618917E0,-8.852319632E0,6.815337394E0,3.760788190E0,1.178795633E1
5.967652917E0,-9.282726159E0,7.509051059E0,4.481590835E0,1.275301961E1
5.977687917E0,-9.101574740E0,8.013865744E0,4.621776077E0,1.297773174E1
5.987721917E0,-8.342330160E0,8.328065878E0,4.059983198E0,1.246734203E1
5.997755917E0,-7.273037555E0,8.655245660E0,2.993310730E0,1.169488186E1
6.007789917E0,-6.371092846E0,9.234983059E0,1.647634274E0,1.133977226E1
6.017823917E0,-5.639961094E0,1.028264564E1,2.605180156E-1,1.173072173E1
6.027858917E0,-4.941636314E0,1.168666386E1,-1.144483560E0,1.274000488E1
6.037892917E0,-4.553976149E0,1.312864338E1,-2.664100209E0,1.414911324E1
6.047926917E0,-4.707845044E0,1.511777726E1,-2.373167902E0,1.601071267E1
6.057960917E0,-5.489528607E0,1.624704301E1,-2.444087903E-1,1.715112435E1
6.067994917E0,-5.858259873E0,1.323695486E1,-1.442835546E0,1.454709446E1
6.078029917E0,-6.033795626E0,9.654685673E0,-1.964523980E0,1.155331120E1
6.088063917E0,-6.273417447E0,8.101493872E0,-1.770955560E0,1.039837742E1
6.098097917E0,-6.129874150E0,7.316816828E0,-1.668033894E0,9.689865977E0
6.108131917E0,-5.707571864E0,6.889173694E0,-1.707674800E0,9.107867148E0
6.118165292E0,-3.226467285E0,6.705850620E0,-9.279440609E0,1.189481154E1
6.128200292E0,2.173029989E-1,5.960569190E0,-1.982223414E1,2.070015874E1
6.138234292E0,-1.641520425E0,4.293792302E0,-8.722876310E0,9.860010789E0
6.148268292E0,-1.066078391E0,1.748595223E0,9.466361475E-1,2.256153449E0
6.158302292E0,-2.300522679E-1,-4.143752164E-1,7.420813651E0,7.435933439E0
6.168337292E0,9.430436182E-1,-2.492888473E0,3.885073682E0,4.711435208E0
6.178371292E0,3.664879235E0,-5.825421910E0,4.231723523E-1,6.895357502E0
6.188405292E0,9.877765721E0,-1.292074212E1,6.332838607E-1,1.627626741E1
6.198439292E0,1.905540221E1,-2.251426884E1,1.766809884E0,2.954864247E1
6.208473292E0,2.894246618E1,-3.305849903E1,2.882821158E0,4.403227639E1
6.218508292E0,3.417842560E1,-3.957599972E1,3.931266686E0,5.243929241E1
6.228542292E0,2.672583584E1,-3.605721317E1,4.928179532E0,4.515174278E1
6.238576292E0,1.624805341E1,-2.366669891E1,1.057304761E1,3.059250255E1
6.248610292E0,1.060978216E1,-1.183117663E1,8.882442148E0,1.820554850E1
6.258644292E0,7.433251263E0,-6.194945474E0,-3.398296487E-1,9.682254798E0
6.268679292E0,5.766038173E0,-3.012711207E0,-6.061495641E0,8.891870131E0
6.278713292E0,3.551916291E0,-1.204623488E0,-7.939210834E0,8.780563521E0
6.288747292E0,1.662438254E0,8.737582058E-1,-7.514602405E0,7.745734546E0
6.298781292E0,8.052434564E-2,3.187149437E0,-6.620302346E0,7.347979917E0
6.308816292E0,-1.802138761E0,4.994189335E0,-5.411659482E0,7.581272293E0
6.318850292E0,-3.934439385E0,6.378351579E0,-3.968463748E0,8.480087657E0
6.328884292E0,-5.775926984E0,7.199993552E0,-2.574921400E0,9.582873258E0
6.338918292E0,-7.342908273E0,7.467297261E0,-1.124541192E0,1.053296839E1
6.348952292E0,-8.519760411E0,7.516597475E0,2.199911101E-1,1.136371203E1
6.358987292E0,-9.283797369E0,7.618900945E0,1.239109781E0,1.207360502E1
6.369021292E0,-9.734652194E0,7.923757812E0,1.432337455E0,1.263332822E1
6.379055292E0,-9.950520287E0,8.223421183E0,1.285357749E0,1.297265025E1
6.389089292E0,-1.002408995E1,8.369677003E0,9.558525288E-1,1.309379726E1
6.399123292E0,-1.001859123E1,8.570224805E0,3.787319054E-1,1.318955501E1
6.409158292E0,-9.815987549E0,8.846055509E0,-1.127465969E-1,1.321434907E1
6.419192292E0,-9.686047799E0,9.335050553E0,-6.061804081E-1,1.346588822E1
6.429226292E0,-9.149209083E0,1.263068163E1,-2.518688142E-1,1.559825577E1
6.439260292E0,-9.133761324E0,1.585162154E1,-2.538013190E-1,1.829655477E1
6.449294292E0,-1.037054450E1,9.639058405E0,-4.280308330E0,1.479123658E1
6.459329292E0,-9.947054057E0,7.846186895E0,-3.686541415E0,1.319458680E1
6.469363292E0,-7.879052925E0,7.190723376E0,-3.394571226E0,1.119415434E1
6.479397292E0,-6.416231012E0,6.732500474E0,-3.172027953E0,9.826308786E0
6.489431292E0,-6.195219709E0,6.488644685E0,-1.963794394E0,9.183667323E0
6.499466292E0,-6.242148292E0,6.318904107E0,-7.301382371E-1,8.912130288E0
6.509500292E0,-5.886822937E0,6.071863924E0,-3.121120924E-1,8.462838162E0
6.519534292E0,-4.469809281E0,5.399718298E0,-2.230841410E0,7.356140707E0
6.529568292E0,-2.066055179E-2,2.766013670E0,-5.356221446E0,6.028297161E0
6.539602292E0,2.973954107E0,-1.441660255E-1,2.593193181E-1,2.988717682E0
6.549637292E0,5.570948161E0,-2.636546960E0,1.865212677E0,6.439399166E0
6.559671292E0,7.521996210E0,-5.410789416E0,-2.724820036E-1,9.269914537E0
6.569705292E0,8.745489832E0,-8.795044400E0,-9.062728179E-1,1.243614606E1
6.579739292E0,1.225171072E1,-1.459581036E1,-1.817647916E-1,1.905715440E1
6.589773292E0,1.686494869E1,-2.029133988E1,6.608172297E-1,2.639321215E1
6.599808292E0,2.124463484E1,-2.531893026E1,2.378841455E0,3.313671115E1
6.609842292E0,2.487319000E1,-2.921110363E1,6.908259591E0,3.898317851E1
6.619876292E0,2.458244772E1,-2.671717026E1,7.147922927E0,3.700265835E1
6.629910292E0,1.853136305E1,-1.776172914E1,1.771339138E0,2.572990635E1
6.639945292E0,1.319100978E1,-9.738546440E0,-3.538356598E0,1.677384849E1
6.649979292E0,9.307225993E0,-3.668896857E0,-7.548764763E0,1.253272154E1
6.660013292E0,5.262677690E0,-5.807027739E-1,-5.543584362E0,7.665788919E0
6.670047292E0,2.270301345E0,1.112912250E0,-2.410486586E0,3.493320405E0
6.680081292E0,1.457722557E-1,2.403773398E0,-4.352263874E-1,2.447202098E0
6.690116292E0,-1.571191285E0,3.131750577E0,7.443892173E-1,3.581985349E0
6.700150292E0,-3.270264684E0,3.373986104E0,1.820610700E0,5.039150390E0
6.710184292E0,-4.852220693E0,3.569798246E0,2.800911022E0,6.643237744E0
6.720218292E0,-6.198787680E0,4.121752599E0,3.520472304E0,8.234533286E0
6.730252292E0,-7.254514745E0,4.942372479E0,3.877582814E0,9.596388820E0
6.740287292E0,-8.087392142E0,5.870751280E0,3.944694816E0,1.074394013E1
6.750321292E0,-8.510200798E0,6.794440615E0,3.529694533E0,1.144756238E1
6.760355292E0,-8.654520605E0,7.568374570E0,2.910825813E0,1.185976085E1
6.770389292E0,-8.687355645E0,8.142221484E0,2.043736356E0,1.208067784E1
6.780423292E0,-8.489396405E0,8.700384995E0,9.357543330E-1,1.219189020E1
6.790458292E0,-8.113486512E0,9.314199967E0,-3.314558512E-1,1.235689473E1
6.800492292E0,-7.549716105E0,1.001136641E1,-1.352627041E0,1.261171165E1
6.810526292E0,-6.954774191E0,1.073165918E1,-2.171278894E0,1.297119289E1
6.820560292E0,-6.392212989E0,1.150347060E1,-2.814963051E0,1.345786906E1
6.830595292E0,-5.891794825E0,1.207106801E1,-3.782898851E0,1.395472152E1
6.840629292E0,-5.142142017E0,1.251756490E1,-5.807719465E0,1.472618963E1
6.850663292E0,-4.372443492E0,1.234358919E1,-6.172155367E0,1.447680759E1
6.860697292E0,-4.264981901E0,1.079875247E1,-4.011439029E0,1.228392318E1
6.870731292E0,-4.399980954E0,9.025459780E0,-2.912286447E0,1.045467211E1
6.880766292E0,-4.812925942E0,7.603850212E0,-2.385915416E0,9.309961683E0
6.890800292E0,-5.159943280E0,6.558614806E0,2.408731435E-1,8.348560517E0
6.900834292E0,-4.954562169E0,5.856762986E0,3.329261920E0,8.362615853E0
6.910868292E0,-4.133804296E0,4.465277104E0,4.528295470E0,7.585017959E0
6.920902292E0,-1.386922131E0,1.033146873E0,4.902219064E0,5.198336004E0
6.930937292E0,1.282668614E0,-3.006695591E0,3.393333371E0,4.711705479E0
6.940971292E0,3.479041858E0,-7.603071948E0,1.395209974E0,8.476853553E0
6.951005292E0,8.115497954E0,-1.585105553E1,2.135817139E0,1.793541143E1
6.961039292E0,1.475728005E1,-2.454499280E1,3.002561610E0,2.879669012E1
6.971073292E0,2.043031416E1,-2.980025739E1,2.496771609E0,3.621721891E1
6.981108292E0,2.404188433E1,-3.038412526E1,2.094325297E0,3.880197764E1
6.991142292E0,2.249481632E1,-2.569770354E1,4.705498849E0,3.447506995E1
7.001176292E0,1.540344649E1,-1.758651615E1,7.490237058E0,2.454904001E1
7.011210292E0,1.022557682E1,-1.183707296E1,3.471970820E0,1.602289921E1
7.021245292E0,7.242420949E0,-8.437042190E0,-4.404785904E0,1.195986961E1
7.031279292E0,4.461532547E0,-5.417157034E0,-1.751341075E1,1.886717836E1
7.041313292E0,2.205332347E0,-3.558894358E0,-1.824860690E1,1.872273681E1
7.051347292E0,5.422374505E-1,-3.215637072E0,-9.770244781E0,1.030009836E1
7.061381292E0,-6.822852820E-1,-2.560492226E0,-4.336192802E0,5.081751830E0
7.071416292E0,-1.587334278E0,-5.201799989E-1,-2.126409554E0,2.704040483E0
7.081450292E0,-2.689190027E0,1.658331170E0,-8.237639272E-1,3.265025617E0
7.091484292E0,-3.766239549E0,2.978817821E0,-5.690217912E-1,4.835462930E0
7.101518292E0,-4.248892118E0,3.515485799E0,-6.433591980E-1,5.552083905E0
7.111552292E0,-4.575268493E0,3.840152448E0,-1.987445211E-1,5.976566906E0
7.121587542E0,-5.176501426E0,4.604684080E0,4.973495454E-1,6.945980065E0
7.131621542E0,-6.326499640E0,5.783800260E0,1.186279603E0,8.653565880E0
7.141655542E0,-7.650577067E0,6.619813519E0,2.021037465E0,1.031687224E1
7.151689542E0,-8.361214328E0,7.364872754E0,3.128454502E0,1.157317948E1
7.161723542E0,-8.722390407E0,8.144485525E0,3.924642375E0,1.256246619E1
7.171758542E0,-8.752971345E0,8.975271959E0,3.903223439E0,1.313031482E1
7.181792542E0,-8.604993519E0,9.925739787E0,3.747244284E0,1.366045620E1
7.191826542E0,-8.151113929E0,1.084945017E1,3.350701321E0,1.397778332E1
7.201860542E0,-7.401438317E0,1.156814080E1,2.489463174E0,1.395709847E1
7.211895542E0,-6.568489584E0,1.181009157E1,1.566329910E0,1.360429005E1
7.221929542E0,-5.819964119E0,1.122094717E1,1.154592372E0,1.269309739E1
7.231963542E0,-5.311169819E0,9.923032526E0,1.315750406E0,1.133165030E1
7.241997542E0,-4.952647791E0,8.701669044E0,1.313015079E0,1.009810739E1
7.252031542E0,-4.704169485E0,7.801474407E0,7.424625597E-1,9.140211382E0
7.262066542E0,-4.635628715E0,7.102850835E0,9.764214255E-2,8.482280210E0
7.272100542E0,-4.655496969E0,6.522407092E0,-2.666621967E-1,8.017889687E0
7.282134542E0,-4.619756448E0,5.940198660E0,-5.948992288E-1,7.548643246E0
7.292168542E0,-4.491545720E0,5.227321331E0,-1.257885191E0,7.005793774E0
7.302202542E0,-2.393002827E0,3.141780306E0,-1.082607768E1,1.152394047E1
7.312237542E0,4.868011683E-1,-1.144886579E0,-1.492698496E1,1.497873895E1
7.322271542E0,3.161905253E0,-5.862079859E0,-6.801302322E0,9.519419015E0
7.332305542E0,5.311462764E0,-9.185871125E0,8.853608358E-1,1.064780394E1
7.342339542E0,7.666753973E0,-1.427989348E1,2.363635186E0,1.637929320E1
7.352373542E0,1.247524276E1,-1.999121867E1,1.001940283E0,2.358568189E1
7.362408542E0,1.959839571E1,-2.597914406E1,1.223363814E0,3.256546728E1
7.372442542E0,2.430274733E1,-3.090398249E1,2.678595457E0,3.940627533E1
7.382476542E0,2.064154600E1,-3.103730369E1,6.325919012E0,3.780747139E1
7.392510542E0,1.120313772E1,-2.594420578E1,7.394643853E0,2.921117707E1
7.402545542E0,5.850188962E0,-1.922904581E1,2.050428495E0,2.020359301E1
7.412579542E0,4.346462266E0,-1.192618921E1,-4.377367725E0,1.342710212E1
7.422613542E0,3.322112530E0,-6.116547761E0,-7.936828678E0,1.055660161E1
7.432647542E0,1.946348056E0,-2.346308132E0,-8.546399156E0,9.073828913E0
7.442681542E0,5.441506594E-1,6.302129030E-2,-6.332707629E0,6.356355681E0
7.452716542E0,-7.165990824E-1,2.013977537E0,-3.661269749E0,4.239636298E0
7.462750542E0,-2.095285410E0,3.538930795E0,-1.707015088E0,4.452881385E0
7.472784542E0,-3.464943636E0,4.728531616E0,-4.237208211E-1,5.877447148E0
7.482818542E0,-4.363268918E0,5.714178048E0,5.032236582E-1,7.207161748E0
7.492852542E0,-4.893915433E0,6.573807626E0,7.553257763E-1,8.230180557E0
7.502887542E0,-5.288587287E0,7.483496972E0,6.237915639E-1,9.184824350E0
7.512921542E0,-5.643001061E0,8.277198610E0,5.798764893E-1,1.003452712E1
7.522955542E0,-6.014688095E0,8.851427931E0,6.386001492E-1,1.072063708E1
7.532989542E0,-6.423449984E0,9.223941761E0,8.712889266E-1,1.127390597E1
7.543024542E0,-6.828980117E0,9.393481194E0,1.134243477E0,1.166871744E1
7.553058542E0,-7.226269185E0,9.529875101E0,1.415018587E0,1.204324555E1
7.563092542E0,-7.629067499E0,9.655908911E0,1.650998762E0,1.241632171E1
7.573126542E0,-7.968042870E0,9.829529700E0,1.853152210E0,1.278841407E1
7.583160542E0,-7.919331470E0,1.002854085E1,2.016829809E0,1.293657780E1
7.593195542E0,-7.502287000E0,1.032787853E1,1.978522945E0,1.291758253E1
7.603229542E0,-6.866035092E0,1.066820754E1,1.826514049E0,1.281753656E1
7.613263542E0,-6.253497738E0,1.099839980E1,1.677473200E0,1.276263878E1
7.623297542E0,-5.545722688E0,1.118121651E1,1.661358858E0,1.259105857E1
7.633331542E0,-4.436986228E0,1.084068052E1,1.667492003E0,1.183164107E1
7.643366542E0,-3.464890134E0,1.016273913E1,1.644738148E0,1.086240737E1
7.653400542E0,-2.870991071E0,9.457201812E0,1.627607560E0,1.001650449E1
7.663434542E0,-2.854130625E0,8.686687308E0,1.539963645E0,9.272329051E0
7.673468542E0,-3.048934123E0,8.249968126E0,1.417122999E0,8.908771575E0
7.683502542E0,-3.022628377E0,8.275363753E0,1.328282744E0,8.909672418E0
7.693537542E0,-2.874172249E0,8.374177020E0,1.459610038E0,8.973191648E0
7.703571542E0,-2.638416607E0,8.327975246E0,1.956421055E0,8.952317981E0
7.713605542E0,-1.907705562E0,7.574743357E0,2.692114220E0,8.262176252E0
7.723639542E0,3.274446613E-1,3.262736394E0,2.603483294E0,4.186979107E0
7.733673542E0,4.026422227E0,-3.974176478E0,4.923514624E0,7.499810056E0
7.743708542E0,1.271909036E1,-1.941008028E1,1.122865263E1,2.578001389E1
7.753742542E0,2.486228377E1,-3.879296165E1,5.941459905E0,4.645780853E1
7.763776542E0,3.553199755E1,-5.620007353E1,2.412030251E0,6.653411910E1
7.773810542E0,3.225454196E1,-5.890235255E1,3.428339481E-1,6.715623685E1
7.783845542E0,1.871375174E1,-4.234302379E1,1.033056825E-1,4.629413397E1
7.793879542E0,1.228366458E1,-2.309437344E1,1.841000380E0,2.622265781E1
7.803913542E0,8.047765562E0,-9.666754326E0,-1.900313512E0,1.272100079E1
7.813947542E0,4.011114216E0,4.906550682E-1,-2.620316493E1,2.651293329E1
7.823981542E0,4.988201201E-1,4.250377895E0,-2.789540293E1,2.822176533E1
7.834016542E0,-2.189279401E0,4.386082415E0,-1.725373824E1,1.793661469E1
7.844050542E0,-3.586429774E0,4.303545458E0,-9.008930871E0,1.060866709E1
7.854084542E0,-4.124361919E0,3.914552420E0,-3.548224944E0,6.702535501E0
7.864118542E0,-4.234747703E0,3.897600172E0,-1.191157497E0,5.877349011E0
7.874152542E0,-4.602893078E0,4.585472469E0,-2.046619765E-1,6.500389910E0
7.884187542E0,-5.548215941E0,5.479219381E0,4.955070146E-1,7.813454573E0
7.894221542E0,-6.351736223E0,6.511264054E0,1.165297455E0,9.170552371E0
7.904255542E0,-6.924519528E0,7.566440311E0,1.975230963E0,1.044516764E1
7.914289542E0,-7.534180053E0,8.573549532E0,2.717243214E0,1.173256286E1
7.924323542E0,-7.847970296E0,9.439333305E0,2.987245998E0,1.263389448E1
7.934358542E0,-8.031841840E0,1.039739725E1,3.030798984E0,1.348340074E1
7.944392542E0,-8.096171152E0,1.202605146E1,2.948156776E0,1.479410455E1
7.954426542E0,-8.649315414E0,1.546742439E1,3.867253708E0,1.813856459E1
7.964460542E0,-9.745229223E0,1.693370493E1,3.941207537E0,1.993120599E1
7.974495542E0,-1.016987975E1,1.323941537E1,1.513112061E0,1.676299739E1
7.984529542E0,-1.064176175E1,1.129528984E1,5.185256754E-1,1.552738016E1
7.994563542E0,-1.085290471E1,1.050664429E1,6.653722107E-2,1.510561293E1
8.004597542E0,-1.015942727E1,9.786200663E0,-6.596227898E-1,1.412157173E1
8.014631542E0,-8.350451943E0,8.844352216E0,-1.083229298E0,1.221171566E1
8.024666542E0,-6.596607090E0,8.071049759E0,-1.058383455E0,1.047746367E1
8.034700542E0,-5.575830002E0,7.504883748E0,-1.081540183E0,9.411848355E0
8.044734542E0,-5.288087935E0,7.162895892E0,-8.999747819E-1,8.948793560E0
8.054768542E0,-4.981537714E0,6.948241682E0,-6.056119126E-1,8.570912802E0
8.064802542E0,-4.067591303E0,6.251677499E0,-4.071901212E-1,7.469576585E0
8.074837542E0,-2.265822378E0,4.199681366E0,-2.625101620E-1,4.779140740E0
8.084871542E0,-2.636193788E-1,1.138232448E0,-7.476950685E-2,1.170751366E0
8.094905542E0,3.131017921E0,-4.432316934E0,5.993150826E-1,5.459659806E0
8.104939542E0,8.611984450E0,-1.277292217E1,2.217098114E0,1.556371874E1
8.114973542E0,1.399004232E1,-2.377378248E1,3.273767166E0,2.777825713E1
8.125008542E0,1.882923074E1,-3.458631567E1,6.122529463E0,3.985271043E1
8.135042542E0,2.244899052E1,-4.089540288E1,7.455964773E0,4.724386270E1
8.145076542E0,2.244035068E1,-3.871942473E1,4.762251924E0,4.500491343E1
8.155110542E0,1.871625903E1,-2.876048913E1,2.814211099E0,3.442940416E1
8.165145542E0,1.478876496E1,-1.917853054E1,2.433553852E0,2.434020927E1
8.175179542E0,1.100859384E1,-1.146465678E1,2.327276614E0,1.606373897E1
8.185213542E0,8.350184725E0,-5.456390682E0,1.449932604E-1,9.975911350E0
8.195247542E0,7.533930961E0,-6.070877498E-1,-7.476377987E0,1.063131690E1
8.205281542E0,6.351409364E0,2.048615858E0,-1.318922521E1,1.478150498E1
8.215316542E0,3.855794334E0,2.459943506E0,-1.132312259E1,1.221194403E1
8.225350542E0,1.248436090E0,2.446909477E0,-6.809428782E0,7.342634337E0
8.235384542E0,-8.364804518E-1,3.084479347E0,-2.874646166E0,4.298523347E0
8.245418542E0,-2.908115628E0,4.399234557E0,-1.125920550E0,5.392411175E0
8.255452542E0,-4.774975466E0,5.524935252E0,-3.142071497E-1,7.309174124E0
8.265487542E0,-6.175766607E0,6.505594009E0,2.087116849E-1,8.972536272E0
8.275521542E0,-7.086052369E0,7.455437939E0,5.066032758E-1,1.029817168E1
8.285555542E0,-7.445955509E0,8.278856880E0,5.766430521E-1,1.114962968E1
8.295589542E0,-7.694263954E0,8.847469366E0,6.132045952E-1,1.174118528E1
8.305624542E0,-7.994355340E0,9.024859856E0,6.004037976E-1,1.207138341E1
8.315658542E0,-7.957510865E0,9.160733360E0,5.433735645E-1,1.214645091E1
8.325692542E0,-7.824456303E0,9.330588543E0,4.248977926E-1,1.218452039E1
8.335726542E0,-8.115189806E0,9.415408838E0,4.126994044E-1,1.243690275E1
8.345760542E0,-8.428038647E0,9.627876774E0,5.343016094E-1,1.280676871E1
8.355795542E0,-8.722375789E0,1.012964974E1,7.117435545E-1,1.338641932E1
8.365829542E0,-1.062909434E1,1.467763395E1,8.066473728E-1,1.814004589E1
8.375863542E0,-1.117949275E1,1.552000372E1,2.930788207E-1,1.912949212E1
8.385897542E0,-9.917084738E0,1.035036459E1,-5.444120300E-1,1.434485975E1
8.395931542E0,-9.292632512E0,9.465834641E0,-9.834274131E-1,1.330120949E1
8.405966542E0,-7.661692623E0,8.432828686E0,-1.302821043E0,1.146784532E1
8.416000542E0,-6.560829147E0,7.953028974E0,-1.355623886E0,1.039869535E1
8.426034542E0,-6.001917191E0,7.839390677E0,-1.375896036E0,9.968557872E0
8.436068542E0,-5.586050935E0,7.735290942E0,-1.295405458E0,9.628954580E0
8.446102542E0,-5.244808014E0,7.712372196E0,-9.301371322E-1,9.373038519E0
8.456137542E0,-5.049352552E0,7.641732568E0,-3.783878698E-1,9.167072336E0
8.466171542E0,-4.809969882E0,7.415672779E0,3.516878021E-1,8.845998945E0
8.476205542E0,-4.327656744E0,6.805252701E0,1.246018267E0,8.160431284E0
8.486239542E0,-2.745119522E0,4.041822331E0,8.527883363E-1,4.959763794E0
8.496273542E0,-1.441438061E-1,-2.946275142E0,5.783479175E-2,2.950365997E0
8.506308542E0,8.344826921E0,-1.665277662E1,4.277273699E-1,1.863153392E1
8.516342542E0,2.684891973E1,-4.077276572E1,2.340294271E0,4.887494136E1
8.526376542E0,4.260299100E1,-6.327215456E1,7.052847201E0,7.660367510E1
8.536410542E0,3.777486084E1,-6.413413239E1,6.601631017E0,7.472421682E1
8.546445542E0,2.321451735E1,-4.264935708E1,2.715477939E0,4.863389040E1
8.556479542E0,1.475502419E1,-2.025897671E1,1.144044434E0,2.508875672E1
8.566513542E0,1.000732248E1,-7.046616992E0,-4.464215834E0,1.302806729E1
8.576547542E0,6.613169913E0,1.896556676E0,-1.951948402E1,2.069640549E1
8.586581542E0,2.726196178E0,4.373890386E0,-1.983077107E1,2.048957159E1
8.596616542E0,-3.140212083E-1,4.477718225E0,-1.377777319E1,1.449053498E1
8.606650542E0,-1.832767646E0,4.341283972E0,-6.923821955E0,8.375266816E0
8.616684542E0,-3.012296054E0,4.752218687E0,-2.221055072E0,6.049016085E0
8.626718542E0,-4.378240129E0,5.356720798E0,-4.413609937E-2,6.918481939E0
8.636752542E0,-5.725823947E0,6.230535722E0,1.130126452E0,8.537085044E0
8.646787542E0,-6.762293208E0,7.103212777E0,1.632385905E0,9.942279665E0
8.656821542E0,-7.322323735E0,7.877668889E0,2.130059971E0,1.096408900E1
8.666855542E0,-7.838836945E0,8.394808336E0,2.929567308E0,1.185337658E1
8.676889542E0,-8.493920395E0,8.650950295E0,3.701061805E0,1.267609889E1
8.686923542E0,-9.103411351E0,8.909106621E0,4.382470590E0,1.347034994E1
8.696958542E0,-9.644433750E0,9.293672147E0,4.981204423E0,1.428985101E1
8.706992542E0,-9.607860001E0,9.791420472E0,5.409976653E0,1.474621090E1
8.717026542E0,-9.106283503E0,1.033636986E1,5.523372291E0,1.484158289E1
8.727060542E0,-8.490931299E0,1.077719145E1,5.120518429E0,1.464457165E1
8.737095542E0,-8.195374428E0,1.150340277E1,4.562308139E0,1.484274546E1
8.747129542E0,-8.279878973E0,1.353693106E1,3.496519770E0,1.624901686E1
8.757163542E0,-8.654210118E0,1.600494957E1,1.687066873E0,1.827292965E1
8.767197542E0,-7.417184869E0,1.376873690E1,6.640228195E-1,1.565355147E1
8.777231542E0,-5.399129484E0,1.009238660E1,3.189035603E-1,1.145026489E1
8.787266542E0,-5.049366585E0,8.591929085E0,-3.231159675E-1,9.971045695E0
8.797300542E0,-4.886330425E0,7.798151434E0,-8.468789940E-1,9.241460644E0
8.807334542E0,-4.465153728E0,7.460099339E0,-7.218550714E-1,8.724205104E0
8.817368542E0,-4.179882109E0,7.314769717E0,-3.554329437E-1,8.432295242E0
8.827402542E0,-3.988058645E0,7.372959453E0,-1.945198347E-1,8.384687282E0
8.837437542E0,-3.837159550E0,7.500735149E0,-1.765095335E-2,8.425267518E0
8.847471542E0,-3.286707931E0,6.597402896E0,4.619926018E-1,7.385229256E0
8.857505542E0,-9.693575504E-1,2.335062182E0,2.281443397E-1,2.538546689E0
8.867539542E0,2.661409613E0,-3.544875074E0,2.807832956E-1,4.441630295E0
8.877573542E0,1.079576338E1,-1.493276902E1,1.805221413E0,1.851472176E1
8.887608542E0,2.174188907E1,-3.214442252E1,2.492754571E0,3.888685465E1
8.897642542E0,3.250233760E1,-5.009731585E1,4.742414660E0,5.990520429E1
8.907676542E0,3.206994770E1,-5.448244224E1,6.999265655E0,6.360666457E1
8.917710542E0,2.100561469E1,-3.789427735E1,5.095526844E0,4.362541115E1
8.927745542E0,1.399350621E1,-2.027170493E1,4.248329616E0,2.499617053E1
8.937779542E0,9.945442564E0,-9.318733898E0,4.096026605E0,1.423123548E1
8.947813542E0,7.536518354E0,-2.244265448E0,2.071124715E0,8.131752203E0
8.957847542E0,5.936872180E0,1.640427580E0,-3.336604269E0,7.005025480E0
8.967881542E0,4.431352143E0,3.696903266E0,-9.972000618E0,1.152149174E1
8.977916542E0,2.775003472E0,4.347115400E0,-1.320184467E1,1.417345262E1
8.987950542E0,9.513390630E-1,4.374627720E0,-1.148589854E1,1.232754149E1
8.997984542E0,-1.073733566E0,4.626369649E0,-8.421420184E0,9.668325492E0
9.008018542E0,-2.547446503E0,5.313157872E0,-5.845089605E0,8.299650761E0
9.018052542E0,-3.797660147E0,6.155061032E0,-3.689967299E0,8.119289227E0
9.028087542E0,-5.212305681E0,6.861825682E0,-1.932370872E0,8.831015762E0
9.038121542E0,-6.287821478E0,7.378370467E0,-5.854081745E-1,9.711835687E0
9.048155542E0,-6.712747411E0,7.850271760E0,2.899488062E-1,1.033304480E1
9.058189542E0,-7.386249590E0,8.086132652E0,9.754687679E-1,1.099517001E1
9.068223542E0,-8.397425550E0,8.171759863E0,1.389558640E0,1.179937661E1
9.078258542E0,-9.280211272E0,8.400016451E0,1.747977757E0,1.263875088E1
9.088292542E0,-9.474773279E0,8.765082682E0,1.889263444E0,1.304481964E1
9.098326542E0,-9.167958764E0,9.151202983E0,1.710212345E0,1.306601738E1
9.108360542E0,-9.012560238E0,9.562435906E0,1.521069537E0,1.322800344E1
9.118395917E0,-8.979160357E0,1.002923550E1,1.202358788E0,1.351504910E1
9.128429917E0,-9.298359860E0,1.200176798E1,-2.740543199E-1,1.518476330E1
9.138463917E0,-1.047210946E1,1.414026665E1,-4.671106696E-2,1.759586313E1
9.148497917E0,-1.044552217E1,9.943248689E0,1.214137420E0,1.447243095E1
9.158531917E0,-9.221147377E0,7.573318391E0,2.502246503E-1,1.193512978E1
9.168566917E0,-8.070511816E0,6.781891320E0,-1.064525809E-1,1.054222666E1
9.178600917E0,-7.406611349E0,6.443961432E0,-2.804921043E-1,9.821466613E0
9.188634917E0,-6.928257653E0,6.343165959E0,-5.393197630E-1,9.408898676E0
9.198668917E0,-6.229984914E0,6.474674517E0,-3.136849934E-1,8.990690763E0
9.208702917E0,-5.447960166E0,6.323735077E0,8.885019600E-2,8.347322304E0
9.218737917E0,-4.069836341E0,4.592095610E0,9.091071825E-2,6.136707154E0
9.228771917E0,-1.782332488E0,3.644698155E-1,9.436821342E-2,1.821662072E0
9.238805917E0,3.443895414E0,-6.094819508E0,-1.023668390E-2,7.000524640E0
9.248839917E0,1.402541681E1,-1.905957712E1,1.705024513E-1,2.366450650E1
9.258873917E0,2.862428877E1,-3.797451986E1,1.438385632E-1,4.755454506E1
9.268908917E0,4.077965140E1,-5.360313327E1,4.930559349E-1,6.735368564E1
9.278942917E0,3.587952798E1,-5.390356321E1,2.749186553E0,6.481120800E1
9.288976917E0,2.203097074E1,-3.398494123E1,6.714646586E0,4.105394477E1
9.299010917E0,1.312133787E1,-1.455590896E1,1.119673034E1,2.257012989E1
9.309045917E0,8.629433126E0,-3.056427330E0,9.977661892E0,1.354114474E1
9.319079917E0,6.271179718E0,1.456046160E0,4.661706128E0,7.948538827E0
9.329113917E0,4.480112367E0,3.154658799E0,-1.034726205E0,5.576193798E0
9.339147917E0,2.691651120E0,4.844139841E0,-9.192642201E0,1.073384121E1
9.349181917E0,3.991011196E-1,5.726893403E0,-1.413696180E1,1.525812173E1
9.359216917E0,-1.740113837E0,5.984956173E0,-1.279133622E1,1.422905404E1
9.369250917E0,-3.606524023E0,6.291733266E0,-9.060131430E0,1.160512406E1
9.379284917E0,-5.360781689E0,6.558753385E0,-5.016386535E0,9.844763082E0
9.389318917E0,-6.512790762E0,6.776709518E0,-1.733376821E0,9.557448959E0
9.399352917E0,-7.163140306E0,7.201404485E0,6.543312058E-2,1.015751382E1
9.409387917E0,-7.473775392E0,7.815034685E0,6.664896137E-1,1.083403407E1
9.419421917E0,-7.746653252E0,8.323658246E0,8.439027612E-1,1.140202153E1
9.429455917E0,-8.467487472E0,8.544325148E0,1.086430064E0,1.207825180E1
9.439489917E0,-9.200869233E0,8.595588858E0,1.224950164E0,1.265071719E1
9.449523917E0,-9.610536271E0,8.706593569E0,1.448139555E0,1.304853582E1
9.459558917E0,-1.013926958E1,8.750930666E0,1.747114123E0,1.350688650E1
9.469592917E0,-1.040585116E1,8.812162124E0,1.982048231E0,1.377913113E1
9.479626917E0,-1.024320267E1,8.734729201E0,2.158122659E0,1.363364179E1
9.489660917E0,-1.008961385E1,8.734283059E0,2.204660502E0,1.352584697E1
9.499695917E0,-1.035868868E1,8.899354050E0,1.981076570E0,1.379947818E1
9.509729917E0,-1.014563720E1,8.899289730E0,1.595416299E0,1.358957928E1
9.519763917E0,-1.017417395E1,9.333909761E0,1.424997006E0,1.388042879E1
9.529797917E0,-1.040871980E1,9.878386695E0,1.627907669E0,1.444209316E1
9.539831917E0,-8.893007482E0,7.195933245E0,-6.065340185E-1,1.145578111E1
9.549866917E0,-8.485552445E0,6.304050425E0,-1.632963610E0,1.069636491E1
9.559900917E0,-8.171428910E0,6.084768144E0,-1.600543138E0,1.031302051E1
9.569934917E0,-7.211472221E0,6.147089522E0,-1.442145574E0,9.584979137E0
9.579968917E0,-5.967284133E0,6.439253254E0,-8.942894610E-1,8.824523558E0
9.590002917E0,-4.898241203E0,6.387981943E0,-1.619918837E-1,8.051417364E0
9.600037917E0,-3.156365601E0,4.445562631E0,-2.307942978E-1,5.457008056E0
9.610071917E0,-2.191460413E0,1.963452916E0,-2.554133964E-1,2.953452572E0
9.620105917E0,3.530981505E0,-4.646584058E0,3.671876013E-1,5.847512337E0
9.630139917E0,1.825739761E1,-2.010442311E1,2.088458201E0,2.723751188E1
9.640173917E0,3.643179048E1,-3.885267810E1,-1.402811939E0,5.328014484E1
9.650208917E0,5.061315253E1,-5.578178244E1,-2.991867637E0,7.538069868E1
9.660242917E0,4.555761714E1,-5.685778706E1,1.320446305E0,7.287007621E1
9.670276917E0,2.769488086E1,-3.290281808E1,5.123889933E0,4.331115458E1
9.680310917E0,1.450260925E1,-1.172108291E1,2.242255760E0,1.878129843E1
9.690345917E0,8.148666869E0,-2.822001929E0,-1.578890898E0,8.766833129E0
9.700379917E0,3.596632288E0,1.807432246E0,-3.533213972E0,5.355947732E0
9.710413917E0,1.151790386E-1,4.060819350E0,-3.377019639E0,5.282781620E0
9.720447917E0,-2.906967235E0,4.918124076E0,-2.083376386E0,6.081024592E0
9.730481917E0,-5.356976321E0,5.303647960E0,-9.208019793E-2,7.538856396E0
9.740516917E0,-7.390575945E0,5.987069356E0,1.474594113E0,9.624969614E0
9.750550917E0,-9.352934262E0,6.517827553E0,2.437718239E0,1.165769812E1
9.760584917E0,-1.082934744E1,7.138229413E0,3.226004770E0,1.336548510E1
9.770618917E0,-1.159466845E1,7.650886384E0,3.740838659E0,1.438632242E1
9.780652917E0,-1.170671981E1,8.045708511E0,3.723442023E0,1.468484711E1
9.790687917E0,-1.154075595E1,8.381503581E0,3.299970294E0,1.463996087E1
9.800721917E0,-1.093982240E1,8.759423162E0,2.713326749E0,1.427478022E1
9.810755917E0,-9.863683287E0,9.365526241E0,1.939425684E0,1.373923949E1
9.820789917E0,-8.802244077E0,1.017209935E1,7.873077071E-1,1.347482688E1
9.830823917E0,-7.705411670E0,1.098560960E1,-1.628684910E-1,1.341951987E1
9.840858917E0,-6.829608693E0,1.177476503E1,-6.975238569E-1,1.362993712E1
9.850892917E0,-6.283024423E0,1.301651132E1,-2.431029609E-1,1.445562389E1
9.860926917E0,-5.933394256E0,1.581681540E1,3.018930305E0,1.716073300E1
9.870960917E0,-5.573549588E0,1.282452501E1,-2.039743585E0,1.413129331E1
9.880995917E0,-5.935240806E0,1.097771703E1,-7.850788069E0,1.474354869E1
9.891029917E0,-5.541989826E0,1.053411919E1,-1.523411814E1,1.933286512E1
9.901063917E0,-3.999436742E0,9.055364195E0,-1.223764466E1,1.574023703E1
9.911097917E0,-3.356246236E0,7.619654067E0,-6.699312848E0,1.068664164E1
9.921131917E0,-4.126373946E0,6.684342806E0,-3.899279492E0,8.769936217E0
9.931166917E0,-5.105007520E0,6.361055515E0,-9.570336664E-1,8.212188654E0
9.941200917E0,-5.008400992E0,6.354635273E0,1.119880961E0,8.168206860E0
9.951234917E0,-4.189337934E0,5.799826893E0,1.863320518E0,7.393274489E0
9.961268917E0,-2.138247827E0,3.244970798E0,2.344860946E0,4.538756670E0
9.971302917E0,3.800579077E-1,2.199488640E-1,2.553937497E0,2.591412405E0
9.981337917E0,4.713083857E0,-5.309852441E0,2.460046417E0,7.513955068E0
9.991371917E0,1.259671515E1,-1.486548979E1,3.402298322E0,1.977967778E1
1.000140592E1,2.139794649E1,-2.793169075E1,6.660738766E0,3.581084896E1
1.001143992E1,2.872271612E1,-4.042406585E1,3.095671502E0,4.968584006E1
1.002147492E1,3.166470525E1,-4.620940860E1,-9.383916465E-1,5.602538336E1
1.003150892E1,2.864430963E1,-4.052234585E1,-1.786670537E0,4.965631057E1
1.004154292E1,2.127958247E1,-2.405947743E1,9.963830888E-1,3.213521221E1
1.005157692E1,1.339338542E1,-8.970174356E0,3.152590638E0,1.642515232E1
1.006161092E1,8.857971550E0,-1.742283154E-1,-1.678525114E-1,8.861274737E0
1.007164592E1,4.501201520E0,2.056535912E0,-4.172987876E-1,4.966315873E0
1.008167992E1,1.979810502E0,2.727533144E0,-4.370232002E-1,3.398540268E0
1.009171392E1,8.903730690E-1,3.552127960E0,-3.218681717E-1,3.676136065E0
1.010174792E1,-8.063737231E-1,4.622448506E0,-5.854349256E-2,4.692621455E0
1.011178192E1,-2.571762734E0,5.604576668E0,1.126898789E-1,6.167490754E0
1.012181658E1,-4.075763079E0,6.479363984E0,-3.201277480E-3,7.654672596E0
1.013185058E1,-5.514452949E0,7.238638385E0,-2.289904135E-1,9.102720121E0
1.014188458E1,-6.913865901E0,7.762803261E0,-5.740960050E-1,1.041115951E1
1.015191858E1,-8.138020844E0,8.045151272E0,-1.273276232E0,1.151403815E1
1.016195258E1,-8.911603382E0,8.173590626E0,-1.621636530E0,1.220057226E1
1.017198758E1,-9.162569386E0,8.223473808E0,-1.328230557E0,1.238314967E1
1.018202158E1,-9.279600238E0,8.245568097E0,-1.032385565E0,1.245657231E1
1.019205558E1,-9.331066845E0,8.375721270E0,-1.238671094E0,1.259983418E1
1.020208958E1,-9.413369329E0,8.539153871E0,-1.391796808E0,1.278537326E1
1.021212358E1,-9.823385446E0,8.751324769E0,-1.350502748E0,1.322529563E1
1.022215858E1,-1.004329455E1,8.923762667E0,-1.218992509E0,1.349026494E1
1.023219258E1,-9.930200043E0,9.119694677E0,-8.260205139E-1,1.350777605E1
1.024222658E1,-9.617892653E0,9.740613431E0,-6.461465657E-1,1.370404738E1
1.025226058E1,-9.274061755E0,1.100189410E1,-1.302329292E0,1.444804336E1
1.026229558E1,-8.308542024E0,1.337614198E1,-2.687738748E0,1.597426006E1
1.027232958E1,-8.410782929E0,9.591150997E0,-3.881944837E0,1.333420199E1
1.028236358E1,-7.551717022E0,7.595077634E0,-3.125969435E0,1.115729892E1
1.029239758E1,-5.384212652E0,7.153536839E0,-4.804976944E0,1.016123214E1
1.030243158E1,-4.367422196E0,6.275519521E0,-6.025386161E0,9.734567288E0
1.031246658E1,-4.874016774E0,5.579693842E0,-6.824694693E-1,7.440079802E0
1.032250058E1,-4.682289496E0,5.212367662E0,3.595966290E0,7.875505389E0
1.033253458E1,-2.690689253E0,3.007431171E0,4.514664441E0,6.055298995E0
1.034256858E1,4.574662721E-1,-1.020253177E0,7.517526598E0,7.600223555E0
1.035260258E1,4.251177794E0,-5.716552017E0,6.786603591E0,9.839180246E0
1.036263758E1,8.929405814E0,-1.189334656E1,2.806355950E0,1.513478161E1
1.037267158E1,1.549940164E1,-2.162744737E1,1.633045471E-1,2.660835582E1
1.038270558E1,2.370934148E1,-3.381081349E1,-1.084187218E0,4.130955633E1
1.039273958E1,2.787675499E1,-4.148207040E1,-1.766884729E0,5.000997416E1
1.040277358E1,2.335803843E1,-3.964515591E1,-6.722520447E-1,4.601943360E1
1.041280858E1,1.682865502E1,-2.914280348E1,3.489018377E0,3.383311800E1
1.042284258E1,1.402610678E1,-1.544045586E1,8.922038323E0,2.268792887E1
1.043287658E1,1.150295136E1,-5.700340612E0,5.244056647E0,1.386765673E1
1.044291058E1,8.550094596E0,-9.554344529E-1,9.277449632E-1,8.653189199E0
1.045294558E1,5.717081775E0,2.618704181E0,-3.153384106E0,7.034661821E0
1.046297958E1,3.265166789E0,4.819937630E0,-5.325419483E0,7.890070063E0
1.047301358E1,1.172415563E0,6.360415245E0,-5.434001693E0,8.447355488E0
1.048304758E1,-6.870171413E-1,7.164654150E0,-3.883297298E0,8.178279742E0
1.049308158E1,-1.930840363E0,7.398457407E0,-2.059537872E0,7.918775963E0
1.050311658E1,-2.389252715E0,7.605580988E0,-1.358256594E0,8.086918553E0
1.051315058E1,-2.715248436E0,7.878737760E0,-7.741643357E-1,8.369373524E0
1.052318458E1,-3.391358181E0,8.027448826E0,-3.499025010E-2,8.714497650E0
1.053321858E1,-4.056034866E0,8.355118605E0,4.103787176E-1,9.296657272E0
1.054325258E1,-4.694261962E0,8.671184000E0,6.070842415E-1,9.878971536E0
1.055328758E1,-5.224891228E0,8.951465020E0,4.206060094E-1,1.037328896E1
1.056332158E1,-5.837512783E0,9.140365169E0,-4.375711209E-1,1.085422956E1
1.057335558E1,-6.759283061E0,9.188286025E0,-2.594421864E0,1.169801404E1
1.058338958E1,-8.155356084E0,9.061731813E0,-5.214675558E0,1.325962509E1
1.059342358E1,-8.629357697E0,9.010882087E0,-4.436743276E0,1.324184659E1
1.060345858E1,-8.688800492E0,9.134077073E0,-2.867979755E0,1.292872483E1
1.061349258E1,-8.665622714E0,9.323540894E0,-7.104799712E-1,1.274857692E1
1.062352658E1,-8.252514589E0,9.646094944E0,8.713532460E-1,1.272440180E1
1.063356058E1,-7.464388272E0,9.973575858E0,2.561143606E0,1.271804876E1
1.064359558E1,-6.961760445E0,1.020358076E1,3.447537060E0,1.282437837E1
1.065362958E1,-6.097311006E0,1.045023269E1,3.266766880E0,1.253221172E1
1.066366358E1,-5.144535867E0,1.056153093E1,2.654591467E0,1.204404587E1
1.067369758E1,-4.188166152E0,1.028463019E1,1.959708359E0,1.127629419E1
1.068373158E1,-2.998200464E0,9.699850736E0,1.083763880E0,1.021033077E1
1.069376658E1,-2.431077556E0,9.141093147E0,5.152562778E-2,9.458983926E0
1.070380058E1,-2.345591556E0,8.404339297E0,-1.688777622E0,8.887445563E0
1.071383458E1,-2.368088718E0,8.192716284E0,6.560575962E-3,8.528099866E0
1.072386858E1,-2.438102401E0,7.726647003E0,1.369902055E0,8.217180105E0
1.073390258E1,-2.121670678E0,5.498966598E0,1.322635503E0,6.040652679E0
1.074393758E1,1.525971258E-1,4.760218263E-2,2.349763252E0,2.355194087E0
1.075397158E1,7.017897808E0,-1.168867998E1,4.271820220E0,1.428721727E1
1.076400558E1,2.026594425E1,-3.400733373E1,8.601339594E0,4.051160681E1
1.077403958E1,3.438254020E1,-5.762123696E1,8.829637113E0,6.767812432E1
1.078407458E1,3.382247751E1,-6.445940598E1,2.523396320E0,7.283778232E1
1.079410858E1,1.998946685E1,-5.290739413E1,-1.702971153E0,5.658331246E1
1.080414258E1,1.515594672E1,-3.185078938E1,-2.147669445E0,3.533819448E1
1.081417658E1,1.467960446E1,-1.195422076E1,-7.168858883E0,2.024318944E1
1.082421058E1,1.218958522E1,-2.534577366E0,-1.228396513E1,1.749016494E1
1.083424558E1,8.318767051E0,1.056593623E0,-1.005472703E1,1.309258610E1
1.084427958E1,4.399707889E0,3.130346661E0,-7.574722307E0,9.302307120E0
1.085431358E1,1.282195282E0,4.710518099E0,-4.765937424E0,6.822548280E0
1.086434758E1,-1.403693115E0,5.708993906E0,-2.077645530E0,6.235348966E0
1.087438158E1,-3.550709133E0,6.548754646E0,-2.224625820E-1,7.452731873E0
1.088441658E1,-5.275805858E0,7.247909730E0,8.595347806E-1,9.005838270E0
1.089445058E1,-6.921614047E0,7.832931842E0,1.319693184E0,1.053589827E1
1.090448458E1,-8.093195504E0,8.502940310E0,1.851304489E0,1.188390238E1
1.091451858E1,-9.087764202E0,8.999841959E0,2.521308864E0,1.303616554E1
1.092455258E1,-1.041023189E1,9.301255401E0,2.714835330E0,1.422169508E1
1.093458758E1,-1.093886579E1,9.685105228E0,2.317898265E0,1.479299498E1
1.094462158E1,-1.099211989E1,9.982482337E0,1.701121094E0,1.494558351E1
1.095465558E1,-1.118425940E1,1.042642751E1,1.200498424E0,1.533751106E1
1.096468958E1,-1.216300261E1,1.747406016E1,2.502855052E0,2.143701692E1
1.097472458E1,-1.412805883E1,1.878086257E1,-5.703846310E-1,2.350847047E1
1.098475858E1,-1.467446125E1,8.860886972E0,-7.014192427E0,1.852171770E1
1.099479258E1,-1.496438024E1,7.035706673E0,-9.787917405E0,1.921554505E1
1.100482658E1,-1.455014945E1,7.033422166E0,-9.088422014E0,1.854117825E1
1.101486058E1,-1.324787746E1,7.017361618E0,-6.482276482E0,1.633308084E1
1.102489558E1,-9.956227169E0,7.600812584E0,-3.447182719E0,1.299160806E1
1.103492958E1,-6.967911131E0,7.783995325E0,-4.102810325E-1,1.045517572E1
1.104496358E1,-5.812510089E0,7.667659707E0,1.505960332E0,9.738901141E0
1.105499758E1,-5.512531554E0,7.520510432E0,1.791880406E0,9.495099614E0
1.106503158E1,-5.317699989E0,7.235825874E0,1.635194907E0,9.127374849E0
1.107506658E1,-5.030827403E0,6.906540509E0,1.759673942E0,8.723874056E0
1.108510058E1,-4.150471199E0,6.512131196E0,1.286296227E0,7.828717767E0
1.109513458E1,-3.220324200E0,5.989129915E0,1.876055753E0,7.054059135E0
1.110516858E1,-2.297084516E0,5.190649348E0,2.794804190E0,6.326955697E0
1.111520258E1,8.841112858E-1,6.257637566E-1,1.459267391E0,1.817331660E0
1.112523767E1,3.983384673E0,-4.033008238E0,8.404881334E-1,5.730526084E0
1.113527167E1,1.100713554E1,-1.365925949E1,5.016841229E-1,1.754947548E1
1.114530567E1,2.382065610E1,-2.933764440E1,-3.406260395E-1,3.779202379E1
1.115533967E1,3.397725799E1,-4.757772723E1,-2.440428825E-1,5.846497880E1
1.116537467E1,3.438601111E1,-5.620438644E1,-7.428934264E-1,6.589296401E1
1.117540867E1,2.829313288E1,-4.667025807E1,-4.328901908E0,5.474809356E1
1.118544267E1,2.199540095E1,-2.353189720E1,-4.221806061E0,3.248648173E1
1.119547667E1,1.499344207E1,-9.252939858E0,-2.401373700E0,1.778164213E1
1.120551067E1,9.077722778E0,-3.003289588E0,-5.278456986E-1,9.576190280E0
1.121554567E1,4.707357679E0,7.989313871E-1,9.482055402E-1,4.867915511E0
1.122557967E1,1.384598447E0,3.302806778E0,2.166129105E0,4.185422413E0
1.123561367E1,-1.203660452E0,5.380044757E0,3.420338151E0,6.487865068E0
1.124564767E1,-3.931858716E0,7.089809790E0,4.850993947E0,9.447595360E0
1.125568167E1,-6.038881534E0,8.045786864E0,5.724442835E0,1.157462838E1
1.126571667E1,-7.801911778E0,8.454273934E0,6.237855266E0,1.308645917E1
1.127575067E1,-8.943223954E0,8.835810603E0,6.622633631E0,1.420957705E1
1.128578467E1,-8.797120746E0,9.184687648E0,5.669808791E0,1.392460241E1
1.129581867E1,-8.294723300E0,9.341488338E0,4.369887382E0,1.323486890E1
1.130585267E1,-7.538141541E0,9.512737496E0,2.979441719E0,1.249771281E1
1.131588767E1,-6.610810561E0,9.672034947E0,1.598510061E0,1.182397187E1
1.132592167E1,-5.914946290E0,9.790862648E0,4.032257456E-1,1.144596750E1
1.133595567E1,-5.438950776E0,1.002511439E1,-1.295599732E0,1.147883629E1
1.134598967E1,-6.045840890E0,1.073360864E1,-8.421683308E0,1.492271076E1
1.135602467E1,-7.807023414E0,1.550784268E1,-1.317496034E1,2.179500813E1
1.136605867E1,-9.315555936E0,2.090317381E1,-8.903863422E0,2.455607953E1
1.137609267E1,-8.657613198E0,9.853975739E0,-9.559377227E0,1.623073619E1
1.138612667E1,-8.237481397E0,7.619402636E0,-6.056022647E0,1.275095316E1
1.139616067E1,-7.957579277E0,8.058742540E0,-2.396566705E0,1.157626586E1
1.140619567E1,-7.272487916E0,8.033650968E0,3.773313510E-1,1.084301652E1
1.141622967E1,-5.609471372E0,8.001524026E0,9.298967385E-1,9.816071707E0
1.142626367E1,-3.160048470E0,7.940438749E0,-8.262653661E-1,8.585987906E0
1.143629767E1,-8.452194080E-1,7.806006584E0,-7.501784724E0,1.085932358E1
1.144633167E1,-9.741066590E-1,7.275952976E0,-9.993142980E0,1.239964847E1
1.145636667E1,-2.891993101E0,7.162328712E0,-6.639840817E-1,7.752641585E0
1.146640067E1,-3.216160690E0,7.165697293E0,3.020904325E0,8.415270062E0
1.147643467E1,-2.442535467E0,5.907651304E0,2.755451260E0,6.961238042E0
1.148646867E1,-4.652878001E-1,5.175230241E-1,2.699432595E0,2.787697823E0
1.149650267E1,2.485149975E0,-6.892649279E0,4.016033771E0,8.355424091E0
1.150653767E1,8.242550933E0,-1.886655352E1,5.739839723E0,2.137363440E1
1.151657167E1,1.788451482E1,-3.227603165E1,6.040580735E0,3.739099764E1
1.152660567E1,2.541567128E1,-4.457750685E1,3.889301219E0,5.146102532E1
1.153663967E1,2.380088315E1,-5.101927674E1,4.017335361E0,5.644101010E1
1.154667467E1,1.546570881E1,-4.597892072E1,7.730337181E0,4.912237181E1
1.155670867E1,1.459955024E1,-2.732206005E1,4.751340435E0,3.134034250E1
1.156674267E1,1.431022767E1,-1.226441672E1,5.978774350E-2,1.884680630E1
1.157677667E1,1.153172200E1,-3.694990641E0,-7.241970128E0,1.410956057E1
1.158681067E1,7.689936429E0,4.492696452E-1,-9.624050356E0,1.232717773E1
1.159684567E1,4.201330573E0,3.094278111E0,-8.500550553E0,9.974221540E0
1.160687967E1,2.035991719E0,5.448827893E0,-6.451499662E0,8.686589410E0
1.161691367E1,3.264380631E-1,7.094670580E0,-4.250105415E0,8.276732960E0
1.162694767E1,-9.690751299E-1,8.563049102E0,-2.832391847E0,9.071238069E0
1.163698167E1,-2.083222604E0,9.850175049E0,-2.291562991E0,1.032555208E1
1.164701667E1,-3.107396047E0,1.057025849E1,-2.092551836E0,1.121450168E1
1.165705067E1,-3.908675968E0,1.060127797E1,-1.440016018E0,1.139028044E1
1.166708467E1,-4.536029583E0,1.027243757E1,-5.498943794E-1,1.124281646E1
1.167711867E1,-4.765364397E0,9.998163400E0,1.643500110E-1,1.107695717E1
1.168715367E1,-4.848393398E0,9.988536544E0,4.492439175E-1,1.111213755E1
1.169718767E1,-5.082122687E0,9.964367663E0,2.219983131E-1,1.118775568E1
1.170722167E1,-5.271036869E0,9.912749612E0,-5.165021002E-2,1.122715914E1
1.171725567E1,-5.468450564E0,9.812402036E0,-2.959679300E-1,1.123720527E1
1.172728967E1,-5.730026926E0,9.652159091E0,-3.563310760E-1,1.123051003E1
1.173732467E1,-6.118443428E0,9.506985590E0,-1.889761627E-1,1.130724710E1
1.174735867E1,-6.845108492E0,9.419610062E0,7.096063972E-2,1.164429471E1
1.175739267E1,-7.351321832E0,9.469255847E0,1.172776043E-1,1.198843163E1
1.176742667E1,-7.874851116E0,9.756036047E0,-1.109836249E-1,1.253817518E1
1.177746067E1,-8.553874821E0,1.106863422E1,2.263668044E-1,1.399052107E1
1.178749567E1,-1.049663035E1,1.648542697E1,7.384857953E-1,1.955745158E1
1.179752967E1,-8.075945048E0,1.005717701E1,-8.479405560E-2,1.289863899E1
1.180756367E1,-7.396440702E0,6.758419427E0,1.526656551E0,1.013480382E1
1.181759767E1,-7.283242115E0,6.621389928E0,1.817173122E0,1.000952239E1
1.182763167E1,-7.107823892E0,5.951843390E0,2.027617922E0,9.489827957E0
1.183766667E1,-6.848166001E0,5.416962322E0,2.188656088E0,9.001726160E0
1.184770067E1,-6.142504136E0,5.387986445E0,3.843328071E0,9.029503068E0
1.185773467E1,-5.291519081E0,4.743080074E0,4.736143229E0,8.539791301E0
1.186776867E1,-1.501657366E0,-8.070619404E-1,3.704932662E0,4.078339104E0
1.187780367E1,6.030155150E0,-1.183859792E1,4.433885157E0,1.400623109E1
1.188783767E1,1.539488149E1,-2.416539390E1,4.042336886E0,2.893629427E1
1.189787167E1,2.556208088E1,-3.745061402E1,9.151220671E-1,4.535202220E1
1.190790567E1,3.402601675E1,-4.944619798E1,-9.659752285E-1,6.003023754E1
1.191793967E1,3.410328888E1,-4.856554181E1,-6.121705005E0,5.965837272E1
1.192797467E1,2.812343498E1,-2.622285601E1,-1.454055885E1,4.110953204E1
1.193800867E1,1.886058819E1,-9.993084508E0,-8.930122683E0,2.313721280E1
1.194804267E1,1.113049308E1,-3.769735599E0,-2.613648094E0,1.203868511E1
1.195807667E1,6.283480505E0,4.589479566E-2,-5.208812993E-2,6.283864000E0
1.196811067E1,2.891370372E0,2.712011125E0,1.114079354E0,4.117790643E0
1.197814567E1,2.343452936E-1,4.563990968E0,1.591023871E0,4.839037945E0
1.198817967E1,-1.735788651E0,6.122783816E0,1.762456048E0,6.603612286E0
1.199821367E1,-3.291970133E0,7.250211194E0,1.798925278E0,8.163256818E0
1.200824767E1,-4.659629781E0,8.157941723E0,1.495006742E0,9.513107169E0
1.201828267E1,-5.780733980E0,8.794387173E0,9.803618641E-1,1.056973228E1
1.202831667E1,-6.814787756E0,9.111206859E0,5.859201714E-1,1.139292434E1
1.203835067E1,-7.511912102E0,9.094632926E0,7.685556134E-1,1.182082270E1
1.204838467E1,-8.083882644E0,8.859795297E0,1.532171645E0,1.209101655E1
1.205841867E1,-8.362960891E0,8.556601378E0,2.538815428E0,1.223111302E1
1.206845367E1,-8.124777485E0,8.467109742E0,2.970265099E0,1.210481026E1
1.207848767E1,-7.676073850E0,8.579914811E0,2.407119759E0,1.176143161E1
1.208852167E1,-7.365917067E0,8.716790528E0,1.805366424E0,1.155415593E1
1.209855567E1,-7.079803450E0,8.877663803E0,1.332131381E0,1.143289576E1
1.210858967E1,-6.785710137E0,9.052303178E0,7.710933781E-1,1.133951674E1
1.211862467E1,-6.511564600E0,9.247332378E0,3.548277569E-1,1.131545547E1
1.212865854E1,-6.327505361E0,9.557183352E0,-1.102691134E-1,1.146251443E1
1.213869254E1,-6.100041656E0,9.931191730E0,-6.080706668E-1,1.167085375E1
1.214872654E1,-5.850455595E0,1.044660274E1,-2.409551032E0,1.221332369E1
1.215876054E1,-4.744514396E0,1.140919945E1,-7.954052821E0,1.469514223E1
1.216879554E1,-3.711079255E0,1.160913680E1,-9.200751704E0,1.527082180E1
1.217882954E1,-3.334385836E0,1.120417385E1,-5.291554749E0,1.283168704E1
1.218886354E1,-2.935108715E0,1.033617690E1,-3.613904378E0,1.133630103E1
1.219889754E1,-4.309277483E0,7.037854355E0,-4.240558958E0,9.278125168E0
1.220893154E1,-5.912386379E0,4.751667879E0,1.075404992E0,7.661015352E0
1.221896654E1,-6.226145632E0,3.182429565E0,7.768905416E0,1.045220736E1
1.222900054E1,-6.494730467E0,4.022493775E0,8.111959219E0,1.114297368E1
1.223903454E1,-6.579350202E0,4.268220089E0,5.859383708E0,9.789684839E0
1.224906854E1,-4.350931293E0,-8.163198370E-1,5.687129413E0,7.206970387E0
1.225910354E1,8.113327467E-1,-1.076024622E1,1.036054108E1,1.495934394E1
1.226913754E1,8.057503515E0,-2.597461598E1,9.315081142E0,2.874673503E1
1.227917154E1,1.844539729E1,-3.993995381E1,1.247034513E0,4.401122228E1
1.228920554E1,2.823337199E1,-5.071482860E1,-3.379433370E0,5.814239162E1
1.229923954E1,3.357849426E1,-5.378409758E1,-1.117167035E1,6.438206775E1
1.230927454E1,2.798482557E1,-3.871820149E1,-6.071220145E0,4.815713138E1
1.231930854E1,1.943943096E1,-1.886733938E1,1.440286013E0,2.712825825E1
1.232934254E1,1.489146195E1,-9.186654067E0,3.161601198E-1,1.750000598E1
1.233937654E1,1.052865087E1,-3.619124773E0,-1.173884676E0,1.119502383E1
1.234941054E1,6.000714419E0,3.378106052E-1,-1.261543794E0,6.141187368E0
1.235944554E1,1.334961433E0,3.195598664E0,-4.553788527E-1,3.493042048E0
1.236947954E1,-1.459635766E0,5.693872422E0,1.618462515E-1,5.880213766E0
1.237951354E1,-3.209688699E0,7.397621840E0,1.680337934E-1,8.065677020E0
1.238954754E1,-4.363059588E0,8.570847534E0,-3.759537470E-1,9.624814681E0
1.239958254E1,-5.198306862E0,9.310415064E0,-9.211247456E-1,1.070302264E1
1.240961654E1,-5.909086211E0,9.439980007E0,-8.408097303E-1,1.116859362E1
1.241965054E1,-6.213438463E0,9.289687854E0,-1.685518384E-1,1.117736676E1
1.242968454E1,-6.255511519E0,9.259082358E0,2.195921838E-2,1.117418958E1
1.243971854E1,-6.285634035E0,9.403249553E0,-6.878664494E-2,1.131083679E1
1.244975354E1,-6.431104574E0,9.591421723E0,-2.884980937E-1,1.155152405E1
1.245978754E1,-6.816370012E0,1.000626296E1,-1.987308387E0,1.226937624E1
1.246982154E1,-7.875839880E0,1.069035913E1,-8.662479250E0,1.585405875E1
1.247985554E1,-8.046769781E0,1.113227064E1,-1.015052898E1,1.707955479E1
1.248988954E1,-7.425751040E0,1.138791207E1,-7.912938709E0,1.573025489E1
1.249992454E1,-6.784485145E0,1.159289557E1,-4.984012256E0,1.432706685E1
1.250995854E1,-6.412543173E0,1.181786018E1,-1.703484393E0,1.355302137E1
1.251999254E1,-6.218967006E0,1.208236132E1,1.433067187E0,1.366428510E1
1.253002654E1,-6.146789560E0,1.226114111E1,4.452833937E0,1.442034442E1
1.254006054E1,-5.657151908E0,1.183951944E1,6.028916709E0,1.444040944E1
1.255009554E1,-4.477857096E0,1.054915121E1,6.547354238E0,1.319862277E1
1.256012954E1,-3.871620116E0,9.494639779E0,6.371058347E0,1.207178576E1
1.257016354E1,-3.671119384E0,8.666925473E0,6.340763923E0,1.134892073E1
1.258019754E1,-3.794336005E0,7.783047491E0,6.021911745E0,1.054685901E1
1.259023254E1,-3.838756133E0,7.175456881E0,5.700330672E0,9.935642901E0
1.260026654E1,-3.646274857E0,6.892670914E0,5.888599321E0,9.771378338E0
1.261030054E1,-3.301288548E0,6.524867601E0,6.476624563E0,9.768268476E0
1.262033454E1,-2.149335317E0,5.587622666E0,7.113186958E0,9.297236044E0
1.263036854E1,1.620703168E0,6.756919616E-1,7.318795525E0,7.526486985E0
1.264040354E1,7.233096979E0,-7.726231851E0,1.216886971E1,1.612742200E1
1.265043754E1,1.850179485E1,-2.165469305E1,7.686224617E0,2.950118968E1
1.266047154E1,3.128782413E1,-3.996301055E1,-1.097173065E1,5.192638082E1
1.267050554E1,3.951331289E1,-5.965106279E1,-4.433907143E1,8.417543848E1
1.268053954E1,2.716904543E1,-5.186563548E1,-6.709425023E0,5.893401019E1
1.269057454E1,1.225712875E1,-3.190298397E1,8.511310015E0,3.522044845E1
1.270060854E1,7.486344566E0,-1.607775208E1,5.247136960E0,1.849518622E1
1.271064254E1,3.709910982E0,-7.718622285E0,3.903963989E0,9.411774768E0
1.272067654E1,5.361367580E-1,-2.479647453E0,3.700046729E0,4.486250094E0
1.273071154E1,-1.836278315E0,1.114982164E0,3.948591693E0,4.495161803E0
1.274074554E1,-3.316289873E0,3.522300144E0,3.972588666E0,6.259859226E0
1.275077954E1,-4.070791776E0,5.091190549E0,3.955761842E0,7.624934009E0
1.276081354E1,-4.585200573E0,6.136593770E0,3.806956050E0,8.554224791E0
1.277084754E1,-4.836844270E0,6.819988854E0,3.489311907E0,9.059945256E0
1.278088254E1,-5.035837297E0,7.265029793E0,2.991366531E0,9.332126708E0
1.279091654E1,-5.157360565E0,7.534266007E0,2.274384456E0,9.409376011E0
1.280095054E1,-5.166714941E0,7.732874288E0,1.177727466E0,9.374397581E0
1.281098454E1,-5.898371773E0,8.409170267E0,-3.657832171E0,1.090342471E1
1.282101854E1,-7.672967809E0,9.406556738E0,-1.235070174E1,1.731755116E1
1.283105354E1,-8.339017712E0,9.389927841E0,-1.261742131E1,1.780194601E1
1.284108754E1,-8.551426007E0,9.126179824E0,-1.211169563E1,1.740997461E1
1.285112154E1,-9.143182942E0,8.498049114E0,-1.399904703E1,1.875601106E1
1.286115554E1,-9.536877726E0,7.434803115E0,-1.485967766E1,1.915824507E1
1.287118954E1,-8.023752217E0,6.585579826E0,-9.866582336E0,1.432130959E1
1.288122454E1,-6.282085360E0,6.532733275E0,-4.603303553E0,1.016521540E1
1.289125854E1,-4.846217941E0,6.881241946E0,-1.514537612E0,8.551674879E0
1.290129254E1,-3.208336823E0,7.181245624E0,7.795636547E-1,7.903887232E0
1.291132654E1,-1.299807388E0,7.638130099E0,2.924275578E0,8.281420066E0
1.292136154E1,-1.760120085E-1,8.232628793E0,3.677209843E0,9.018260880E0
1.293139554E1,5.870458335E-1,8.408353996E0,3.758563324E0,9.228858975E0
1.294142954E1,1.249915144E0,7.976357026E0,3.974538420E0,8.998972993E0
1.295146354E1,1.774701579E0,7.199132257E0,4.519129668E0,8.683294530E0
1.296149754E1,2.147071860E0,6.068725138E0,5.088803716E0,8.205806824E0
1.297153254E1,2.457448206E0,4.564637085E0,5.346485832E0,7.447138656E0
1.298156654E1,3.045731018E0,2.780649251E0,5.354705848E0,6.758798888E0
1.299160054E1,4.135989693E0,3.902782559E-1,5.342832491E0,6.767908605E0
1.300163454E1,5.634698600E0,-2.503351480E0,5.157041892E0,8.038138965E0
1.301166854E1,7.710433259E0,-6.286219926E0,5.381355118E0,1.131045202E1
1.302170354E1,1.048547035E1,-1.341387991E1,1.012082161E1,1.980677391E1
1.303173754E1,1.371813159E1,-2.346443904E1,7.817229145E0,2.828208100E1
1.304177154E1,1.414865974E1,-3.402332469E1,-1.188681406E1,3.871779364E1
1.305180554E1,1.180796318E1,-3.595818940E1,-2.085324093E1,4.321200108E1
1.306184054E1,1.017243732E1,-2.761323735E1,-1.002454955E1,3.108795509E1
1.307187454E1,1.012171507E1,-1.851843252E1,-2.245315608E0,2.122316897E1
1.308190854E1,9.352566472E0,-1.112407869E1,9.584919620E-1,1.456483207E1
1.309194254E1,7.664785216E0,-5.562318841E0,1.727974871E0,9.626745060E0
1.310197654E1,6.218436663E0,-2.118153870E0,1.824044770E0,6.817820009E0
1.311201154E1,4.941642162E0,-1.407717168E-1,1.639047053E0,5.208274107E0
1.312204496E1,3.592266757E0,1.361977324E0,1.359657733E0,4.075295307E0
1.313207896E1,2.179039757E0,2.983356430E0,1.060212464E0,3.843524466E0
1.314211296E1,7.864583990E-1,4.700118241E0,4.800306773E-1,4.789578034E0
1.315214696E1,-6.287347269E-1,6.598762373E0,-6.972442138E-1,6.665217304E0
1.316218196E1,-2.067577209E0,8.245120785E0,-2.774280463E0,8.941673465E0
1.317221596E1,-3.704681524E0,9.439491180E0,-5.964181015E0,1.176435779E1
1.318224996E1,-5.739152091E0,1.029337061E1,-8.385694281E0,1.446413543E1
1.319228396E1,-7.791426551E0,1.024227530E1,-7.976094486E0,1.514029769E1
1.320231796E1,-9.287517368E0,9.541926212E0,-5.853751670E0,1.454554032E1
1.321235296E1,-9.873294940E0,8.567414634E0,-2.002905250E0,1.322475618E1
1.322238696E1,-1.000628635E1,7.823805508E0,1.664194758E0,1.281043494E1
1.323242096E1,-9.786889465E0,7.558247777E0,3.753464552E0,1.292280198E1
1.324245496E1,-9.303947459E0,7.690759133E0,4.245562713E0,1.279593752E1
1.325248996E1,-8.822264943E0,7.975934272E0,4.195505869E0,1.261150886E1
1.326252396E1,-7.958128331E0,8.295475836E0,3.855287966E0,1.212476685E1
1.327255796E1,-6.179062098E0,8.842684590E0,3.148546704E0,1.123775892E1
1.328259196E1,-4.208935170E0,9.427802596E0,2.314676449E0,1.058094155E1
1.329262596E1,-2.884385581E0,9.914151775E0,1.918319428E0,1.050190626E1
1.330266096E1,-2.067641821E0,1.035519439E1,1.600777026E0,1.068024722E1
1.331269496E1,-1.345097582E0,1.061838224E1,1.330297694E0,1.078559321E1
1.332272896E1,-5.710292865E-1,1.064501982E1,1.427836268E0,1.075552127E1
1.333276296E1,1.791923091E-1,1.058565655E1,1.716280586E0,1.072538360E1
1.334279696E1,7.141015904E-1,1.037161688E1,1.965695908E0,1.058037514E1
1.335283196E1,1.099043677E0,1.004014641E1,2.084914788E0,1.031306485E1
1.336286596E1,1.165600633E0,9.372235921E0,2.076535728E0,9.670027488E0
1.337289996E1,1.126640927E0,8.151514463E0,2.274862758E0,8.537652394E0
1.338293396E1,1.379057333E0,5.577267832E0,1.859660745E0,6.038712916E0
1.339296796E1,2.332326562E0,1.794352024E0,7.405551249E-1,3.034446947E0
1.340300296E1,3.443711811E0,-2.677655225E0,6.024245954E-1,4.403623955E0
1.341303696E1,5.501704849E0,-1.113299569E1,9.607232594E-1,1.245533374E1
1.342307096E1,8.790697580E0,-2.557472490E1,2.859465625E0,2.719410710E1
1.343310496E1,1.268767561E1,-4.291264083E1,2.527972351E0,4.482033578E1
1.344313996E1,1.456052592E1,-5.519119027E1,3.087799981E0,5.716302045E1
1.345317396E1,1.148809944E1,-5.739757394E1,7.068331212E0,5.896116713E1
1.346320796E1,7.146158237E0,-4.109229969E1,1.897998015E0,4.175221033E1
1.347324196E1,6.719553570E0,-2.190783539E1,-4.295310824E0,2.331427346E1
1.348327596E1,5.956069758E0,-1.096305689E1,-8.316415300E0,1.499420378E1
1.349331096E1,5.819366534E0,-3.367243679E0,-1.446942396E1,1.595517429E1
1.350334496E1,4.699227126E0,2.795553803E-1,-1.443316654E1,1.518147500E1
1.351337896E1,2.460439642E0,2.290867757E0,-1.035112356E1,1.088336332E1
1.352341296E1,3.647838110E-1,4.158558483E0,-7.282121789E0,8.393805670E0
1.353344696E1,-1.617208287E0,5.732240682E0,-5.235699806E0,7.930100777E0
1.354348196E1,-3.356755236E0,6.920090847E0,-3.454239138E0,8.431324396E0
1.355351596E1,-4.684355317E0,7.608599905E0,-1.823964809E0,9.119255720E0
1.356354996E1,-5.727567002E0,8.292001421E0,-3.576145399E-1,1.008415586E1
1.357358396E1,-6.475818232E0,8.873871884E0,9.158721918E-1,1.102364032E1
1.358361896E1,-6.865563222E0,9.570469396E0,1.211654765E0,1.184052153E1
1.359365296E1,-7.405081133E0,1.018716178E1,5.896267945E-1,1.260797968E1
1.360368696E1,-8.067464247E0,1.059391164E1,-6.266583075E-1,1.333070305E1
1.361372096E1,-7.934183983E0,1.081576319E1,-5.873066193E-1,1.342672477E1
1.362375496E1,-7.219661247E0,1.093714905E1,4.189851246E-1,1.311183764E1
1.363378996E1,-6.248371484E0,1.106092525E1,1.146508012E0,1.275541823E1
1.364382396E1,-5.215828629E0,1.118996862E1,1.328944649E0,1.241718003E1
1.365385796E1,-4.221234788E0,1.135961623E1,1.586999817E0,1.222204044E1
1.366389196E1,-3.537287727E0,1.164438733E1,2.014993783E0,1.233549191E1
1.367392596E1,-3.065362168E0,1.190727346E1,2.372121835E0,1.252224295E1
1.368396096E1,-2.679493005E0,1.215554624E1,2.585548714E0,1.271306609E1
1.369399496E1,-2.181511960E0,1.219720999E1,2.692405411E0,1.267990429E1
1.370402896E1,-1.216683809E0,1.135414207E1,2.689119276E0,1.173150562E1
1.371406296E1,-7.882417998E-1,1.018534447E1,2.668554618E0,1.055858659E1
1.372409696E1,-1.121879686E0,9.229124148E0,2.923801954E0,9.745971703E0
1.373413196E1,-1.356491759E0,8.837491677E0,3.362794533E0,9.552471728E0
1.374416596E1,-1.296534263E0,8.393921313E0,3.688305520E0,9.259725359E0
1.375419996E1,-9.409459296E-1,7.642096265E0,4.333500159E0,8.835510070E0
1.376423396E1,-3.914960848E-1,5.506632298E0,4.801613041E0,7.316539909E0
1.377426896E1,4.772329308E-1,1.221822488E-1,4.799971143E0,4.825184219E0
1.378430296E1,3.036417573E0,-6.168185107E0,5.596090604E0,8.864681001E0
1.379433696E1,9.618042342E0,-1.669044672E1,5.320766269E0,1.998470175E1
1.380437096E1,1.826098312E1,-3.002559037E1,4.006663023E0,3.537022661E1
1.381440496E1,2.510790191E1,-4.457782026E1,1.700742195E0,5.119063705E1
1.382443996E1,2.504399652E1,-5.291379333E1,-3.312681190E-1,5.854213034E1
1.383447396E1,1.495079599E1,-4.635999546E1,-2.776021764E0,4.879018115E1
1.384450796E1,1.139206711E1,-2.449791102E1,-6.668087547E0,2.782786784E1
1.385454196E1,1.039320597E1,-9.539991953E0,-7.224219736E0,1.584990623E1
1.386457596E1,7.075862426E0,-3.293819607E0,-4.939686853E0,9.236751750E0
1.387461096E1,4.627760409E0,9.643327457E-1,-2.990736201E0,5.593800772E0
1.388464496E1,2.872976201E0,3.917067892E0,-1.664731532E0,5.135050555E0
1.389467896E1,9.836077997E-1,6.009429694E0,-9.755968219E-1,6.167051054E0
1.390471296E1,-1.362972812E0,7.535548301E0,-4.769521183E-1,7.672657063E0
1.391474796E1,-3.775375823E0,8.611674548E0,5.521001318E-2,9.403055316E0
1.392478196E1,-5.288836963E0,9.239070262E0,1.503587751E-1,1.064682223E1
1.393481596E1,-6.507842848E0,9.322178493E0,8.343374473E-1,1.139961181E1
1.394484996E1,-7.980626078E0,9.072891224E0,2.297462246E0,1.229984067E1
1.395488396E1,-9.292603276E0,9.053742177E0,2.904702609E0,1.329511265E1
1.396491896E1,-1.011709694E1,9.282853044E0,1.798390111E0,1.384778748E1
1.397495296E1,-1.065049983E1,9.566993226E0,2.480637386E-2,1.431646330E1
1.398498696E1,-1.082716877E1,9.822515380E0,-2.720258623E0,1.486974105E1
1.399502096E1,-1.147806561E1,1.005628706E1,-7.168418587E0,1.686004522E1
1.400505496E1,-1.189360501E1,1.030303021E1,-8.146332076E0,1.771928322E1
1.401508996E1,-1.173977997E1,1.262359129E1,-4.467989627E0,1.780843683E1
1.402512396E1,-1.215982055E1,1.483717172E1,-2.903232034E0,1.940184674E1
1.403515796E1,-1.198972271E1,1.013535311E1,-6.851143404E0,1.712941912E1
1.404519196E1,-1.006248628E1,6.838873606E0,-7.745975559E0,1.442303573E1
1.405522596E1,-5.814367164E0,6.926087751E0,-6.163455294E0,1.094375339E1
1.406526096E1,-2.597169471E0,7.315823386E0,-5.060286260E0,9.266771720E0
1.407529496E1,-1.948208055E0,6.809475560E0,-1.876729937E0,7.327113162E0
1.408532896E1,-2.187142829E0,6.106197605E0,1.221812548E0,6.600156729E0
1.409536296E1,-1.709776728E0,5.558326946E0,2.052317145E0,6.166874457E0
1.410539796E1,-6.788938969E-1,4.468296606E0,1.470273605E0,4.752712484E0
1.411543196E1,5.292519540E-1,2.884979365E0,7.407492524E-1,3.025214542E0
1.412546633E1,1.626655341E0,3.272745073E-1,1.291772144E0,2.102805620E0
1.413550033E1,2.542248328E0,-3.032858958E0,2.323705720E0,4.589212165E0
1.414553433E1,4.081008324E0,-6.549049931E0,2.009183990E0,7.973801116E0
1.415556933E1,5.836813456E0,-1.113249400E1,1.851975750E0,1.270553534E1
1.416560333E1,7.811887713E0,-1.665593295E1,2.510885618E0,1.856745105E1
1.417563733E1,1.061928037E1,-2.343945038E1,1.998964226E0,2.581032367E1
1.418567133E1,1.271391090E1,-3.293738916E1,-1.941773779E0,3.535937811E1
1.419570533E1,1.319935493E1,-3.906982030E1,-3.954433354E0,4.142838847E1
1.420574033E1,1.461082367E1,-3.682097882E1,-3.897073338E0,3.980512316E1
1.421577433E1,1.699615085E1,-2.391191242E1,-1.282766848E0,2.936484617E1
1.422580833E1,1.457930367E1,-1.318827094E1,1.489488140E0,1.971560704E1
1.423584233E1,1.066552016E1,-7.633279248E0,2.704325545E0,1.339155140E1
1.424587733E1,7.348961311E0,-3.862967699E0,3.605672668E0,9.051553854E0
1.425591133E1,4.298454287E0,-8.801667541E-1,4.148135237E0,6.038081542E0
1.426594533E1,1.556039102E0,1.875669252E0,4.401790960E0,5.031416946E0
1.427597933E1,-5.681175193E-1,4.534096493E0,5.705842842E0,7.310091043E0
1.428601333E1,-2.501070189E0,6.411111774E0,6.290532832E0,9.323545977E0
1.429604833E1,-3.683851403E0,7.581071799E0,5.158424758E0,9.881940941E0
1.430608233E1,-3.901900799E0,8.478957371E0,3.379919858E0,9.926802415E0
1.431611633E1,-3.698868223E0,9.348928335E0,1.364522617E0,1.014623128E1
1.432615033E1,-4.274622205E0,1.047158205E1,-4.117147332E0,1.203649981E1
1.433618433E1,-5.283450508E0,1.139824527E1,-1.044271083E1,1.633661697E1
1.434621933E1,-5.781901669E0,1.155349470E1,-1.159417027E1,1.735910167E1
1.435625333E1,-5.704133116E0,1.166181554E1,-1.051235819E1,1.670463262E1
1.436628733E1,-5.309157207E0,1.166550630E1,-8.882419928E0,1.559386326E1
1.437632133E1,-4.874292178E0,1.157148424E1,-6.970685050E0,1.436135167E1
1.438635533E1,-4.640906704E0,1.166525604E1,-4.985006867E0,1.350801640E1
1.439639033E1,-4.647345366E0,1.201160767E1,-3.156355661E0,1.326043434E1
1.440642433E1,-5.104970098E0,1.280838904E1,-1.916707935E0,1.392082321E1
1.441645833E1,-5.553703553E0,1.364019873E1,-7.410924840E-1,1.474611348E1
1.442649233E1,-5.352293286E0,1.345309368E1,5.161442506E-1,1.448789763E1
1.443652733E1,-4.757997198E0,1.260634669E1,1.579634664E0,1.356664143E1
1.444656133E1,-4.087828516E0,1.157404883E1,2.499989916E0,1.252672734E1
1.445659533E1,-3.473290829E0,1.029189594E1,2.584045980E0,1.116531078E1
1.446662933E1,-3.270725737E0,9.220007170E0,2.515653437E0,1.010122227E1
1.447666333E1,-3.245070786E0,8.636085504E0,2.919720597E0,9.676632968E0
1.448669833E1,-3.222554328E0,8.200146341E0,3.285065156E0,9.403132961E0
1.449673233E1,-3.068044578E0,7.932221072E0,3.532743856E0,9.209414087E0
1.450676633E1,-2.684300878E0,7.748714395E0,3.980571578E0,9.115535972E0
1.451680033E1,-2.294590094E0,7.437955348E0,3.886498064E0,8.700183370E0
1.452683433E1,-1.583988501E0,6.071882050E0,3.306957132E0,7.093147163E0
1.453686933E1,6.107764658E-1,1.091039570E0,2.460073314E0,2.759597062E0
1.454690333E1,5.697198318E0,-5.174509864E0,2.581082611E0,8.117611007E0
1.455693733E1,1.429085584E1,-1.908125041E1,1.226446466E0,2.387104625E1
1.456697133E1,2.627790404E1,-3.793438223E1,-1.699888501E0,4.617829812E1
1.457700633E1,3.356761843E1,-5.278793318E1,-3.245608145E0,6.264092008E1
1.458704033E1,2.307814625E1,-5.833095328E1,-3.795137658E0,6.284507948E1
1.459707433E1,1.001514371E1,-4.647196730E1,-4.263984366E0,4.772974346E1
1.460710833E1,9.578294724E0,-2.124935237E1,-2.833134443E0,2.347989260E1
1.461714233E1,8.270122894E0,-8.152637714E0,-9.803231263E-1,1.165424677E1
1.462717733E1,5.710983129E0,-2.938219433E0,7.270077109E-2,6.422907997E0
1.463721133E1,3.472349135E0,4.267075789E-1,7.928415120E-1,3.587183510E0
1.464724533E1,1.082203258E0,2.818585401E0,1.360144222E0,3.311431693E0
1.465727933E1,-8.871877983E-1,4.571228067E0,1.599432752E0,4.923556982E0
1.466731333E1,-2.425296999E0,6.121852940E0,1.725968252E0,6.807210541E0
1.467734833E1,-4.000551513E0,7.321099328E0,1.804410405E0,8.535736916E0
1.468738233E1,-5.094455634E0,8.215903417E0,1.840245066E0,9.840784983E0
1.469741633E1,-5.829904971E0,8.881525889E0,1.410571194E0,1.071722936E1
1.470745033E1,-6.580502104E0,9.393209884E0,-8.168490100E-1,1.149794078E1
1.471748433E1,-7.573278630E0,9.812776258E0,-4.437266894E0,1.316565473E1
1.472751933E1,-8.262101099E0,9.903387051E0,-5.759182897E0,1.412471512E1
1.473755333E1,-8.567638582E0,9.921490030E0,-5.274644017E0,1.413018984E1
1.474758733E1,-8.778241256E0,9.991911557E0,-3.291498263E0,1.370145164E1
1.475762133E1,-9.054320467E0,1.009338881E1,-6.938276857E-1,1.357713570E1
1.476765633E1,-8.947734497E0,1.032378198E1,1.218697663E0,1.371596336E1
1.477769033E1,-9.037905579E0,1.071203125E1,1.553427297E0,1.410122289E1
1.478772433E1,-9.659354090E0,1.212305326E1,9.567511728E-1,1.553019364E1
1.479775833E1,-9.409125420E0,1.555037299E1,-6.846697766E-1,1.818830707E1
1.480779233E1,-8.467883914E0,1.491494671E1,-6.678438288E0,1.840549459E1
1.481782733E1,-5.675652498E0,1.009744094E1,-1.356789323E1,1.783981703E1
1.482786133E1,-3.364674120E0,9.105791752E0,-7.892932461E0,1.251138914E1
1.483789533E1,-3.336867101E0,8.914370284E0,-1.586882288E0,9.649812175E0
1.484792933E1,-3.063541637E0,8.554441416E0,9.121884459E-1,9.132132449E0
1.485796333E1,-2.373647666E0,8.469172640E0,1.026927774E0,8.855262226E0
1.486799833E1,-1.915332963E0,8.337146603E0,8.607335329E-1,8.597521507E0
1.487803233E1,-1.950019815E0,8.077502747E0,1.180228904E0,8.392947526E0
1.488806633E1,-2.154329424E0,7.766340827E0,1.861765158E0,8.271841065E0
1.489810033E1,-1.782474283E0,6.911542218E0,2.275730485E0,7.491700717E0
1.490813533E1,-3.979334307E-1,4.413176073E0,1.288727499E0,4.614682290E0
1.491816933E1,8.320035312E-1,1.569878000E-1,1.438900369E0,1.669523680E0
1.492820333E1,3.486451449E0,-8.836504083E0,2.734802402E0,9.885256309E0
1.493823733E1,1.207637611E1,-2.937668275E1,4.402373343E0,3.206570193E1
1.494827133E1,2.413975269E1,-5.454623302E1,3.183662158E0,5.973403470E1
1.495830633E1,3.105445006E1,-7.100415236E1,-2.242052861E0,7.753060893E1
1.496834033E1,1.967993162E1,-6.148856668E1,-6.705966979E0,6.490850125E1
1.497837433E1,1.013007308E1,-3.178581980E1,-7.224646583E0,3.413432640E1
1.498840833E1,8.079738137E0,-1.254491350E1,-4.413328101E0,1.556067119E1
1.499844233E1,5.650778443E0,-4.932222882E0,-2.274135949E0,7.837717390E0
1.500847733E1,4.186365210E0,-5.943063211E-1,-1.284433889E0,4.419120284E0
1.501851133E1,3.222778861E0,2.214734085E0,-6.924500817E-1,3.971251411E0
1.502854533E1,2.331498304E0,4.272092700E0,-2.662529647E-1,4.874171829E0
1.503857933E1,1.138757820E0,6.045942047E0,8.811987877E-2,6.152881416E0
1.504861433E1,-6.485138109E-1,7.732262669E0,4.374038905E-1,7.771729429E0
1.505864833E1,-1.973748109E0,8.878126903E0,8.736839461E-1,9.136746824E0
1.506868233E1,-2.712504338E0,9.708678862E0,1.348974286E0,1.017034201E1
1.507871633E1,-3.392292274E0,1.036357696E1,1.522816685E0,1.101046524E1
1.508875033E1,-3.848554897E0,1.053379408E1,1.243361877E0,1.128353408E1
1.509878533E1,-4.097033203E0,1.054190066E1,1.196471300E0,1.137316553E1
1.510881933E1,-4.433270907E0,1.049254782E1,1.047385427E0,1.143872663E1
1.511885333E1,-4.852646955E0,1.053535880E1,7.737778348E-1,1.162500321E1
1.512888679E1,-5.357425972E0,1.063495325E1,4.272677422E-1,1.191582147E1
1.513892079E1,-5.855599390E0,1.076840893E1,8.904425047E-2,1.225783847E1
1.514895579E1,-6.273119239E0,1.098585870E1,-2.636684954E-1,1.265348321E1
1.515898979E1,-6.593948945E0,1.128244585E1,-7.849921366E-1,1.309159882E1
1.516902379E1,-7.270855958E0,1.182213333E1,-2.173522325E0,1.404821633E1
1.517905779E1,-7.928066626E0,1.236340189E1,-3.981374400E0,1.521707228E1
1.518909279E1,-8.773917825E0,1.300956132E1,-4.396388133E0,1.629596724E1
1.519912679E1,-9.756144805E0,1.370327382E1,-3.259787058E0,1.713441818E1
1.520916079E1,-1.013055255E1,1.360941548E1,-1.437094164E0,1.702672970E1
1.521919479E1,-8.098933961E0,1.085372449E1,-1.676794338E-1,1.354341844E1
1.522922879E1,-5.934762504E0,8.502944403E0,1.201702219E0,1.043865689E1
1.523926379E1,-4.853717287E0,7.655476449E0,2.067140422E0,9.297201766E0
1.524929779E1,-4.238460100E0,7.516950647E0,1.931214877E0,8.843001863E0
1.525933179E1,-3.362950069E0,7.459697050E0,1.250700717E0,8.277727075E0
1.526936579E1,-2.319236985E0,7.001281191E0,8.022414958E-1,7.418921075E0
1.527939979E1,-9.145366877E-1,5.561321306E0,9.581213216E-1,5.716875763E0
1.528943479E1,-7.692573524E-1,5.642154969E0,4.790008657E0,7.441092158E0
1.529946879E1,2.611512691E-1,4.959540489E0,5.214930496E0,7.201440267E0
1.530950279E1,3.551821566E0,-1.246020606E0,3.164479197E0,4.917512824E0
1.531953679E1,6.666619896E0,-9.116219092E0,1.845011716E0,1.144348459E1
1.532957079E1,1.872051580E1,-2.915230170E1,1.017624854E0,3.466049576E1
1.533960579E1,3.835049583E1,-5.853368327E1,3.769419265E-1,6.997924472E1
1.534963979E1,4.610414469E1,-7.639382104E1,1.714083202E0,8.924430588E1
1.535967379E1,2.945168148E1,-5.409596935E1,-1.010445058E0,6.160191914E1
1.536970779E1,1.654509898E1,-1.928946509E1,-6.810910467E0,2.630992712E1
1.537974279E1,1.035246491E1,-5.274867380E0,-1.134814282E1,1.624124691E1
1.538977679E1,4.453760720E0,-6.010469913E-2,-8.691968513E0,9.766776017E0
1.539981079E1,-4.646703342E-1,2.964980970E0,-5.355123339E0,6.138760188E0
1.540984479E1,-4.347519735E0,4.814999657E0,-2.080260404E0,6.812681770E0
1.541987879E1,-7.236918134E0,6.131598494E0,1.484512160E0,9.600690627E0
1.542991379E1,-9.725956800E0,6.904761202E0,2.969373983E0,1.229175109E1
1.543994779E1,-1.137322153E1,7.652909521E0,4.076881067E0,1.430168351E1
1.544998179E1,-1.224150616E1,8.434367089E0,5.113658475E0,1.572076729E1
1.546001579E1,-1.261708919E1,8.989841466E0,4.918104195E0,1.625410527E1
1.547004979E1,-1.246324193E1,9.360295907E0,4.295388007E0,1.616780433E1
1.548008479E1,-1.151455341E1,9.835945265E0,3.146624724E0,1.546712664E1
1.549011879E1,-1.004116616E1,1.031039536E1,1.507176699E0,1.447068941E1
1.550015279E1,-8.995988059E0,1.084532671E1,-1.500773997E0,1.417043525E1
1.551018679E1,-8.699368165E0,1.168704042E1,-5.673328230E0,1.563497917E1
1.552022179E1,-8.744397572E0,1.267623729E1,-6.628510083E0,1.676569791E1
1.553025579E1,-9.268985202E0,1.457087783E1,-4.537691946E0,1.785539738E1
1.554028979E1,-1.026325628E1,1.442734740E1,-3.649865924E0,1.807772949E1
1.555032379E1,-1.079963189E1,1.041040263E1,-4.930459362E0,1.578980562E1
1.556035779E1,-1.023309868E1,8.460526947E0,-4.573721904E0,1.404335276E1
1.557039279E1,-9.304787704E0,7.771374695E0,-3.663717393E0,1.266476072E1
1.558042679E1,-7.655813248E0,7.143984827E0,-2.834725471E0,1.084821018E1
1.559046079E1,-5.567691847E0,6.822470412E0,-1.497409363E0,8.932386570E0
1.560049479E1,-4.335823842E0,6.892218339E0,4.456724381E-1,8.154794047E0
1.561052879E1,-3.834241498E0,7.054154053E0,2.045948943E0,8.285433262E0
1.562056379E1,-3.378437589E0,6.984483309E0,2.582447351E0,8.177156105E0
1.563059779E1,-2.698273677E0,6.309607034E0,3.362868208E0,7.642035353E0
1.564063179E1,-1.324704832E0,4.541390895E0,3.668835461E0,5.986604028E0
1.565066579E1,-2.286281785E-1,2.411350220E0,3.196859908E0,4.010834576E0
1.566069979E1,1.224691132E0,-2.290553176E-1,2.912150792E0,3.167484324E0
1.567073479E1,4.068700812E0,-5.140296636E0,3.398564290E0,7.384254535E0
1.568076879E1,8.623452594E0,-1.395702193E1,5.319278737E0,1.724694529E1
1.569080279E1,1.566429078E1,-2.640793442E1,5.832689999E0,3.125330828E1
1.570083679E1,2.263730361E1,-3.942153500E1,1.550472261E0,4.548526025E1
1.571087179E1,2.693327634E1,-4.879149226E1,-2.805669487E0,5.580217623E1
1.572090579E1,2.546865875E1,-4.746758440E1,-1.000794345E1,5.479035571E1
1.573093979E1,2.107561990E1,-2.736198717E1,-1.448747899E1,3.745326613E1
1.574097379E1,1.570353963E1,-1.293114197E1,-6.000618525E0,2.120903139E1
1.575100779E1,1.139524097E1,-7.382955853E0,-2.211393205E-1,1.357970753E1
1.576104279E1,7.991756837E0,-3.728467121E0,1.715560209E0,8.984029789E0
1.577107679E1,5.239984646E0,-6.853615022E-1,2.673952768E0,5.922599335E0
1.578111079E1,3.221372021E0,2.198244352E0,3.338962451E0,5.134022417E0
1.579114479E1,8.701460883E-1,4.686280805E0,4.361477916E0,6.460717578E0
1.580117979E1,-1.969171785E0,6.901627094E0,6.164490252E0,9.461027118E0
1.581121379E1,-4.294219149E0,8.449979154E0,7.254528193E0,1.193610678E1
1.582124779E1,-6.013617470E0,9.554301260E0,7.546815301E0,1.357949516E1
1.583128179E1,-7.117733168E0,1.027516706E1,7.050684900E0,1.435107456E1
1.584131579E1,-7.325969474E0,1.070087125E1,5.886172142E0,1.424168167E1
1.585135079E1,-6.787821566E0,1.083139163E1,4.001584716E0,1.339426170E1
1.586138479E1,-6.048802505E0,1.098261700E1,1.500047042E0,1.262758999E1
1.587141879E1,-6.505587577E0,1.202402482E1,-8.921767597E0,1.632475971E1
1.588145279E1,-7.021449407E0,1.267747806E1,-1.166962508E1,1.860643306E1
1.589148679E1,-6.448084304E0,1.257104821E1,-7.364613723E0,1.593256350E1
1.590152179E1,-5.924036956E0,1.236960930E1,-5.232825315E0,1.467937018E1
1.591155579E1,-5.361116150E0,1.205824506E1,-3.081366289E0,1.355129730E1
1.592158979E1,-5.016367239E0,1.176383191E1,-7.909177780E-1,1.281316637E1
1.593162379E1,-5.580068064E0,1.151781265E1,6.819438046E-1,1.281648217E1
1.594165779E1,-6.302650017E0,1.140048242E1,8.096124959E-1,1.305181478E1
1.595169279E1,-6.171802779E0,1.145181396E1,2.252511191E-1,1.301099268E1
1.596172679E1,-4.684777486E0,1.164389031E1,-9.744045746E-1,1.258875633E1
1.597176079E1,-2.729891033E0,1.164250803E1,-3.037264835E0,1.233796077E1
1.598179479E1,-1.304457094E0,1.101916911E1,-5.564434948E0,1.241316368E1
1.599182979E1,-6.227100483E-1,9.419662102E0,-5.659284972E0,1.100660294E1
1.600186379E1,-1.358147105E0,7.880721720E0,-1.349207590E0,8.109913656E0
1.601189779E1,-1.938883208E0,7.722003145E0,2.795374879E0,8.438170499E0
1.602193179E1,-1.905044202E0,7.175489625E0,2.625241953E0,7.874562851E0
1.603196579E1,-2.826284722E0,6.376855862E0,3.185235643E0,7.667979011E0
1.604200079E1,-2.979651342E0,3.880104133E0,6.343018609E0,8.010456621E0
1.605203479E1,-1.167032908E0,-1.861072848E0,9.116190441E0,9.377125685E0
1.606206879E1,3.165894516E0,-1.137400038E1,9.001090339E0,1.484622511E1
1.607210279E1,1.015598677E1,-2.277728127E1,7.308816082E0,2.598783181E1
1.608213779E1,2.076302307E1,-3.797281013E1,3.337502986E0,4.340710037E1
1.609217179E1,3.142600554E1,-5.365000923E1,9.672171772E-1,6.218402386E1
1.610220579E1,3.054234858E1,-5.674539890E1,-2.545109956E0,6.449304565E1
1.611223979E1,2.120414638E1,-3.770147126E1,-8.417918286E0,4.406674605E1
1.612227379E1,1.540875576E1,-1.309667548E1,-1.705558780E1,2.645459767E1
1.613230904E1,9.814636842E0,-4.908669713E0,-1.141305978E1,1.583287934E1
1.614234304E1,4.222916447E0,-1.667778516E0,-4.319836970E0,6.267016830E0
1.615237704E1,-1.039751303E0,5.735440278E-1,1.243135407E-1,1.193938600E0
1.616241104E1,-4.866467434E0,2.497576770E0,3.194387705E0,6.334390880E0
1.617244504E1,-6.892749851E0,4.304091003E0,5.408179804E0,9.761332320E0
1.618248004E1,-7.828565726E0,6.112462311E0,6.641970373E0,1.194840606E1
1.619251404E1,-7.510816918E0,7.558409160E0,6.826487449E0,1.265475605E1
1.620254804E1,-6.740618749E0,8.469226434E0,6.330987378E0,1.253974237E1
1.621258204E1,-5.939912732E0,8.971225101E0,5.194156508E0,1.194758155E1
1.622261604E1,-5.172574435E0,9.324551293E0,3.955943105E0,1.137331389E1
1.623265104E1,-4.740586821E0,9.610902892E0,2.894660016E0,1.110052586E1
1.624268504E1,-4.562713351E0,9.840585616E0,1.866600221E0,1.100634702E1
1.625271904E1,-4.418905468E0,1.011187303E1,1.030255424E0,1.108323635E1
1.626275304E1,-4.354080604E0,1.026796095E1,1.791680431E-1,1.115442249E1
1.627278804E1,-4.649178176E0,1.034018809E1,-1.836061383E0,1.148501062E1
1.628282204E1,-6.534403825E0,1.077476485E1,-1.405438275E1,1.887643148E1
1.629285604E1,-6.908801043E0,1.059848768E1,-1.242808730E1,1.773462226E1
1.630289004E1,-6.365670138E0,1.025649456E1,-7.139200051E0,1.402446485E1
1.631292404E1,-5.906922741E0,1.036027445E1,-3.826213270E0,1.252465293E1
1.632295904E1,-6.158845350E0,1.324926442E1,-8.091529047E-1,1.463315113E1
1.633299304E1,-7.439750444E0,1.707635360E1,-1.777940205E-1,1.862748909E1
1.634302704E1,-6.539655794E0,1.017525685E1,-1.540824355E0,1.219332152E1
1.635306104E1,-6.048266315E0,7.809051813E0,-4.971149989E-1,9.889890746E0
1.636309504E1,-5.984128207E0,7.600471106E0,3.149240915E-1,9.678642912E0
1.637313004E1,-5.547560468E0,6.974764068E0,8.923835611E-1,8.956512121E0
1.638316404E1,-5.291284608E0,6.563702468E0,1.139490257E0,8.507544942E0
1.639319804E1,-5.338679799E0,5.970919932E0,9.864955933E-1,8.070102873E0
1.640323204E1,-5.185646471E0,4.513746428E0,1.218537815E-1,6.876022432E0
1.641326704E1,-3.933523419E0,-5.673290223E-1,-2.860168752E0,4.896430740E0
1.642330104E1,-1.881673758E0,-9.060307431E0,-7.564806014E0,1.195224485E1
1.643333504E1,1.223897665E0,-2.040024076E1,-1.407734476E1,2.481611138E1
1.644336904E1,5.369554267E0,-3.134210968E1,-1.160057063E1,3.384868079E1
1.645340304E1,1.017933353E1,-3.947984811E1,-6.815608120E0,4.133678449E1
1.646343804E1,1.481740580E1,-4.531702526E1,-6.356926796E0,4.809988369E1
1.647347204E1,1.777915852E1,-4.369987720E1,-5.279994804E0,4.747268783E1
1.648350604E1,1.564414596E1,-3.242944387E1,-2.862919575E0,3.611930843E1
1.649354004E1,1.210222080E1,-1.819448391E1,-8.484052634E-1,2.186830548E1
1.650357404E1,9.127183206E0,-9.589858178E0,1.177645751E0,1.329126415E1
1.651360904E1,7.406573927E0,-4.391809763E0,2.687912703E0,9.020543499E0
1.652364304E1,6.128804694E0,-9.399288064E-1,3.646982077E0,7.193482565E0
1.653367704E1,5.013133144E0,1.172990052E0,4.334574877E0,6.730226515E0
1.654371104E1,3.786885483E0,3.058314226E0,4.353067281E0,6.530159441E0
1.655374604E1,2.752264819E0,4.609034409E0,4.036300220E0,6.716388858E0
1.656378004E1,1.747467295E0,6.143844903E0,3.495978610E0,7.281643947E0
1.657381404E1,5.369287634E-1,7.505796499E0,3.287280082E0,8.211667547E0
1.658384804E1,-9.353062901E-1,8.454825912E0,3.370056775E0,9.149653639E0
1.659388204E1,-2.548422111E0,9.135742360E0,3.526241752E0,1.011882526E1
1.660391704E1,-3.746218683E0,9.707343943E0,3.834856625E0,1.108931045E1
1.661395104E1,-4.630752430E0,1.031410249E1,4.062668824E0,1.201373615E1
1.662398504E1,-5.266863127E0,1.080794780E1,4.125575509E0,1.271109579E1
1.663401904E1,-5.528246530E0,1.119587665E1,3.786010154E0,1.304772151E1
1.664405304E1,-5.534406572E0,1.148955189E1,3.253888972E0,1.316158243E1
1.665408804E1,-5.394417797E0,1.167699725E1,2.704808525E0,1.314412406E1
1.666412204E1,-5.060258194E0,1.178992803E1,2.144895526E0,1.300804339E1
1.667415604E1,-4.790129110E0,1.175728653E1,1.716817360E0,1.281118985E1
1.668419004E1,-4.652503195E0,1.162807242E1,1.609815652E0,1.262732595E1
1.669422504E1,-4.653705967E0,1.140445385E1,1.523211957E0,1.241123368E1
1.670425904E1,-4.709058634E0,1.112794604E1,1.299027954E0,1.215293750E1
1.671429304E1,-4.584960837E0,1.078949282E1,8.004937631E-1,1.175056643E1
1.672432704E1,-4.241184610E0,1.049032588E1,2.355276372E-1,1.131768780E1
1.673436104E1,-3.893434323E0,1.014707795E1,-1.907195100E0,1.103446487E1
