"Time (s)","Linear Acceleration x (m/s^2)","Linear Acceleration y (m/s^2)","Linear Acceleration z (m/s^2)","Absolute acceleration (m/s^2)"
-2.389666653E-3,6.245041933E-1,-4.566918084E-1,-2.700949363E0,2.809572984E0
7.644333338E-3,2.351542377E-1,-1.038633023E0,-3.031122919E0,3.212749947E0
1.767933334E-2,2.576401440E-1,-1.343592801E0,-3.186158334E0,3.467452233E0
2.771333334E-2,5.369228431E-1,-1.766551730E0,-3.926419344E0,4.338866213E0
3.774733334E-2,7.784140190E-1,-1.967818740E0,-4.958241822E0,5.390955476E0
4.778133334E-2,9.068413134E-1,-2.035370745E0,-5.492167456E0,5.926972127E0
5.781633334E-2,1.091206069E0,-2.224757090E0,-6.135435437E0,6.616936058E0
6.785033333E-2,1.406085503E0,-2.263683466E0,-7.034493960E0,7.522329729E0
7.788433334E-2,1.542803491E0,-2.119546092E0,-7.754684402E0,8.185832177E0
8.791933334E-2,1.616124067E0,-1.970270477E0,-8.170617317E0,8.558785550E0
9.795333334E-2,1.719056697E0,-2.085139029E0,-8.523657580E0,8.941795079E0
1.079873333E-1,1.553850490E0,-2.272920313E0,-8.619926139E0,9.048963738E0
1.180213333E-1,1.708373542E0,-2.489333950E0,-8.309341339E0,8.840841428E0
1.280563333E-1,1.702198005E0,-3.049975220E0,-8.706654380E0,9.381133054E0
1.380903333E-1,8.298707592E-1,-3.810429589E0,-8.821111287E0,9.644690948E0
1.481243333E-1,5.664402455E-2,-4.567902170E0,-8.722721944E0,9.846563710E0
1.581583333E-1,8.778541803E-2,-5.211456081E0,-8.091802697E0,9.625188396E0
1.681933333E-1,3.904288217E-1,-5.737202044E0,-6.993529537E0,9.054135925E0
1.782273333E-1,3.894862506E-1,-6.191581571E0,-5.727788612E0,8.443633357E0
1.882613333E-1,5.746897897E-1,-7.062977502E0,-4.912585008E0,8.622610452E0
1.982953333E-1,2.955010298E-1,-8.324069890E0,-3.590373428E0,9.070184218E0
2.083303333E-1,-2.008568278E-1,-9.857647791E0,-3.732985849E0,1.054271060E1
2.183643333E-1,-5.509509712E-1,-1.085832040E1,-4.381988195E0,1.172213672E1
2.283983333E-1,-1.430465761E0,-1.113014342E1,-3.782357984E0,1.184198280E1
2.384323333E-1,-1.341912019E0,-1.143973127E1,-3.309996514E0,1.198433379E1
2.484673333E-1,-4.842593837E-1,-1.154487356E1,-2.529685585E0,1.182869062E1
2.585013333E-1,1.287252831E-1,-1.146926556E1,-1.719362068E0,1.159813901E1
2.685353333E-1,8.722162950E-1,-1.126468200E1,-1.213794846E0,1.136341145E1
2.785693333E-1,1.546542347E0,-1.108064908E1,-3.281732243E-1,1.119286714E1
2.886043333E-1,2.052660377E0,-1.103239201E1,6.786699486E-1,1.124222758E1
2.986383333E-1,2.495748346E0,-1.096559458E1,2.273168235E0,1.147346148E1
3.086723333E-1,2.773465362E0,-1.093844596E1,4.632283523E0,1.219835074E1
3.187073333E-1,3.350458662E0,-1.098422615E1,7.282793634E0,1.359845140E1
3.287413333E-1,4.033668389E0,-1.088973866E1,1.031885043E1,1.553497869E1
3.387753333E-1,4.582652941E0,-1.057386037E1,1.292086608E1,1.731346330E1
3.488093333E-1,5.108107129E0,-1.010490783E1,1.510841938E1,1.888031400E1
3.588443333E-1,5.884267704E0,-9.517467894E0,1.724878331E1,2.056033383E1
3.688783333E-1,7.267614262E0,-8.426783835E0,1.853240853E1,2.161663870E1
3.789123333E-1,8.353700071E0,-6.608155925E0,1.865222968E1,2.147923885E1
3.889463333E-1,8.917773364E0,-4.290371096E0,1.795621104E1,2.050267009E1
3.989813333E-1,9.713672969E0,-1.970388299E0,1.683296676E1,1.953424282E1
4.090153333E-1,1.054533765E1,1.483105320E-1,1.559798453E1,1.882878816E1
4.190493333E-1,1.104745794E1,2.208349510E0,1.452089349E1,1.837877804E1
4.290833333E-1,1.120222672E1,4.152508954E0,1.382328207E1,1.827064152E1
4.391183333E-1,1.146977192E1,5.698078324E0,1.320777609E1,1.839753010E1
4.491523333E-1,1.155544650E1,6.667322731E0,1.237211190E1,1.819479841E1
4.591863333E-1,1.119000137E1,7.173807966E0,1.124210474E1,1.740874982E1
4.692203333E-1,1.079715735E1,7.285595035E0,1.007040926E1,1.646425354E1
4.792553333E-1,1.053047754E1,7.148481921E0,9.033654068E0,1.560764738E1
4.892893333E-1,1.033768081E1,6.923031996E0,8.147551221E0,1.487207475E1
4.993233333E-1,9.635495696E0,6.666718129E0,7.183638890E0,1.374381954E1
5.093583333E-1,9.049038092E0,6.296446706E0,6.017864302E0,1.255965853E1
5.193923333E-1,8.880754641E0,5.859193089E0,5.178779501E0,1.183290766E1
5.294263333E-1,9.112047104E0,5.622600126E0,4.951666628E0,1.179669602E1
5.394603333E-1,9.526229947E0,5.529107825E0,4.994700381E0,1.209409452E1
5.494953333E-1,9.841900070E0,5.359004136E0,4.687530355E0,1.214721627E1
5.595293333E-1,1.008584357E1,5.137408111E0,3.451883295E0,1.183354135E1
5.695633333E-1,1.010352438E1,4.757985796E0,1.370244702E0,1.125154231E1
5.795973333E-1,9.869305969E0,4.288567230E0,-1.114461177E0,1.081836554E1
5.896323333E-1,9.332473100E0,4.180382046E0,-3.468051431E0,1.079805672E1
5.996663333E-1,8.792311996E0,4.645885316E0,-5.097502034E0,1.117468244E1
6.097003333E-1,8.628323910E0,5.514140707E0,-5.486223176E0,1.161690002E1
6.197343333E-1,8.677836378E0,6.027119275E0,-5.741769304E0,1.202492934E1
6.297693333E-1,7.875734630E0,6.120328571E0,-6.261839960E0,1.177693752E1
6.398033333E-1,6.622553524E0,6.593441407E0,-4.872391248E0,1.053906453E1
6.498373333E-1,6.797037948E0,6.208567148E0,-3.625459646E0,9.893936958E0
6.598713333E-1,5.511453327E0,5.469707716E0,-3.073353265E0,8.351007158E0
6.699063333E-1,4.828168171E0,4.630220625E0,-2.539927568E0,7.155514166E0
6.799403333E-1,4.090947129E0,3.951958228E0,-2.584781560E0,6.247793047E0
6.899743333E-1,2.316216314E0,2.686485690E0,-5.744309335E0,6.751233451E0
7.000083333E-1,4.933189865E-1,1.655904576E0,-8.333893213E0,8.511119766E0
7.100433333E-1,3.076057895E-1,1.303454881E0,-7.275086419E0,7.397330488E0
7.200769583E-1,8.736286899E-1,7.348090661E-1,-5.765630037E0,5.877555715E0
7.301109583E-1,1.032160082E0,1.186698264E-1,-5.137374197E0,5.241378693E0
7.401449583E-1,1.338490520E0,-2.618470877E-1,-3.562138978E0,3.814309226E0
7.501799583E-1,1.499406772E0,-5.294109982E-1,-1.820980244E0,2.417532983E0
7.602139583E-1,1.618878983E0,-5.507480729E-1,-7.854699272E-1,1.881769276E0
7.702479583E-1,1.584877862E0,-4.728865492E-1,3.090423042E-1,1.682547673E0
7.802829583E-1,1.250527347E0,-2.231151313E-1,8.300689799E-1,1.517436496E0
7.903169583E-1,1.175628169E0,1.521351957E-1,9.968128592E-1,1.548832653E0
8.003509583E-1,1.321113180E0,5.934818637E-1,1.302971317E0,1.948151691E0
8.103849583E-1,1.468262455E0,9.191706061E-1,1.850577680E0,2.534818927E0
8.204199583E-1,1.586272423E0,1.147471633E0,2.404513071E0,3.100747403E0
8.304539583E-1,1.640576831E0,1.026562908E0,2.564825597E0,3.213044364E0
8.404879583E-1,1.678492662E0,3.037540823E-1,2.727003386E0,3.216543428E0
8.505219583E-1,8.406727593E-1,-5.705525923E-1,3.207943890E0,3.364991077E0
8.605569583E-1,-7.857839227E-2,-1.571895289E0,3.132273318E0,3.505447975E0
8.705909583E-1,-9.382551871E-1,-2.424902312E0,2.860022864E0,3.865256111E0
8.806249583E-1,-8.474368183E-1,-2.421990398E0,1.819235435E0,3.145441816E0
8.906589583E-1,-1.517305684E-1,-2.683498347E0,4.814375174E-1,2.730561779E0
9.006939583E-1,4.339106177E-1,-1.844982480E0,5.075967908E-1,1.962114491E0
9.107279583E-1,1.534047432E0,-1.702644294E0,1.143415419E0,2.561190726E0
9.207619583E-1,2.374445664E0,-2.127165014E0,2.054092945E0,3.792376700E0
9.307959583E-1,3.158244311E0,-2.022305142E0,2.632056883E0,4.581697137E0
9.408309583E-1,3.248501347E0,-1.985215083E0,2.693911654E0,4.663796729E0
9.508649583E-1,2.626894084E0,-2.085072078E0,2.401561396E0,4.124996393E0
9.608989583E-1,2.302595078E0,-2.040253755E0,1.748905710E0,3.538820518E0
9.709329583E-1,1.948123271E0,-1.831392966E0,1.752878308E0,3.197149799E0
9.809679583E-1,1.507004060E0,-1.438879904E0,2.075716533E0,2.941094310E0
9.910019583E-1,1.088826837E0,-8.221506804E-1,2.046061209E0,2.459236080E0
1.001035958E0,3.471724360E-1,3.664151841E-1,1.364190495E-1,5.228756492E-1
1.011069958E0,2.939026934E-1,2.820825469E-1,-1.382181793E0,1.440963520E0
1.021104958E0,1.582168847E-2,-4.073252285E-1,-1.206372390E0,1.273380741E0
1.031138958E0,-1.034695946E0,-8.462265909E-1,-1.062751325E0,1.707669618E0
1.041172958E0,-1.975013446E0,-1.261457255E0,-1.554326745E0,2.812096042E0
1.051206958E0,-2.441520976E0,-1.241610636E0,-2.300797498E0,3.577190346E0
1.061241958E0,-2.099444534E0,-8.071315223E-1,-2.690385198E0,3.506750798E0
1.071275958E0,-1.906209698E0,2.983459926E-1,-3.304589009E0,3.826611329E0
1.081309958E0,-1.412252854E0,1.667099655E0,-3.386820157E0,4.030413150E0
1.091343958E0,-1.387406426E0,2.395070402E0,-2.876188661E0,3.991706407E0
1.101378958E0,-1.500344958E0,2.763318104E0,-2.271147437E0,3.878797831E0
1.111412958E0,-1.797156349E0,2.646688371E0,-1.571792963E0,3.564444332E0
1.121446958E0,-2.009843848E0,2.609939205E0,-2.093323669E0,3.902980775E0
1.131481958E0,-2.550267785E0,2.543616577E0,-2.330568012E0,4.290151317E0
1.141515958E0,-2.731418326E0,2.332056128E0,-2.146336280E0,4.184004217E0
1.151549958E0,-2.722906242E0,2.300149627E0,-1.581749017E0,3.899594423E0
1.161583958E0,-2.645368654E0,2.346661888E0,-8.031893295E-1,3.626280523E0
1.171618958E0,-2.174068455E0,2.066224163E0,-3.726781368E-1,3.022374055E0
1.181652958E0,-1.169288764E0,2.153199157E0,-2.558928680E-1,2.463530796E0
1.191686958E0,-9.108883175E-1,2.843966410E0,8.481918401E-1,3.104398793E0
1.201720958E0,-4.627827068E-1,3.361618658E0,9.254516852E-1,3.517258685E0
1.211755958E0,6.515761440E-1,3.070983973E0,1.400630343E-1,3.142469043E0
1.221789958E0,4.303898630E-1,2.053085470E0,-2.953954875E-1,2.118408335E0
1.231823958E0,-2.094908264E-1,1.096340071E0,-5.419982994E-1,1.240810265E0
1.241857958E0,-6.946176445E-1,5.048445064E-1,-5.826270926E-1,1.037697440E0
1.251892958E0,-8.195102240E-1,3.171722728E-1,2.172503740E-1,9.052032826E-1
1.261926958E0,-6.040436894E-2,5.325527072E-2,6.112006813E-1,6.164828339E-1
1.271960958E0,5.780387825E-1,-7.074487746E-2,-8.012813830E-1,9.905480940E-1
1.281994958E0,-1.650550573E-1,1.296801335E-1,5.962405801E-1,6.321099100E-1
1.292029958E0,3.843661362E-1,7.655402774E-1,7.561455560E-1,1.142604632E0
1.302063958E0,1.038178109E0,8.199632370E-1,3.944215930E-1,1.380478862E0
1.312097958E0,1.601123035E0,3.872879899E-1,-2.459455848E-1,1.665555821E0
1.322131958E0,2.474528216E0,-8.102954507E-2,-3.789253020E-1,2.504683625E0
1.332166958E0,2.897347688E0,-2.588357717E-1,-5.194017345E-1,2.954893864E0
1.342200958E0,3.051531456E0,-1.888340753E-1,-8.138973355E-2,3.058451704E0
1.352234958E0,2.362080557E0,-8.324213147E-2,1.545524347E-1,2.368594576E0
1.362268958E0,1.345326793E0,-1.042622870E-1,2.495158947E-1,1.372236490E0
1.372303958E0,9.454031159E-1,2.046642423E-2,-1.608972484E-1,9.592152264E-1
1.382337958E0,5.400460602E-1,-8.954718411E-2,-4.607936302E-1,7.155412042E-1
1.392371958E0,4.954266885E-1,5.921808583E-1,-5.115728974E-3,7.721087639E-1
1.402405958E0,-1.159298211E-2,1.212114941E0,2.244485888E-1,1.232774998E0
1.412440958E0,1.212153533E0,1.630414224E0,-2.677130145E-1,2.049203988E0
1.422474958E0,5.158936974E-1,1.597999599E0,-6.705320862E-1,1.808137800E0
1.432508958E0,-2.462898396E-1,1.835721075E0,-1.262714991E-1,1.856468433E0
1.442542958E0,2.022429103E-1,2.826435873E0,8.223869079E-1,2.950586749E0
1.452577958E0,3.185193251E-1,3.255791071E0,1.109548054E0,3.454377939E0
1.462611958E0,4.260909900E-1,3.474018515E0,1.377819039E0,3.761481553E0
1.472645958E0,5.209741969E-1,4.092018923E0,1.601677205E0,4.425087892E0
1.482679958E0,2.975642198E-1,4.470794536E0,1.824470447E0,4.837896306E0
1.492714958E0,7.596161708E-2,4.855415027E0,2.828044442E0,5.619489355E0
1.502748958E0,1.826851434E-1,5.023144746E0,3.390183768E0,6.062895594E0
1.512782958E0,1.370068409E-1,4.849205284E0,2.369600223E0,5.398941375E0
1.522816958E0,8.428322822E-3,4.255156240E0,9.895245972E-1,4.368705139E0
1.532851958E0,1.645729543E-1,3.751708049E0,9.084433043E-1,3.863633882E0
1.542885958E0,6.399265900E-1,3.296195916E0,9.571598201E-1,3.491499460E0
1.552919958E0,1.012820343E0,3.243883801E0,1.291466774E0,3.635446821E0
1.562953958E0,1.134071276E0,3.572448789E0,2.045747799E0,4.270081037E0
1.572988958E0,1.249877137E0,3.985715958E0,2.717273034E0,4.983141308E0
1.583022958E0,5.851193221E-1,2.670154417E0,3.567098002E0,4.494026856E0
1.593056958E0,6.416771002E-2,6.036109954E-1,3.760841984E0,3.809513901E0
1.603090958E0,8.071288180E-1,1.573047191E-1,4.457572812E0,4.532786900E0
1.613125958E0,2.671700128E0,3.254298277E0,4.569998397E0,6.213962037E0
1.623159958E0,2.274017397E0,4.692207543E0,3.531536406E0,6.297596060E0
1.633193958E0,1.702915312E0,4.093452660E0,3.944431692E0,5.934207328E0
1.643227958E0,1.026475199E0,-1.868605231E0,5.152979246E0,5.576605774E0
1.653262958E0,1.109977751E0,-1.207996162E1,6.215624737E0,1.363053610E1
1.663296958E0,1.867816880E0,-2.182463887E1,7.166028246E0,2.304681241E1
1.673330958E0,1.830790410E0,-2.607894668E1,7.767902618E0,2.727276232E1
1.683364958E0,9.127176920E-1,-2.524264983E1,5.939167796E0,2.594798909E1
1.693399958E0,-1.409272820E0,-1.863839750E1,3.598270093E0,1.903479601E1
1.703433958E0,-1.866180683E0,-1.034156687E1,2.219509506E0,1.074043100E1
1.713467958E0,1.800993146E0,-3.072299597E0,-8.676364049E0,9.378800255E0
1.723502958E0,3.798181719E0,1.924529756E0,-1.319766976E1,1.386753353E1
1.733536958E0,6.795216686E-1,3.539051832E0,-1.366518505E1,1.413237136E1
1.743570958E0,-2.167172833E0,4.600751243E0,-1.691917109E1,1.766697202E1
1.753604958E0,-2.605823935E0,2.378074300E0,-9.066014314E0,9.728215216E0
1.763639958E0,-4.079683345E0,-2.995528579E-2,-5.227306713E0,6.630946311E0
1.773673958E0,-5.575450518E0,-1.837406827E0,-2.790371416E0,6.499837303E0
1.783707958E0,-5.491433045E0,-2.697076752E0,-1.390868709E0,6.274119513E0
1.793741958E0,-4.214649361E0,-2.660730459E0,-8.780407065E-1,5.060999041E0
1.803776958E0,-2.337172881E0,-2.582904603E0,-7.241870141E-1,3.557839245E0
1.813810958E0,-2.135788707E-1,-2.226905649E0,-9.875692883E-1,2.445407492E0
1.823844958E0,1.132143742E0,-1.498279429E0,-1.328227780E0,2.300169501E0
1.833878958E0,1.837903694E0,-4.565997148E-1,-1.714099574E0,2.554312166E0
1.843913958E0,2.371929754E0,4.953679240E-1,-2.177062229E0,3.257459146E0
1.853947958E0,2.812236494E0,1.229047893E0,-2.541215125E0,3.984596233E0
1.863981958E0,2.876961663E0,1.809797444E0,-2.845512999E0,4.432744007E0
1.874015958E0,2.723471083E0,2.132514632E0,-3.135881050E0,4.668903871E0
1.884050958E0,2.376709706E0,2.237076296E0,-3.249248037E0,4.605526266E0
1.894084958E0,1.741373181E0,1.960310622E0,-3.046809829E0,4.019732383E0
1.904118958E0,1.084116467E0,1.460442681E0,-2.730242159E0,3.280613294E0
1.914152958E0,4.441237300E-1,8.822466087E-1,-2.439743422E0,2.632100479E0
1.924187958E0,-3.902870999E-1,2.083123201E-1,-2.272683501E0,2.315341948E0
1.934221958E0,-9.467633244E-1,-2.234168476E-1,-2.052403100E0,2.271262724E0
1.944255958E0,-1.130277018E0,-3.829049170E-1,-1.900145112E0,2.243812328E0
1.954289958E0,-1.150639801E0,-3.097831464E-1,-2.015753921E0,2.341623672E0
1.964324958E0,-9.968936238E-1,-8.112017691E-2,-2.184769444E0,2.402830602E0
1.974358958E0,-6.717244796E-1,2.076375514E-1,-2.347078795E0,2.450123670E0
1.984392958E0,-5.078292176E-1,4.284605742E-1,-2.425981708E0,2.515324278E0
1.994426958E0,-6.258111191E-1,4.271525520E-1,-2.455038276E0,2.569301811E0
2.004461958E0,-8.875205780E-1,3.106701690E-1,-2.458965266E0,2.632625859E0
2.014495958E0,-9.660832559E-1,1.876254559E-1,-2.358649850E0,2.555728719E0
2.024529958E0,-7.889555986E-1,1.623970592E-1,-2.230906899E0,2.371870429E0
2.034563958E0,-4.177785882E-1,3.007977301E-1,-2.034788947E0,2.098900732E0
2.044598958E0,1.207211850E-1,4.582679254E-1,-1.931236512E0,1.988531509E0
2.054632958E0,8.229355229E-1,6.925056303E-1,-1.775326354E0,2.075709658E0
2.064666958E0,1.678738245E0,9.777550292E-1,-1.604421011E0,2.519590001E0
2.074700958E0,2.546417101E0,1.129740536E0,-1.342728875E0,3.092486792E0
2.084735958E0,3.360028507E0,1.186678383E0,-9.033220205E-1,3.676137624E0
2.094769958E0,4.122530279E0,1.124055288E0,-3.314342165E-1,4.285861038E0
2.104803958E0,4.725022117E0,8.593641150E-1,3.405073410E-1,4.814590942E0
2.114837958E0,5.146557249E0,4.637917900E-1,9.705503824E-1,5.257767814E0
2.124872958E0,5.511559746E0,-7.761126280E-2,1.616061940E0,5.744124872E0
2.134906958E0,5.679699941E0,-6.245896357E-1,2.351931691E0,6.179052218E0
2.144940958E0,5.570838234E0,-1.035657082E0,3.183332082E0,6.499263602E0
2.154974958E0,5.229025794E0,-1.205207040E0,3.866722780E0,6.614134851E0
2.165009958E0,4.808565088E0,-1.022202054E0,4.212676511E0,6.474089792E0
2.175043958E0,4.625006663E0,-8.377259088E-1,4.117629143E0,6.248787170E0
2.185077958E0,4.575410580E0,-1.052298258E0,3.840865808E0,6.065802812E0
2.195111958E0,4.459349197E0,-1.901023949E0,3.887247092E0,6.213724911E0
2.205146958E0,4.255353583E0,-2.936238981E0,4.185711198E0,6.652045679E0
2.215180958E0,3.926299184E0,-3.728122135E0,4.508100357E0,7.045401959E0
2.225214958E0,2.887467648E0,-4.115069232E0,4.382897437E0,6.669411829E0
2.235248958E0,1.455347710E0,-3.964612772E0,3.982557877E0,5.804908150E0
2.245283958E0,2.602021198E-1,-3.159689743E0,3.319865153E0,4.590517296E0
2.255317958E0,-5.259527356E-1,-1.979144504E0,2.160789428E0,2.977020356E0
2.265351958E0,-8.818804269E-1,-9.152564800E-1,1.134993967E0,1.704000827E0
2.275385958E0,-1.083344927E0,-2.466460812E-1,4.276352397E-1,1.190521910E0
2.285420958E0,-1.339628096E0,-2.724159300E-2,-2.220602936E-1,1.358181252E0
2.295454958E0,-1.498194352E0,-5.634844780E-2,-8.048125166E-1,1.701612368E0
2.305488958E0,-1.707318412E0,-7.778024733E-2,-1.307507586E0,2.151874070E0
2.315522958E0,-1.921815040E0,-1.346508515E-1,-1.649790142E0,2.536397329E0
2.325557958E0,-2.506667144E0,-4.875806022E-1,-1.775100944E0,3.109999739E0
2.335591958E0,-3.222007028E0,-9.615190655E-1,-1.808547894E0,3.817943647E0
2.345625958E0,-4.152458083E0,-1.302504709E0,-2.592933748E0,5.065839720E0
2.355659958E0,-8.380232981E0,-3.640208078E0,-1.508058429E1,1.763245423E1
2.365694958E0,-1.110259251E1,-6.120220397E0,-2.364724639E1,2.683126758E1
2.375728958E0,-7.978874252E0,-3.980213143E0,-1.292813767E1,1.570481693E1
2.385762958E0,-4.024742614E0,-1.589729882E0,-5.653786835E0,7.119768239E0
2.395796958E0,-1.011317535E0,1.172372586E0,-6.838880038E-1,1.692608472E0
2.405831958E0,7.089398146E-2,2.466862516E0,4.762562996E-1,2.513415344E0
2.415865958E0,1.522611301E-1,2.856292341E0,4.202116147E-1,2.891049496E0
2.425899958E0,-1.247298807E-2,3.030414237E0,6.624652675E-1,3.102003587E0
2.435933958E0,-1.832021834E-1,2.884721503E0,1.207870447E0,3.132751539E0
2.445968958E0,-2.574262273E-1,2.509605662E0,2.043977262E0,3.246880332E0
2.456002958E0,-3.264641563E-1,2.115425559E0,3.407058248E0,4.023636421E0
2.466036958E0,-7.195346770E-1,1.796863988E0,4.621534587E0,5.010492219E0
2.476070958E0,-1.051512392E0,1.570728770E0,5.382454394E0,5.704707046E0
2.486105958E0,-1.189553459E0,1.386483589E0,5.510012573E0,5.804964490E0
2.496139958E0,-1.144694498E0,1.210870069E0,5.419268464E0,5.669656295E0
2.506173958E0,-8.466455439E-1,1.143844605E0,5.119687539E0,5.313792399E0
2.516207958E0,-3.487065992E-1,1.167895957E0,4.200391510E0,4.373655919E0
2.526242958E0,-5.865776908E-2,1.167634587E0,3.202939258E0,3.409637980E0
2.536276958E0,-1.225736834E-1,1.013876204E0,1.927514759E0,2.181348760E0
2.546310958E0,-3.485213155E-1,8.222465748E-1,1.074205728E0,1.396951855E0
2.556344958E0,-7.110162339E-1,6.446414924E-1,6.716415954E-1,1.171413322E0
2.566378958E0,-1.101856042E0,4.142459929E-1,4.257100439E-1,1.251764962E0
2.576413958E0,-1.188957920E0,1.364307439E-1,4.544432616E-1,1.280137868E0
2.586447958E0,-9.465925857E-1,-9.238308370E-2,8.880938244E-1,1.301262002E0
2.596481958E0,-1.162577915E0,-1.114467609E-1,1.243606875E0,1.706038056E0
2.606515958E0,-1.149671063E0,-5.882298946E-2,1.547888668E0,1.929031629E0
2.616550958E0,-5.742127300E-1,-1.579239392E-1,1.334576394E0,1.461422041E0
2.626584958E0,1.263474837E0,-6.236113966E-1,-1.755376824E0,2.250912621E0
2.636618958E0,3.809934622E0,-1.794542059E0,-7.224646583E0,8.362505681E0
2.646652958E0,3.414429832E0,-1.848893098E0,-6.393222803E0,7.479975573E0
2.656687958E0,1.454049920E0,-5.823645526E-1,-2.420441763E0,2.883044913E0
2.666721958E0,7.934504264E-1,1.044603322E0,7.390383571E-1,1.505635206E0
2.676755958E0,1.400694809E0,2.143671119E0,2.509371189E0,3.585277615E0
2.686789958E0,1.544960675E0,2.575187448E0,2.993421242E0,4.240172711E0
2.696824958E0,1.329113779E0,2.787599836E0,3.195395181E0,4.443850430E0
2.706858958E0,1.217682148E0,2.796830251E0,3.362539009E0,4.540008574E0
2.716892958E0,1.096091345E0,2.551462371E0,3.471888374E0,4.445827859E0
2.726927542E0,8.741520888E-1,2.107132453E0,3.602330400E0,4.263910571E0
2.736962542E0,5.662621247E-1,1.539256716E0,3.762560481E0,4.104488446E0
2.746996542E0,2.279797406E-1,8.784172672E-1,3.983496940E0,4.085564774E0
2.757030542E0,-3.464089358E-1,2.533773959E-2,4.105038334E0,4.119706406E0
2.767064542E0,-1.114574028E0,-8.770846868E-1,3.804509575E0,4.060276582E0
2.777099542E0,-1.608373729E0,-1.562097110E0,3.121800955E0,3.843521125E0
2.787133542E0,-1.873159773E0,-1.950786678E0,2.177600027E0,3.472209394E0
2.797167542E0,-1.772867307E0,-2.057551573E0,9.659446768E-1,2.882642205E0
2.807201542E0,-1.077966292E0,-1.680800266E0,5.028371572E-1,2.059112932E0
2.817236542E0,-3.123873501E-1,-9.784058243E-1,1.848231778E0,2.114432434E0
2.827270542E0,2.680204684E-2,-4.291482067E-1,3.789505328E0,3.813821858E0
2.837304542E0,2.710239273E-2,-2.023528379E-1,5.067180712E0,5.071291905E0
2.847338542E0,-7.796311900E-2,-2.577230465E-1,5.519025471E0,5.525589703E0
2.857373542E0,-2.724228371E-1,-5.080633986E-1,5.570159957E0,5.599912907E0
2.867407542E0,-6.445879903E-1,-8.271313387E-1,5.505077523E0,5.604062675E0
2.877441542E0,-1.199795369E0,-9.944441521E-1,5.304763024E0,5.528918415E0
2.887475542E0,-1.771105834E0,-9.358690846E-1,4.857704211E0,5.254517773E0
2.897510542E0,-2.115829163E0,-7.194110084E-1,4.297987679E0,4.844273252E0
2.907544542E0,-2.255319609E0,-4.201598668E-1,3.703578447E0,4.356546128E0
2.917578542E0,-2.304629763E0,-7.294810832E-2,3.053097925E0,3.825970036E0
2.927612542E0,-2.283456703E0,2.503304118E-1,2.419979541E0,3.336636152E0
2.937647542E0,-2.150728562E0,5.866184020E-1,1.867163892E0,2.907929762E0
2.947681542E0,-1.876665618E0,9.221105862E-1,1.300200906E0,2.462251849E0
2.957715542E0,-1.540632712E0,1.174364147E0,7.580210504E-1,2.080210619E0
2.967749542E0,-8.661661079E-1,1.262995073E0,3.042201054E-1,1.561393657E0
2.977784542E0,9.593766091E-2,1.156748241E0,1.190633440E-1,1.166810442E0
2.987818542E0,2.628723385E0,1.005474924E0,-1.125568840E0,3.031183214E0
2.997852542E0,5.872084445E0,3.049463296E-1,-4.845472421E0,7.619250027E0
3.007886542E0,5.310258822E0,-7.964445662E-1,-4.796658403E0,7.200076704E0
3.017921542E0,3.146881709E0,-2.135207859E0,-3.289385079E0,5.028124033E0
3.027955542E0,3.673593998E-1,-3.823365676E0,-2.332928533E0,4.493955225E0
3.037989542E0,-2.036532733E0,-5.426212617E0,-1.772665286E0,6.060824297E0
3.048023542E0,-3.459983151E0,-6.457518201E0,-1.929150226E0,7.575793379E0
3.058058542E0,-3.653909274E0,-6.576131895E0,-2.366363497E0,7.886459274E0
3.068092542E0,-2.708562145E0,-5.471550758E0,-3.221285190E0,6.902959862E0
3.078126542E0,-1.140941536E0,-3.595613703E0,-4.116776619E0,5.583729508E0
3.088160542E0,4.179237819E-1,-2.039688914E0,-4.920499799E0,5.342874641E0
3.098195542E0,1.551009035E0,-1.004644035E0,-5.445680337E0,5.750684568E0
3.108229542E0,2.233070369E0,-4.081900316E-1,-5.522804527E0,5.971146641E0
3.118263542E0,3.045123785E0,7.951628566E-2,-5.952968395E0,6.687072185E0
3.128297542E0,3.208712214E0,1.235072279E-1,-6.179414100E0,6.963924664E0
3.138332542E0,2.925990859E0,-1.068350619E-1,-5.897762493E0,6.584560628E0
3.148366542E0,2.324974566E0,-4.475739527E-1,-5.464262788E0,5.955165572E0
3.158400542E0,1.540989539E0,-7.758003867E-1,-4.959045814E0,5.250585718E0
3.168434542E0,6.529288973E-1,-1.089104142E0,-4.334414663E0,4.516593235E0
3.178469542E0,8.745488590E-3,-1.185538761E0,-3.762571591E0,3.944936452E0
3.188503542E0,-3.343112659E-1,-1.150167784E0,-3.206324211E0,3.422742307E0
3.198537542E0,-3.503552947E-1,-9.879736233E-1,-2.864749169E0,3.050512828E0
3.208571542E0,-2.786059752E-1,-7.644912869E-1,-2.684354964E0,2.804965203E0
3.218605542E0,-1.248812870E-1,-4.461653584E-1,-2.620413907E0,2.661057667E0
3.228640542E0,-1.197178484E-1,-1.729062599E-1,-2.553556843E0,2.562202469E0
3.238674542E0,-2.067871470E-1,9.955293953E-2,-2.289758540E0,2.301231384E0
3.248708542E0,-1.895770006E-1,4.455250883E-1,-2.000399718E0,2.058162062E0
3.258742542E0,-1.437219204E-1,8.554646069E-1,-1.684776372E0,1.894979448E0
3.268777542E0,-1.134276696E-1,1.161704341E0,-1.454290241E0,1.864774227E0
3.278811542E0,-2.060970842E-1,1.372909863E0,-1.309896174E0,1.908713045E0
3.288845542E0,-3.584615090E-1,1.486037114E0,-1.179653538E0,1.930902231E0
3.298879542E0,-6.232849757E-1,1.451020478E0,-1.012524912E0,1.875940107E0
3.308914542E0,-8.918763882E-1,1.360931842E0,-9.033310837E-1,1.861071201E0
3.318948542E0,-1.046815762E0,1.271825538E0,-8.512084186E-1,1.854162671E0
3.328982542E0,-1.042320058E0,1.240487385E0,-8.585004812E-1,1.833647494E0
3.339016542E0,-8.518413797E-1,1.262438418E0,-8.675794530E-1,1.752734607E0
3.349051542E0,-5.948168562E-1,1.306552151E0,-7.763511944E-1,1.632056002E0
3.359085542E0,-1.938414846E-1,1.314666917E0,-6.119859624E-1,1.463027834E0
3.369119542E0,3.371367136E-1,1.226067567E0,-2.902189475E-1,1.304273698E0
3.379153542E0,8.710999154E-1,9.750764197E-1,2.713265938E-1,1.335367817E0
3.389188542E0,1.432235274E0,5.496031880E-1,9.679574347E-1,1.813919276E0
3.399222542E0,2.076577682E0,-3.124693573E-2,1.780784145E0,2.735752805E0
3.409256542E0,2.792055707E0,-7.613010460E-1,2.680808043E0,3.944855652E0
3.419290542E0,3.425467329E0,-1.467225451E0,3.589450738E0,5.174044216E0
3.429325542E0,4.182760401E0,-1.911978707E0,4.309572768E0,6.302663293E0
3.439359542E0,5.130606630E0,-1.869453662E0,4.785942503E0,7.261076162E0
3.449393542E0,6.256997296E0,-1.171348738E0,4.838979965E0,7.996111563E0
3.459427542E0,7.338851475E0,1.604440892E-1,4.274402350E0,8.494409852E0
3.469462542E0,8.161868128E0,1.420891530E0,3.236804869E0,8.894488734E0
3.479496542E0,7.998041425E0,1.514644616E0,2.094522348E0,8.405345847E0
3.489530542E0,6.995295396E0,8.268886793E-1,1.585377215E0,7.220202454E0
3.499564542E0,5.920430394E0,-3.812998563E-1,1.763269103E0,6.189184402E0
3.509599542E0,4.849878883E0,-2.209566901E0,2.508618945E0,5.890388788E0
3.519633542E0,3.820371317E0,-4.180743989E0,3.457810910E0,6.635534160E0
3.529667542E0,2.877534690E0,-5.414901763E0,4.151650290E0,7.405239168E0
3.539701542E0,2.161648676E0,-5.300941284E0,3.904064269E0,6.929243921E0
3.549736542E0,1.336405988E0,-4.379491434E0,3.005051939E0,5.476884455E0
3.559770542E0,5.738587542E-1,-3.258522890E0,1.885220094E0,3.808062513E0
3.569804542E0,-2.086741897E-1,-2.176043059E0,6.238908935E-1,2.273312156E0
3.579838542E0,-7.973564395E-1,-1.342752848E0,-3.145924813E-1,1.593025716E0
3.589873542E0,-1.114951758E0,-8.054112715E-1,-8.705077386E-1,1.627755652E0
3.599907542E0,-1.471047484E0,-5.623816931E-1,-1.379636500E0,2.093716968E0
3.609941542E0,-1.865171892E0,-6.609552240E-1,-1.874310652E0,2.725576712E0
3.619975542E0,-2.395412903E0,-9.503198934E-1,-2.384723169E0,3.511127378E0
3.630010542E0,-6.009458930E0,-2.608649894E0,-1.026693885E1,1.217902641E1
3.640044542E0,-1.450824479E1,-7.713036439E0,-3.039940287E1,3.455580693E1
3.650078542E0,-1.216590400E1,-6.407911593E0,-2.149932084E1,2.552041041E1
3.660112542E0,-5.200717669E0,-3.092135106E0,-1.029496573E1,1.194131832E1
3.670146542E0,-1.904657409E-2,-1.040310881E0,-4.385494770E0,4.507235725E0
3.680181542E0,1.986818390E0,4.417378467E-1,-2.118673688E0,2.937917261E0
3.690215542E0,2.084379914E0,1.761661996E0,-1.966923823E0,3.364057363E0
3.700249542E0,1.357682252E0,2.835896668E0,-1.385518214E0,3.435880052E0
3.710283542E0,6.072507410E-1,3.540920017E0,-5.139287406E-1,3.629185967E0
3.720318542E0,-4.419667652E-1,3.628043531E0,8.460843574E-1,3.751518789E0
3.730352792E0,-1.551931872E0,3.133049828E0,2.643198168E0,4.383034373E0
3.740386792E0,-2.612599103E0,2.498081385E0,4.291334133E0,5.610849608E0
3.750420792E0,-3.087743555E0,2.204704941E0,6.517994784E0,7.541826048E0
3.760455792E0,-3.405808990E0,2.101840138E0,7.368237827E0,8.384998242E0
3.770489792E0,-3.540841957E0,2.007153836E0,7.142730600E0,8.220999252E0
3.780523792E0,-3.223458600E0,1.850115166E0,6.413153622E0,7.412297272E0
3.790557792E0,-2.639133768E0,1.638575183E0,5.281867082E0,6.127648452E0
3.800592792E0,-1.894145577E0,1.208152868E0,4.158537433E0,4.726611302E0
3.810626792E0,-1.394801107E0,6.505799246E-1,3.341837527E0,3.679212202E0
3.820660792E0,-9.800028451E-1,5.172154605E-2,2.769879264E0,2.938590110E0
3.830694792E0,-6.504421496E-1,-4.869871098E-1,2.229319965E0,2.372782953E0
3.840729792E0,-4.465079322E-1,-8.844896007E-1,1.685952394E0,1.955537435E0
3.850763792E0,-2.858931774E-1,-1.067153109E0,1.109900934E0,1.566023866E0
3.860797792E0,-3.110678162E-1,-9.767650956E-1,4.389439009E-1,1.115125547E0
3.870831792E0,-6.108687057E-1,-6.682262367E-1,-1.519382907E-1,9.180262105E-1
3.880866792E0,-9.520763969E-1,-3.400062346E-1,-3.180613419E-1,1.059819193E0
3.890900792E0,-1.252533819E0,-7.417777777E-2,-1.708302060E-1,1.266304177E0
3.900934792E0,-1.448865341E0,7.828193843E-2,1.943868837E-1,1.463941630E0
3.910968792E0,-1.443755166E0,1.292790145E-1,7.227181935E-1,1.619710972E0
3.921002792E0,-1.129528136E0,2.092420274E-1,1.024581579E0,1.539280172E0
3.931037792E0,-6.054242901E-1,2.425618011E-1,1.017246539E0,1.208373005E0
3.941071792E0,4.301791074E-1,3.783049124E-1,4.658462092E-1,7.383639765E-1
3.951105792E0,2.642647360E0,4.824520093E-1,-1.919853445E0,3.301845281E0
3.961139792E0,5.005155203E0,4.031836456E-1,-4.758664950E0,6.918021954E0
3.971174792E0,5.309838992E0,2.513735551E-1,-4.562320711E0,7.005165884E0
3.981208792E0,3.926314094E0,5.129429001E-1,-1.798018228E0,4.348784006E0
3.991242792E0,2.983195924E0,1.087031888E0,5.272258937E-1,3.218549889E0
4.001276792E0,2.741271469E0,1.687131631E0,1.721855321E0,3.650447665E0
4.011311792E0,2.615097034E0,2.193222179E0,2.222315000E0,4.072792652E0
4.021345792E0,2.246348957E0,2.475705260E0,2.505813158E0,4.177834338E0
4.031379792E0,1.775771473E0,2.450958674E0,2.890764601E0,4.185341411E0
4.041413792E0,1.314398822E0,2.048499498E0,3.486686507E0,4.252173240E0
4.051448792E0,8.427920826E-1,1.357048121E0,4.092159841E0,4.392909089E0
4.061482792E0,4.772882235E-1,5.815745938E-1,4.295358186E0,4.360749363E0
4.071516792E0,1.376374265E-1,-2.049092406E-1,4.060196329E0,4.067692969E0
4.081550792E0,-8.746005703E-2,-8.765537596E-1,3.571051304E0,3.678097766E0
4.091585792E0,-2.922334595E-1,-1.295251822E0,2.978078733E0,3.260679472E0
4.101619792E0,-5.374701425E-1,-1.444600820E0,2.431920725E0,2.879233247E0
4.111653792E0,-7.287319817E-1,-1.517726099E0,1.883824949E0,2.526527112E0
4.121687792E0,-8.861744028E-1,-1.778896079E0,1.615572236E0,2.561220409E0
4.131722792E0,-9.242595841E-1,-2.171599760E0,2.075994276E0,3.143223430E0
4.141756792E0,-8.083120020E-1,-2.534935800E0,3.045924269E0,4.044369228E0
4.151790792E0,-4.789781785E-1,-2.793323091E0,3.936614257E0,4.850670654E0
4.161824792E0,-1.928050291E-1,-2.991295779E0,4.504442339E0,5.410639981E0
4.171859792E0,-1.439308944E-1,-3.018629758E0,4.613382106E0,5.515082608E0
4.181893792E0,-2.283203226E-1,-2.535031110E0,4.197466441E0,4.908893706E0
4.191927792E0,-3.742752307E-1,-1.604774183E0,3.455657088E0,3.828439374E0
4.201961792E0,-6.372331432E-1,-6.710668141E-1,2.701834631E0,2.855924915E0
4.211996792E0,-8.282804628E-1,1.457734251E-1,2.099623459E0,2.261795103E0
4.222030792E0,-1.003274910E0,7.388278574E-1,1.529866673E0,1.973048196E0
4.232064792E0,-1.183733433E0,1.183522641E0,1.002446067E0,1.951114758E0
4.242098792E0,-1.209113053E0,1.486107280E0,4.994960582E-1,1.979890284E0
4.252132792E0,-1.159631941E0,1.642027379E0,2.217878133E-2,2.010346251E0
4.262167792E0,-8.703292523E-1,1.686407745E0,-3.280366918E-1,1.925889966E0
4.272201792E0,-5.605787042E-1,1.646912727E0,-3.992490542E-1,1.784928520E0
4.282235792E0,4.860441001E-1,1.572000539E0,-8.388403881E-1,1.846910328E0
4.292269792E0,1.770926763E0,1.240303198E0,-1.598021234E0,2.688532218E0
4.302304792E0,2.109896286E0,5.876726550E-1,-2.000421937E0,2.966261859E0
4.312338792E0,1.516877668E0,-4.532855129E-1,-1.860912634E0,2.443231763E0
4.322372792E0,8.561934623E-1,-1.507402255E0,-1.537347600E0,2.317059871E0
4.332406792E0,2.480324560E-1,-2.584371085E0,-1.549445782E0,3.023454355E0
4.342441792E0,-2.105877275E-1,-3.661995973E0,-1.981454739E0,4.169019619E0
4.352475792E0,-1.227961334E-1,-4.443534817E0,-2.557468631E0,5.128423379E0
4.362509792E0,-2.117313333E-2,-4.918160328E0,-3.022994120E0,5.772975209E0
4.372543792E0,5.656274825E-2,-4.968095550E0,-3.575427945E0,6.121181073E0
4.382578792E0,3.762706296E-1,-4.531896771E0,-4.294531975E0,6.254811972E0
4.392612792E0,1.050720679E0,-3.802270092E0,-4.758351831E0,6.180872426E0
4.402646792E0,1.647858661E0,-3.015982724E0,-5.015383152E0,6.079938990E0
4.412680792E0,2.166557706E0,-2.294238092E0,-5.304487621E0,6.172121972E0
4.422715792E0,2.541395512E0,-1.830126459E0,-5.479136935E0,6.311021753E0
4.432749792E0,2.689326852E0,-1.547134085E0,-5.431445875E0,6.255134458E0
4.442783792E0,2.836895665E0,-1.286195655E0,-5.530099513E0,6.346989593E0
4.452817792E0,2.606020986E0,-1.142934778E0,-5.505186281E0,6.197154289E0
4.462852792E0,2.051993210E0,-9.872766352E-1,-5.165314533E0,5.644985873E0
4.472886792E0,1.481315341E0,-7.023371387E-1,-4.700246295E0,4.977940119E0
4.482920792E0,1.030894817E0,-4.062540185E-1,-4.202706131E0,4.346323190E0
4.492954792E0,7.686542851E-1,-1.415119743E-1,-3.801547376E0,3.881058812E0
4.502989792E0,4.496317706E-1,3.911728799E-2,-3.503744005E0,3.532693157E0
4.513023792E0,2.390415945E-1,1.710181940E-1,-3.261120808E0,3.274339175E0
4.523057792E0,1.574102248E-1,3.266880316E-1,-3.071269902E0,3.092604381E0
4.533091792E0,-9.160056179E-2,4.228712207E-1,-2.819603401E0,2.852608293E0
4.543125792E0,-4.736859732E-1,4.115901875E-1,-2.484678982E0,2.562696729E0
4.553160792E0,-8.929620700E-1,3.671478403E-1,-2.086317535E0,2.298890961E0
4.563194792E0,-1.152894633E0,4.459215295E-1,-1.665051960E0,2.073743011E0
4.573228792E0,-1.262778141E0,5.830007297E-1,-1.280867672E0,1.890798899E0
4.583262792E0,-1.292495153E0,7.630324066E-1,-9.840203208E-1,1.794730666E0
4.593297792E0,-1.260303892E0,9.313257980E-1,-6.990995353E-1,1.715946911E0
4.603331792E0,-1.183586156E0,1.051596007E0,-4.733660209E-1,1.652514975E0
4.613365792E0,-9.976260607E-1,1.228959600E0,-3.042072415E-1,1.611875150E0
4.623399792E0,-7.788991186E-1,1.405481193E0,-1.709117746E-1,1.615943086E0
4.633434792E0,-5.884222680E-1,1.410570025E0,-5.900308371E-2,1.529519508E0
4.643468792E0,-4.553176396E-1,1.309930673E0,1.477415979E-2,1.386885286E0
4.653502792E0,-3.031331811E-1,1.207478099E0,1.566825753E-1,1.254767912E0
4.663536792E0,-7.117249165E-2,1.041286197E0,4.412203681E-1,1.133145128E0
4.673571792E0,2.256017694E-1,8.464055157E-1,7.390629154E-1,1.146085707E0
4.683605792E0,5.257427840E-1,6.936253721E-1,1.063705299E0,1.374405542E0
4.693639792E0,8.788928651E-1,4.934237248E-1,1.244064127E0,1.601129349E0
4.703673792E0,1.456587904E0,4.394340438E-1,1.451030418E0,2.102436652E0
4.713708792E0,2.130395016E0,4.029275376E-1,1.729536223E0,2.773486808E0
4.723742417E0,2.920192468E0,3.328784788E-1,2.207135628E0,3.675565237E0
4.733776417E0,3.983990737E0,2.319461811E-1,2.788228704E0,4.868285173E0
4.743810417E0,5.619923270E0,2.391008341E-1,3.843975650E0,6.812991675E0
4.753845417E0,6.899749553E0,3.743212044E-1,4.609103698E0,8.306051840E0
4.763879417E0,7.705255550E0,7.137661064E-1,4.713666825E0,9.060854268E0
4.773913417E0,7.983992904E0,1.118061892E0,4.420045967E0,9.194074801E0
4.783947417E0,7.468322863E0,1.087521885E0,3.804880874E0,8.451962417E0
4.793981417E0,7.021178096E0,5.795035100E-1,3.367262975E0,7.808407399E0
4.804016417E0,6.634776544E0,-7.062091649E-1,3.659494826E0,7.609920733E0
4.814050417E0,5.814901600E0,-2.639291058E0,4.406659059E0,7.758710071E0
4.824084417E0,4.598097484E0,-4.393810680E0,4.975446085E0,8.074845912E0
4.834118417E0,3.432478725E0,-5.261367329E0,4.917056959E0,7.977552601E0
4.844153417E0,2.138424997E0,-5.315134816E0,4.005494457E0,6.990529695E0
4.854187417E0,8.806362125E-1,-4.818216210E0,2.486101317E0,5.492852387E0
4.864221417E0,2.083379017E-1,-3.799451734E0,7.251228610E-1,3.873634123E0
4.874255417E0,-8.299508661E-2,-2.828320431E0,-5.702871287E-1,2.886435873E0
4.884290417E0,-6.441487183E-1,-2.302970908E0,-1.392383430E0,2.767188861E0
4.894324417E0,-1.290879275E0,-2.203154844E0,-2.056906333E0,3.278890701E0
4.904358417E0,-1.965000674E0,-2.537948871E0,-2.676516187E0,4.179252447E0
4.914392417E0,-2.902437105E0,-3.446378726E0,-3.511799129E0,5.712652676E0
4.924427417E0,-5.281506309E0,-5.207759471E0,-8.513589259E0,1.129142461E1
4.934461417E0,-1.396495426E1,-1.046721885E1,-4.139908672E1,4.492735246E1
4.944495417E0,-1.274021869E1,-8.506575524E0,-3.367028619E1,3.699139320E1
4.954529417E0,-7.980195723E0,-3.118214273E0,-1.486009047E1,1.715310680E1
4.964564417E0,-3.158440778E0,-3.909448385E-1,-7.232729774E0,7.901959630E0
4.974598417E0,-7.011576822E-1,1.427983618E0,-3.428574539E0,3.779667007E0
4.984632417E0,-1.035559361E0,2.348474525E0,-1.568816146E0,3.008138940E0
4.994666417E0,-2.232608146E0,2.228580292E0,2.634831387E-1,3.165522487E0
5.004700417E0,-2.720184363E0,1.941638709E0,4.121582738E0,5.306298909E0
5.014735417E0,-2.569729072E0,1.861265806E0,8.542901351E0,9.113121387E0
5.024769417E0,-2.250276386E0,2.124643110E0,9.574600453E0,1.006234694E1
5.034803417E0,-9.732008522E-1,2.139487436E0,7.449279066E0,7.811292146E0
5.044837417E0,4.353347801E-1,1.791593308E0,4.748760644E0,5.094119217E0
5.054872417E0,1.004727431E0,1.399323490E0,2.447923969E0,2.993311744E0
5.064906417E0,7.946624080E-1,9.730035818E-1,1.050126310E0,1.637372767E0
5.074940417E0,-1.890149005E-2,4.345907950E-1,2.550552544E-1,5.042614483E-1
5.084974417E0,-1.151884088E0,-2.485008180E-2,8.921184629E-2,1.155600810E0
5.095009417E0,-2.223162847E0,-1.697622120E-1,2.906493026E-1,2.248499337E0
5.105043417E0,-2.988835563E0,-4.622808695E-3,5.845221752E-1,3.045459829E0
5.115077417E0,-3.372796195E0,3.327983719E-1,7.225784451E-1,3.465346814E0
5.125111417E0,-3.331077773E0,7.055677253E-1,5.805027992E-1,3.454111817E0
5.135146417E0,-2.956576767E0,1.054216145E0,4.104271764E-1,3.165622897E0
5.145180417E0,-2.373748823E0,1.369168230E0,3.966142988E-1,2.768864030E0
5.155214417E0,-1.884300327E0,1.457113861E0,4.890213561E-1,2.431647675E0
5.165248417E0,-1.346583652E0,1.439370486E0,6.473961157E-1,2.074655792E0
5.175283417E0,-6.951865786E-1,1.260001883E0,8.325020063E-1,1.662512771E0
5.185317417E0,4.463324517E-2,9.651057476E-1,1.137725494E0,1.492595233E0
5.195351417E0,8.699001398E-1,6.910859263E-1,1.358883854E0,1.755246803E0
5.205385417E0,1.622320508E0,3.728126228E-1,1.659837413E0,2.350738888E0
5.215420417E0,2.428946246E0,2.310398626E-1,1.873699325E0,3.076346607E0
5.225454417E0,3.057026669E0,2.055185205E-1,1.954732963E0,3.634368016E0
5.235488417E0,3.407628059E0,3.226043361E-1,1.989338540E0,3.958973399E0
5.245522417E0,3.507947861E0,5.197373646E-1,1.981015613E0,4.062049727E0
5.255556417E0,3.650338379E0,7.310112995E-1,2.012632970E0,4.232025434E0
5.265591417E0,3.859766056E0,1.017849972E0,1.998597021E0,4.464101547E0
5.275625417E0,3.684427062E0,1.399763201E0,1.862754215E0,4.359379893E0
5.285659417E0,3.243621261E0,1.800268822E0,1.636595608E0,4.054687645E0
5.295693417E0,2.788098019E0,2.087154856E0,1.348755307E0,3.734815502E0
5.305728417E0,2.675169573E0,2.161120965E0,1.093237538E0,3.608620843E0
5.315762417E0,2.685401908E0,1.977354087E0,1.007867020E0,3.483835318E0
5.325796417E0,2.513279468E0,1.509351132E0,1.111788415E0,3.135408746E0
5.335830417E0,2.169261459E0,8.908098561E-1,1.450951189E0,2.757625215E0
5.345865417E0,1.608333822E0,2.840822947E-1,1.848405147E0,2.466585093E0
5.355899417E0,8.785003708E-1,-6.356625080E-2,2.151459610E0,2.324775694E0
5.365933417E0,1.844625690E-2,-6.015030742E-2,2.371682124E0,2.372516475E0
5.375967417E0,-6.636877741E-1,2.100594682E-1,2.329885057E0,2.431660096E0
5.386002417E0,-1.089936639E0,4.374231863E-1,2.159617646E0,2.458302117E0
5.396036417E0,-1.280881559E0,5.130750471E-1,1.937676343E0,2.378758748E0
5.406070417E0,-1.263098568E0,4.155575234E-1,1.784346853E0,2.225308909E0
5.416104417E0,-1.160549150E0,2.249833167E-2,1.688662139E0,2.049136483E0
5.426139417E0,-1.140928964E0,-8.657311481E-1,1.700235826E0,2.223063469E0
5.436173417E0,-1.035853256E0,-2.112408396E0,1.680070826E0,2.891003144E0
5.446207417E0,-8.388612188E-1,-3.466124774E0,1.476679814E0,3.859830614E0
5.456241417E0,4.780690826E-1,-5.308176629E0,-2.713337274E0,5.980592641E0
5.466275417E0,1.983501557E0,-7.341228953E0,-9.138857757E0,1.188892939E1
5.476310417E0,5.946697256E-1,-7.109220791E0,-7.056564860E0,1.003442873E1
5.486344417E0,-1.164381342E0,-5.841250323E0,-3.633501906E0,6.976985406E0
5.496378417E0,-1.984704329E0,-4.508563457E0,-2.090431051E0,5.351270662E0
5.506412417E0,-2.090288379E0,-2.966921076E0,-1.637084435E0,3.981453457E0
5.516447417E0,-2.136209049E0,-1.384739365E0,-1.289542601E0,2.853736556E0
5.526481417E0,-1.916765969E0,1.906595761E-1,-1.520684790E0,2.454144471E0
5.536515417E0,-1.311417912E0,1.538227606E0,-1.945073363E0,2.805222183E0
5.546549417E0,-5.199421634E-1,2.559808102E0,-2.326699202E0,3.498068974E0
5.556584417E0,4.897171748E-1,3.273710448E0,-2.929062694E0,4.420001275E0
5.566618417E0,1.498045540E0,3.674630637E0,-3.381789505E0,5.213784711E0
5.576652417E0,2.208054957E0,3.614117217E0,-3.394080645E0,5.427442618E0
5.586686417E0,2.743360387E0,3.062992584E0,-3.104029512E0,5.151984957E0
5.596721417E0,3.139775588E0,2.261956199E0,-2.804604709E0,4.779167727E0
5.606755417E0,3.295191949E0,1.237785972E0,-2.449679888E0,4.288512055E0
5.616789417E0,3.107290505E0,1.170723671E-1,-2.136973134E0,3.773011316E0
5.626823417E0,2.680959486E0,-9.393072474E-1,-1.685518384E0,3.303152145E0
5.636857417E0,2.067899975E0,-1.830664403E0,-1.173184179E0,3.000650526E0
5.646892417E0,1.306228070E0,-2.514548898E0,-7.024599302E-1,2.919355731E0
5.656926417E0,8.335974821E-1,-2.916497027E0,-3.247929490E-1,3.050627826E0
5.666960417E0,6.356287403E-1,-2.933716493E0,-1.642810321E-1,3.006277534E0
5.676994417E0,6.683707360E-1,-2.575057640E0,-3.231007648E-1,2.679931976E0
5.687029417E0,9.731997558E-1,-1.809323235E0,-7.791584426E-1,2.197238315E0
5.697063417E0,1.571308229E0,-7.278678364E-1,-1.542920582E0,2.319354449E0
5.707097417E0,2.152933255E0,4.049255311E-1,-2.348029552E0,3.211281530E0
5.717131417E0,2.508013173E0,1.352983721E0,-2.832347993E0,4.017821571E0
5.727166417E0,2.730421961E0,2.129640141E0,-2.827197180E0,4.470303693E0
5.737200417E0,2.714463447E0,2.579823706E0,-2.432455160E0,4.465494403E0
5.747234417E0,2.429089210E0,2.545135099E0,-1.814298631E0,3.958518231E0
5.757268417E0,2.045683041E0,2.137544407E0,-9.550093603E-1,3.109012395E0
5.767303417E0,1.611849022E0,1.515570815E0,2.929864347E-2,2.212661423E0
5.777337417E0,1.117569338E0,8.644406676E-1,1.002100204E0,1.732173118E0
5.787371417E0,6.916338104E-1,2.522044444E-1,1.951935071E0,2.086148348E0
5.797405417E0,3.995487605E-1,-3.197158116E-1,2.705295013E0,2.753266881E0
5.807439417E0,1.433493705E-1,-7.575980043E-1,3.108980350E0,3.203164466E0
5.817474417E0,-5.659863554E-2,-9.997446531E-1,3.168724568E0,3.323177420E0
5.827508417E0,-1.490346548E-1,-1.015620428E0,2.925403506E0,3.100271255E0
5.837542417E0,-4.919514690E-2,-7.976754051E-1,2.457321029E0,2.584014871E0
5.847576417E0,2.683971204E-1,-3.490758508E-1,1.801534452E0,1.854566619E0
5.857611417E0,6.463402547E-1,1.786868173E-1,1.122215170E0,1.307306999E0
5.867645417E0,9.090856209E-1,5.514935929E-1,6.138173103E-1,1.227743271E0
5.877679417E0,1.137962818E0,7.249202549E-1,2.644140154E-1,1.374912187E0
5.887713417E0,1.305259332E0,7.768710119E-1,3.179598927E-2,1.519289794E0
5.897748417E0,1.433998795E0,7.863318068E-1,-1.404781866E-1,1.641464095E0
5.907782417E0,1.546014197E0,8.351583964E-1,-2.700834757E-1,1.777806100E0
5.917816417E0,1.646548884E0,9.121884459E-1,-3.136826545E-1,1.908299714E0
5.927850417E0,1.745316250E0,9.758815813E-1,-3.318730500E-1,2.026971484E0
5.937885417E0,1.838079988E0,1.127089993E0,-3.320133832E-1,2.181536794E0
5.947919417E0,2.008665780E0,1.398183868E0,-4.492313460E-1,2.488265490E0
5.957953417E0,2.238064622E0,1.786614404E0,-7.215607372E-1,2.953231142E0
5.967987417E0,2.590666198E0,2.211329252E0,-1.038029882E0,3.560763183E0
5.978022417E0,3.132332083E0,2.538779760E0,-1.288617572E0,4.232899974E0
5.988056417E0,3.888558915E0,2.615119838E0,-1.380709464E0,4.885294344E0
5.998090417E0,4.831837884E0,2.164895927E0,-1.115868894E0,5.410969885E0
6.008124417E0,5.794735138E0,1.102353932E0,-4.218713468E-1,5.913722596E0
6.018159417E0,6.758227054E0,-5.834667528E-1,8.092920685E-1,6.831472756E0
6.028193417E0,7.208530487E0,-2.494383606E0,2.537382860E0,8.038853969E0
6.038227417E0,6.544940507E0,-3.856828122E0,4.248633671E0,8.704151738E0
6.048261417E0,4.552037213E0,-4.090247217E0,5.083281605E0,7.955558871E0
6.058295417E0,2.716084296E0,-2.670427482E0,4.263599619E0,5.717217728E0
6.068330417E0,1.897440483E0,-6.897194320E-1,2.747377424E0,3.409409918E0
6.078364417E0,1.348684410E0,5.586511695E-1,1.712610581E0,2.250350143E0
6.088398417E0,1.124906497E0,1.207721928E0,1.133095961E0,2.001977357E0
6.098432417E0,1.028796617E0,1.487869631E0,7.621488923E-1,1.962918606E0
6.108467417E0,6.470848245E-1,1.483625722E0,6.146581399E-1,1.731377683E0
6.118501417E0,1.335500035E-1,1.060186152E0,7.960098258E-1,1.332464605E0
6.128535417E0,-2.601014746E-1,2.864165032E-1,1.126576315E0,1.191159681E0
6.138569417E0,-6.066169759E-1,-6.636379266E-1,1.489994509E0,1.740253743E0
6.148604417E0,-8.023246725E-1,-1.654887160E0,1.763905280E0,2.548281427E0
6.158638417E0,-9.233615249E-1,-2.509950063E0,1.763696242E0,3.203602700E0
6.168672417E0,-1.075292872E0,-3.130594583E0,1.399949142E0,3.593985921E0
6.178706417E0,-1.239108904E0,-3.380130358E0,7.084083027E-1,3.669129929E0
6.188740417E0,-1.371887331E0,-3.089027896E0,-1.020403451E-1,3.381505644E0
6.198775417E0,-1.477138090E0,-2.162245969E0,-9.601221657E-1,2.789100059E0
6.208809417E0,-1.725204898E0,-8.882435131E-1,-1.691798294E0,2.574391180E0
6.218843417E0,-2.437619421E0,1.256332755E-2,-3.211240550E0,4.031651293E0
6.228877417E0,-4.962117941E0,-7.956388199E-1,-1.343640105E1,1.434547067E1
6.238912417E0,-4.962565838E0,-1.656233189E0,-1.838669124E1,1.911650028E1
6.248946417E0,-2.955595604E0,-1.517060101E-1,-8.866211447E0,9.347099310E0
6.258980417E0,-1.743151465E0,8.568644303E-1,-2.639495126E0,3.277152453E0
6.269014417E0,-1.277584899E0,1.625733528E0,2.259720808E-1,2.079975014E0
6.279049417E0,-1.416344735E0,1.926307309E0,9.999370265E-1,2.591633908E0
6.289083417E0,-1.038074029E0,1.767043188E0,1.379908688E0,2.470665357E0
6.299117417E0,-6.457341908E-1,1.457495685E0,1.798865490E0,2.403577202E0
6.309151417E0,-1.917587064E-1,1.129551086E0,2.143426121E0,2.430418193E0
6.319186417E0,2.564436758E-1,8.657557064E-1,2.434912452E0,2.596939536E0
6.329220417E0,7.156522720E-1,6.756136090E-1,2.880936893E0,3.044406232E0
6.339254417E0,1.049735862E0,4.560366279E-1,3.571817874E0,3.750706295E0
6.349288417E0,1.410281611E0,2.178304178E-1,4.569354619E0,4.786997592E0
6.359323417E0,1.894749740E0,-5.167710721E-2,5.564160129E0,5.878148096E0
6.369357417E0,2.230442045E0,-1.898655242E-1,5.508924991E0,5.946358145E0
6.379391417E0,2.531705799E0,-3.700094676E-1,4.840719219E0,5.475308559E0
6.389425417E0,2.873906786E0,-5.511626405E-1,3.990940737E0,4.948810810E0
6.399459417E0,3.126968724E0,-5.970667917E-1,3.195526451E0,4.510633154E0
6.409494417E0,3.200429633E0,-4.797856790E-1,2.482845587E0,4.078905043E0
6.419528417E0,3.145728638E0,-2.945230830E-1,1.770868437E0,3.621923182E0
6.429562417E0,3.030866227E0,2.897646189E-2,1.241029715E0,3.275231972E0
6.439596417E0,2.906106233E0,4.201832557E-1,9.728170556E-1,3.093279882E0
6.449631417E0,2.838510373E0,8.637395865E-1,8.587293997E-1,3.088786719E0
6.459665417E0,2.885757630E0,1.403114825E0,9.602224454E-1,3.349381354E0
6.469699417E0,3.125673858E0,1.990095754E0,1.291416488E0,3.924038063E0
6.479733417E0,3.494923188E0,2.572746236E0,1.696425780E0,4.659546299E0
6.489768417E0,3.947586557E0,3.047567629E0,2.165452875E0,5.436937946E0
6.499802417E0,4.345246923E0,3.297726717E0,2.704877230E0,6.088721799E0
6.509836417E0,4.601114063E0,3.296292395E0,3.294276275E0,6.548896880E0
6.519870417E0,4.809771369E0,3.078160846E0,3.817568162E0,6.868973830E0
6.529905417E0,4.934875179E0,2.647114048E0,4.185193135E0,6.991140636E0
6.539939417E0,4.916527786E0,2.049380674E0,4.315792451E0,6.855528506E0
6.549973417E0,4.640242753E0,1.365531262E0,4.231563894E0,6.426714668E0
6.560007417E0,4.371059164E0,7.319907081E-1,4.033939700E0,5.992882287E0
6.570042417E0,3.789455334E0,1.536794454E-1,3.692735370E0,5.293381114E0
6.580076417E0,2.967528017E0,-2.881811929E-1,3.395137237E0,4.518432006E0
6.590110417E0,2.254337715E0,-7.653800637E-1,3.205545362E0,3.992914505E0
6.600144417E0,1.572067928E0,-1.639892560E0,3.482342026E0,4.157806052E0
6.610178417E0,7.590535956E-1,-3.158415635E0,4.350246584E0,5.429216981E0
6.620213417E0,5.228821434E-2,-5.139895517E0,5.305181685E0,7.386894658E0
6.630247417E0,-4.394058309E-2,-7.016216733E0,6.007604193E0,9.236911614E0
6.640281417E0,-2.858681805E-2,-8.108058541E0,6.239737485E0,1.023111697E1
6.650315417E0,1.639661595E-2,-7.564596684E0,5.284390740E0,9.227577003E0
6.660350417E0,2.754708809E-1,-5.443354315E0,3.242692431E0,6.342006355E0
6.670384417E0,3.542809691E-1,-3.244080268E0,1.429351866E0,3.562670143E0
6.680418417E0,3.770324852E-1,-1.446566654E0,1.573310316E-2,1.494976960E0
6.690452417E0,4.515089826E-1,-1.465142673E-1,-1.184671327E0,1.276233891E0
6.700487417E0,8.568820450E-1,8.314553547E-1,-2.602136096E0,2.862983952E0
6.710521417E0,1.845890260E0,1.691436936E0,-4.719657297E0,5.342605615E0
6.720555417E0,2.145871134E0,1.958905537E0,-5.947243971E0,6.619047112E0
6.730589292E0,1.295079037E0,1.531792161E0,-5.130824731E0,5.508990775E0
6.740624292E0,-3.676294316E-1,4.887371814E-1,-3.313744580E0,3.369706006E0
6.750658292E0,-1.710891207E0,-1.634700233E-1,-1.858240457E0,2.531191175E0
6.760692292E0,-2.409590500E0,-2.963708031E-1,-1.386170763E0,2.795609311E0
6.770726292E0,-3.027290654E0,-5.172517133E-1,-1.821143089E0,3.570518196E0
6.780760292E0,-3.425579303E0,-7.812377125E-1,-2.723526047E0,4.445505602E0
6.790795292E0,-2.884451947E0,-8.940451205E-1,-3.446071163E0,4.582006784E0
6.800829292E0,-2.001668563E0,-1.013628282E0,-3.502068778E0,4.159159177E0
6.810863292E0,-1.411387758E0,-1.291278639E0,-3.126924870E0,3.665661614E0
6.820897292E0,-8.015244810E-1,-1.341779287E0,-3.051235295E0,3.428242986E0
6.830932292E0,-2.395051691E-1,-1.302849694E0,-3.078849648E0,3.351730181E0
6.840966292E0,1.971314205E-1,-1.282841692E0,-3.216947433E0,3.468903917E0
6.851000292E0,9.057611865E-1,-1.259031830E0,-3.539373429E0,3.864288905E0
6.861034292E0,2.255290373E0,-1.247663673E0,-4.516776456E0,5.200410451E0
6.871069292E0,3.533184736E0,-1.276223813E0,-5.757340440E0,6.874526204E0
6.881103292E0,3.764646183E0,-1.315334085E0,-6.308275039E0,7.463042181E0
6.891137292E0,2.818325200E0,-1.327734275E0,-5.877055163E0,6.651737565E0
6.901171292E0,1.676101736E0,-1.340208725E0,-5.043609416E0,5.481192607E0
6.911205292E0,7.437786949E-1,-1.299258335E0,-4.455441502E0,4.700238074E0
6.921240292E0,-9.475745525E-2,-1.222417150E0,-3.984583352E0,4.168955163E0
6.931274292E0,-6.390421987E-1,-1.111875538E0,-3.714736689E0,3.929874147E0
6.941308292E0,-5.596999773E-1,-9.252353382E-1,-3.623669229E0,3.781574166E0
6.951342292E0,-3.652718708E-1,-7.026505494E-1,-3.556356082E0,3.643461255E0
6.961377292E0,-4.585086114E-1,-5.661876458E-1,-3.291162633E0,3.370838185E0
6.971411292E0,-7.511776154E-1,-3.843234515E-1,-2.691177496E0,2.820356119E0
6.981445292E0,-5.692959525E-1,1.255163312E-1,-2.122120036E0,2.200737531E0
6.991479292E0,-4.776871864E-2,7.479933679E-1,-1.772399238E0,1.924363528E0
7.001514292E0,2.743062069E-1,1.167566759E0,-1.459399538E0,1.888995247E0
7.011548292E0,3.903723230E-1,1.410585812E0,-1.150519786E0,1.861676305E0
7.021582292E0,2.841119693E-1,1.451692908E0,-9.326379132E-1,1.748698198E0
7.031616292E0,3.999638032E-2,1.350583439E0,-8.041137743E-1,1.572346749E0
7.041651292E0,-1.039940460E-1,1.245555752E0,-7.144923306E-1,1.439695518E0
7.051685292E0,-1.184412733E-1,1.098114116E0,-6.227705669E-1,1.267961406E0
7.061719292E0,-1.855423853E-2,9.477015102E-1,-4.834396040E-1,1.064047115E0
7.071753292E0,2.332375386E-1,8.131371975E-1,-3.359225392E-1,9.101844889E-1
7.081787292E0,6.162323566E-1,7.008437598E-1,-1.818326193E-1,9.507825169E-1
7.091822292E0,1.043785150E0,5.485922045E-1,1.090096414E-2,1.179219945E0
7.101856292E0,1.507562030E0,2.625171787E-1,4.664300537E-1,1.599754837E0
7.111890292E0,1.975949001E0,-1.284539723E-1,1.175399689E0,2.302702609E0
7.121924292E0,2.418970311E0,-5.829042506E-1,1.872375516E0,3.113998202E0
7.131959292E0,3.051537888E0,-1.061876582E0,2.507735138E0,4.090012332E0
7.141993292E0,3.675541048E0,-1.394598940E0,3.014020983E0,4.953668407E0
7.152027292E0,4.304528375E0,-1.485521389E0,3.447828251E0,5.711677335E0
7.162061292E0,5.352609036E0,-1.328448805E0,3.841980287E0,6.721310307E0
7.172096292E0,6.715613716E0,-8.222927678E-1,4.110128335E0,7.916362037E0
7.182130292E0,8.070323535E0,7.197980940E-2,4.005761090E0,9.010073527E0
7.192164292E0,9.045431530E0,8.429439640E-1,3.348131470E0,9.681961084E0
7.202198292E0,8.662704368E0,4.605196881E-1,2.366757891E0,8.992000238E0
7.212233292E0,7.511106355E0,-3.982778317E-1,2.191140570E0,7.834311770E0
7.222267292E0,6.016038802E0,-1.209331666E0,2.631600800E0,6.676865186E0
7.232301292E0,4.352830761E0,-1.861781530E0,3.313459528E0,5.778614033E0
7.242335292E0,2.878836281E0,-2.265103755E0,3.688182436E0,5.198180743E0
7.252369292E0,2.010871496E0,-2.123745562E0,3.437546215E0,4.513382697E0
7.262404292E0,1.413779269E0,-1.583734147E0,2.749032771E0,3.473350953E0
7.272438292E0,9.311152252E-1,-1.122074836E0,1.818503948E0,2.330876254E0
7.282472292E0,5.587441403E-1,-9.938524139E-1,8.238688847E-1,1.406661855E0
7.292506292E0,4.597632046E-1,-1.218615291E0,2.592716816E-1,1.328016278E0
7.302541292E0,2.490318183E-1,-1.733063849E0,7.641609192E-2,1.752531474E0
7.312575292E0,-1.335520135E-1,-2.445312018E0,-6.057364583E-2,2.449705323E0
7.322609292E0,-5.834645966E-1,-3.329891081E0,-1.556593126E-1,3.384203801E0
7.332643292E0,-1.302013981E0,-4.219317486E0,-4.583456933E-1,4.439364958E0
7.342678292E0,-2.139020682E0,-4.972754611E0,-1.082379259E0,5.520438639E0
7.352712292E0,-5.868142837E0,-6.597853131E0,-9.004639599E0,1.261151460E1
7.362746292E0,-1.647941720E1,-1.118125042E1,-3.373830334E1,3.917734887E1
7.372780292E0,-1.346970445E1,-8.147014446E0,-2.211335567E1,2.714419424E1
7.382815292E0,-3.864946396E0,-3.693643443E0,-8.607632368E0,1.013272656E1
7.392849292E0,1.288112518E0,-8.644886148E-1,-3.710473191E0,4.021714277E0
7.402883292E0,2.128786009E0,1.313846553E0,-2.456495695E0,3.506036756E0
7.412917292E0,1.343431271E0,3.009729711E0,-2.271235145E0,4.002722774E0
7.422951292E0,3.803838900E-1,3.862834382E0,-1.390120558E0,4.122937852E0
7.432986292E0,-2.771546598E-1,4.114770439E0,2.757660922E-1,4.133303450E0
7.443020292E0,-1.245384429E0,4.069232324E0,3.852324597E0,5.740212442E0
7.453054292E0,-1.883529957E0,4.178661211E0,7.270206918E0,8.594463522E0
7.463088292E0,-2.624032164E0,4.475500376E0,8.652584592E0,1.008874960E1
7.473123292E0,-3.041074296E0,4.467026006E0,8.524130620E0,1.009273288E1
7.483157292E0,-2.852125030E0,4.021343043E0,6.899421524E0,8.479848727E0
7.493191292E0,-2.004844332E0,3.345287384E0,4.664404618E0,6.080050898E0
7.503225292E0,-1.482331441E0,2.507305368E0,2.784927658E0,4.029852202E0
7.513260292E0,-1.471679276E0,1.639140608E0,1.733164713E0,2.802941624E0
7.523294292E0,-1.721577286E0,8.914700067E-1,8.550275275E-1,2.118872152E0
7.533328292E0,-2.169964732E0,5.720746225E-1,-1.814759392E-1,2.251432839E0
7.543362292E0,-2.544169723E0,6.784834224E-1,-1.070688921E0,2.842448610E0
7.553397292E0,-2.811490097E0,8.398542953E-1,-1.416720419E0,3.258362863E0
7.563431292E0,-2.827025565E0,9.529961640E-1,-1.213203108E0,3.220580229E0
7.573465292E0,-2.719761025E0,8.905508244E-1,-4.191570693E-1,2.892381968E0
7.583499292E0,-2.379215531E0,6.421991104E-1,7.416625875E-1,2.573548063E0
7.593533292E0,-1.868467383E0,2.210797155E-1,2.047581778E0,2.780762079E0
7.603568292E0,-1.146271273E0,-3.090060514E-1,3.108900535E0,3.327864948E0
7.613602292E0,-1.633186535E-1,-8.590612292E-1,3.564497453E0,3.670190904E0
7.623636292E0,1.274095719E0,-1.294866491E0,2.833417448E0,3.365747104E0
7.633670292E0,4.846794477E0,-1.666191582E0,-1.945097044E0,5.481880480E0
7.643705292E0,8.982599689E0,-2.083593317E0,-7.406613103E0,1.182735710E1
7.653739292E0,7.821974160E0,-1.650084257E0,-4.410828416E0,9.130250004E0
7.663773292E0,5.251123007E0,-6.273881131E-1,6.047763455E-1,5.322937451E0
7.673807292E0,4.173545774E0,3.033968174E-1,3.306971457E0,5.333534867E0
7.683842292E0,3.958124994E0,1.191926259E0,3.904979943E0,5.686502443E0
7.693876292E0,3.642585556E0,2.050426156E0,4.095387504E0,5.851912146E0
7.703910292E0,3.361394417E0,2.751461120E0,3.965775783E0,5.881911958E0
7.713944292E0,3.093259818E0,3.282489458E0,3.857873604E0,5.935164875E0
7.723979292E0,2.865181278E0,3.661584914E0,3.699022297E0,5.941315830E0
7.734013792E0,2.838067447E0,3.730972068E0,3.634291865E0,5.931513868E0
7.744047792E0,2.862969861E0,3.259548492E0,3.589067160E0,5.630511156E0
7.754081792E0,2.695626057E0,2.425470661E0,3.356245651E0,4.941021417E0
7.764115792E0,2.299441237E0,1.432287169E0,2.764810313E0,3.870794828E0
7.774150792E0,1.603071181E0,3.087306476E-1,1.343483750E0,2.114261198E0
7.784184792E0,7.754264572E-1,-8.376890713E-1,-6.515148944E-1,1.314336650E0
7.794218792E0,3.722711341E-1,-1.469640352E0,-1.430279088E0,2.084256901E0
7.804252792E0,8.491806773E-1,-1.355281093E0,2.872758977E-1,1.624937569E0
7.814287792E0,1.943811534E0,-7.951751357E-1,2.841081394E0,3.533051127E0
7.824321792E0,2.587244699E0,-4.507910907E-1,4.153913163E0,4.914472739E0
7.834355792E0,2.379817209E0,-9.443165570E-1,4.671123653E0,5.326787014E0
7.844389792E0,1.688507042E0,-2.300656580E0,5.221431431E0,5.950413676E0
7.854424792E0,6.630707467E-1,-4.171940421E0,6.201635858E0,7.503668237E0
7.864458792E0,-6.506369349E-1,-5.985757241E0,7.462970322E0,9.588980352E0
7.874492792E0,-1.830956325E0,-7.099244272E0,8.359956007E0,1.111937654E1
7.884526792E0,-2.433706464E0,-6.720672142E0,7.710881156E0,1.051418325E1
7.894560792E0,-2.335187020E0,-4.941684846E0,5.375043633E0,7.665796866E0
7.904595792E0,-2.159534615E0,-2.978997331E0,3.018040944E0,4.758842925E0
7.914629792E0,-2.076227580E0,-1.419310443E0,1.223397728E0,2.796759750E0
7.924663792E0,-2.029302505E0,-1.948216242E-1,-2.177324769E-1,2.050227195E0
7.934697792E0,-1.927311422E0,6.401520002E-1,-1.385025586E0,2.458174074E0
7.944732792E0,-1.686305419E0,1.107867857E0,-2.384180255E0,3.123349587E0
7.954766792E0,-1.045826413E0,1.357023563E0,-3.959142117E0,4.313939283E0
7.964800792E0,1.565295099E0,1.712219694E0,-8.344608820E0,8.661081999E0
7.974834792E0,2.209194725E0,1.305999005E0,-9.692773851E0,1.002676616E1
7.984869792E0,4.630430540E-1,-1.714883101E-1,-8.575929349E0,8.590132788E0
7.994903792E0,-1.503290785E0,-1.659329290E0,-8.337316757E0,8.632734653E0
8.004937792E0,-1.070956577E0,-1.250098454E0,-7.173307444E0,7.359757729E0
8.014971792E0,-3.536618221E-1,-6.535953337E-1,-5.844474478E0,5.891531674E0
8.025005792E0,-3.179017130E-1,-4.991890794E-1,-4.696909874E0,4.734048331E0
8.035040792E0,-5.555524376E-1,-5.556895548E-1,-4.183394532E0,4.256550152E0
8.045074792E0,-7.883444915E-1,-6.841406035E-1,-3.804223647E0,3.944826100E0
8.055108792E0,-8.803704565E-1,-8.161847663E-1,-3.539868688E0,3.737897810E0
8.065142792E0,-8.748975357E-1,-9.373472607E-1,-3.413662385E0,3.646526630E0
8.075177792E0,-6.872510299E-1,-1.012455330E0,-3.333916304E0,3.551390952E0
8.085211792E0,-6.561575105E-1,-1.120267462E0,-3.237109802E0,3.487753107E0
8.095245792E0,-5.258040702E-1,-1.171855107E0,-3.155635868E0,3.407015123E0
8.105279792E0,-2.996204663E-2,-1.095163026E0,-2.990330404E0,3.184706533E0
8.115314792E0,4.054197671E-1,-1.074294899E0,-2.722465947E0,2.954707354E0
8.125348792E0,6.050206129E-1,-1.116362692E0,-2.425254314E0,2.737548920E0
8.135382792E0,2.559733952E-1,-1.275050277E0,-2.162507340E0,2.523432896E0
8.145416792E0,8.122677896E-2,-1.374347109E0,-1.977776256E0,2.409777310E0
8.155451792E0,1.678424615E-1,-1.276079972E0,-2.061442895E0,2.430246489E0
8.165485792E0,3.726864691E-1,-8.494560081E-1,-2.342506857E0,2.519485878E0
8.175519792E0,5.700345290E-1,-1.977241820E-1,-2.577595916E0,2.647269334E0
8.185553792E0,2.739708326E-1,3.001334864E-1,-2.369542043E0,2.404135941E0
8.195587792E0,-1.927075633E-1,6.697026587E-1,-2.047795494E0,2.163123723E0
8.205622792E0,-7.007822178E-1,9.026861358E-1,-1.775570768E0,2.111537243E0
8.215656792E0,-1.068116511E0,1.076136771E0,-1.723586097E0,2.295581030E0
8.225690792E0,-1.130256699E0,1.286472813E0,-1.706809266E0,2.417786255E0
8.235724792E0,-1.004435582E0,1.388106192E0,-1.710568441E0,2.421110082E0
8.245759792E0,-6.782834476E-1,1.457317345E0,-1.780191822E0,2.398525631E0
8.255793792E0,-1.855400464E-1,1.430166383E0,-1.783744590E0,2.293805954E0
8.265827792E0,3.514384183E-1,1.379354079E0,-1.691724034E0,2.210895033E0
8.275861792E0,9.911516581E-1,1.333089155E0,-1.633858818E0,2.330022091E0
8.285896792E0,1.597456977E0,1.342037734E0,-1.451865401E0,2.541819666E0
8.295930792E0,1.972698534E0,1.199391400E0,-1.119015573E0,2.565594490E0
8.305964792E0,2.111250355E0,8.895696616E-1,-6.180553722E-1,2.372910594E0
8.315998792E0,2.099709852E0,3.960804480E-1,8.247790039E-2,2.138332010E0
8.326032792E0,2.137537829E0,-2.528429604E-1,9.302072257E-1,2.344841789E0
8.336067792E0,2.313677599E0,-9.144080490E-1,1.841282362E0,3.095087535E0
8.346101792E0,2.575750243E0,-1.471253014E0,2.603069896E0,3.946523486E0
8.356135792E0,2.786006470E0,-1.801476856E0,3.062695545E0,4.515224791E0
8.366169792E0,3.216143441E0,-1.808868322E0,3.337087834E0,4.975111903E0
8.376204792E0,4.160282827E0,-1.167036417E0,3.348681693E0,5.466589090E0
8.386238792E0,5.368510539E0,2.023499143E-1,2.722655689E0,6.022848570E0
8.396272792E0,6.712392485E0,1.622460256E0,1.789728631E0,7.133843194E0
8.406306792E0,7.404723283E0,1.972006808E0,1.060464187E0,7.735846563E0
8.416341792E0,7.062877514E0,9.707483107E-1,9.646113655E-1,7.194238400E0
8.426375792E0,6.875830933E0,-8.164221632E-1,1.958249771E0,7.195716666E0
8.436409792E0,7.052816795E0,-2.990190071E0,3.636523163E0,8.479844463E0
8.446443792E0,7.482132817E0,-5.377660262E0,5.125662224E0,1.054390604E1
8.456478792E0,6.828124085E0,-7.324670808E0,6.084943560E0,1.171753469E1
8.466512792E0,4.687823301E0,-7.900460166E0,6.278081771E0,1.112687148E1
8.476546792E0,2.293524731E0,-6.655347049E0,5.445179815E0,8.899656356E0
8.486580792E0,5.420462465E-1,-4.232791225E0,3.734716040E0,5.670841171E0
8.496614792E0,-5.126153098E-1,-1.869261873E0,1.879183429E0,2.699674937E0
8.506649792E0,-8.707973950E-1,-7.787146389E-2,5.041393322E-1,1.009211838E0
8.516683792E0,-1.221323648E0,1.027877946E0,-3.958559150E-1,1.644647814E0
8.526717792E0,-1.471802944E0,1.525579494E0,-8.147779262E-1,2.271004132E0
8.536751792E0,-1.619848597E0,1.599456140E0,-1.027860990E0,2.497732499E0
8.546786792E0,-2.006394283E0,1.266967086E0,-1.355978081E0,2.733038634E0
8.556820792E0,-2.836645111E0,3.718408155E-1,-1.929966204E0,3.451027475E0
8.566854792E0,-3.660939089E0,-9.228660464E-1,-2.795028139E0,4.697482203E0
8.576888792E0,-6.952852212E0,-3.145123744E0,-1.042237188E1,1.291742207E1
8.586923792E0,-1.743601935E1,-8.841719214E0,-3.520941368E1,4.027273992E1
8.596957792E0,-1.370597289E1,-7.095486851E0,-2.379387117E1,2.836102840E1
8.606991792E0,-5.517700492E0,-3.346370873E0,-1.104066348E1,1.278825503E1
8.617025792E0,-3.902094050E-1,-7.183462304E-1,-4.080348758E0,4.161433728E0
8.627059792E0,1.188112852E0,1.550267023E0,-1.137934824E0,2.260494560E0
8.637094792E0,6.253765248E-1,3.109025958E0,-3.243383279E-1,3.187841520E0
8.647128792E0,-2.014839417E-1,3.672944300E0,2.232977106E0,4.303173522E0
8.657162792E0,-7.615896061E-1,3.840316755E0,6.962215358E0,7.987521155E0
8.667196792E0,-1.584573661E0,4.221095624E0,8.702347906E0,9.800988778E0
8.677231792E0,-2.262678330E0,4.218726332E0,9.293010827E0,1.045358385E1
8.687265792E0,-2.253290918E0,4.170672745E0,8.505042969E0,9.736918763E0
8.697299792E0,-1.984868928E0,3.951326144E0,7.113291038E0,8.375654742E0
8.707333792E0,-1.667591698E0,3.420508890E0,5.324124325E0,6.544237386E0
8.717368792E0,-1.354172899E0,2.621100370E0,3.917591218E0,4.904230046E0
8.727402167E0,-1.043165419E0,1.656723186E0,2.842846668E0,3.451768095E0
8.737436167E0,-8.622318088E-1,6.664627165E-1,1.823099714E0,2.123984183E0
8.747470167E0,-8.969209273E-1,-2.250985068E-1,8.319251785E-1,1.243879411E0
8.757504167E0,-9.085262617E-1,-8.351578116E-1,-2.120378736E-1,1.252145598E0
8.767539167E0,-1.051172815E0,-1.209404756E0,-1.258250057E0,2.037355482E0
8.777573167E0,-1.305695827E0,-1.356564556E0,-2.127224363E0,2.840808420E0
8.787607167E0,-1.604490301E0,-1.304096321E0,-2.568651723E0,3.297427484E0
8.797641167E0,-1.914876295E0,-1.229905679E0,-2.271796478E0,3.215661432E0
8.807676167E0,-2.034371164E0,-1.261281838E0,-1.644986070E0,2.904389278E0
8.817710167E0,-1.557096718E0,-1.407064619E0,-1.455415245E0,2.553940987E0
8.827744167E0,2.162116161E-1,-1.753689902E0,-3.214770514E0,3.668368192E0
8.837778167E0,2.458141394E0,-2.171952932E0,-4.511338253E0,5.577814221E0
8.847813167E0,2.691064937E0,-1.609561883E0,-1.927725551E0,3.680848510E0
8.857847167E0,1.786970499E0,-4.269344509E-1,1.321341806E0,2.263068881E0
8.867881167E0,1.136982605E0,5.996518457E-1,3.303762213E0,3.545018553E0
8.877915167E0,1.309155770E0,1.301954486E0,3.939383498E0,4.350599575E0
8.887949167E0,1.702840468E0,1.799518624E0,4.036558083E0,4.736215165E0
8.897984167E0,2.023770746E0,2.218469287E0,3.981998883E0,4.987340886E0
8.908018167E0,2.185954090E0,2.579632502E0,3.729231936E0,5.033892128E0
8.918052167E0,2.112837874E0,2.912203417E0,3.324410778E0,4.898644674E0
8.928086167E0,1.889027655E0,3.160569749E0,2.928023059E0,4.704353904E0
8.938121167E0,1.582081578E0,3.183746942E0,2.546148421E0,4.372882172E0
8.948155167E0,1.142127278E0,2.829827843E0,2.198417430E0,3.761039688E0
8.958189167E0,6.617216478E-1,2.191596068E0,1.842164707E0,2.938458724E0
8.968223167E0,3.207543867E-1,1.410426768E0,1.541815312E0,2.114091176E0
8.978258167E0,2.148392380E-1,5.979625851E-1,1.535460558E0,1.661732312E0
8.988292167E0,4.111693707E-1,-5.825697899E-2,1.967469953E0,2.010818775E0
8.998326167E0,7.453918686E-1,-4.845716250E-1,2.671623822E0,2.815669111E0
9.008360167E0,1.054812999E0,-5.817710602E-1,3.357713595E0,3.567257856E0
9.018395167E0,9.240968122E-1,-5.256997705E-1,3.840630165E0,3.985066528E0
9.028429167E0,5.621657116E-1,-3.206385022E-1,3.967624673E0,4.020060308E0
9.038463167E0,-3.293932093E-2,1.626519978E-2,3.849957644E0,3.850132909E0
9.048497167E0,-6.751980912E-1,2.479365617E-1,3.803313820E0,3.870731328E0
9.058531167E0,-1.067905865E0,8.363857269E-3,4.065114130E0,4.203051960E0
9.068566167E0,-1.222364964E0,-8.517054319E-1,4.478237457E0,4.719553895E0
9.078600167E0,-1.475942773E0,-2.255031926E0,4.950507125E0,5.636585567E0
9.088634167E0,-1.858609854E0,-4.030022065E0,5.482218418E0,7.053384097E0
9.098668167E0,-2.158162566E0,-5.663269265E0,5.561282714E0,8.225457425E0
9.108703167E0,-2.078506240E0,-6.645652950E0,4.744485160E0,8.425854897E0
9.118737167E0,-1.141479187E0,-6.539503182E0,2.378398528E0,7.051585365E0
9.128771167E0,8.945453498E-1,-5.377226399E0,-2.173563255E0,5.868488080E0
9.138805167E0,2.778286683E0,-3.870965520E0,-5.582647271E0,7.339564122E0
9.148840167E0,3.175581890E0,-2.630661153E0,-5.804286565E0,7.120002877E0
9.158874167E0,2.632857952E0,-1.578058255E0,-4.813773203E0,5.709169931E0
9.168908167E0,1.838297504E0,-5.852899146E-1,-3.668341371E0,4.144711138E0
9.178942167E0,1.136254188E0,2.915743321E-1,-2.901048099E0,3.129244197E0
9.188976167E0,3.526769682E-1,8.484403467E-1,-2.468489504E0,2.633946183E0
9.199011167E0,-5.770967595E-1,1.049426690E0,-2.132858156E0,2.446103219E0
9.209045167E0,-8.993021328E-1,9.904516733E-1,-2.070362822E0,2.464982973E0
9.219079167E0,-6.536447427E-1,5.270697731E-1,-3.053377130E0,3.166727947E0
9.229113167E0,2.154632639E-1,-5.960762733E-1,-4.480392741E0,4.525002813E0
9.239148167E0,1.853963218E0,-1.865474632E0,-6.003923956E0,6.554714188E0
9.249182167E0,2.748358002E0,-3.161188969E0,-6.624636887E0,7.837882450E0
9.259216167E0,2.543638796E0,-3.948893702E0,-5.976288260E0,7.601307859E0
9.269250167E0,2.402741949E0,-3.944637514E0,-5.449110314E0,7.143258164E0
9.279285167E0,2.943726341E0,-3.147362643E0,-4.842591498E0,6.482446204E0
9.289319167E0,3.518521088E0,-2.068335593E0,-4.494745317E0,6.071304492E0
9.299353167E0,3.861394213E0,-1.147546477E0,-4.697744856E0,6.188379022E0
9.309387167E0,4.000171444E0,-5.332344925E-1,-5.044374232E0,6.459986223E0
9.319421167E0,4.075635610E0,-9.807593286E-2,-5.304968262E0,6.690524103E0
9.329456167E0,3.961510532E0,2.919631720E-2,-5.527202802E0,6.800322708E0
9.339490167E0,3.394965036E0,-1.300140095E-1,-5.657558874E0,6.599292663E0
9.349524167E0,2.435672590E0,-3.245502895E-1,-5.906305860E0,6.397052662E0
9.359558167E0,1.174349383E0,-5.323685199E-1,-5.748199487E0,5.891036416E0
9.369593167E0,-6.786812045E-2,-7.049730635E-1,-5.407195718E0,5.453380477E0
9.379627167E0,-7.917097103E-1,-5.686849916E-1,-5.002959573E0,5.097039472E0
9.389661167E0,-1.046274822E0,-3.547634375E-1,-4.663857903E0,4.792923809E0
9.399695167E0,-9.437442608E-1,-1.252228010E-1,-4.400266591E0,4.502075083E0
9.409730167E0,-8.660698481E-1,1.240416634E-1,-4.101567426E0,4.193842948E0
9.419764167E0,-1.006336512E0,3.683073431E-1,-3.796178463E0,3.944532215E0
9.429798167E0,-9.662905397E-1,6.239090198E-1,-3.375679457E0,3.566257376E0
9.439832167E0,-8.630760737E-1,7.751314652E-1,-2.870585859E0,3.096125365E0
9.449866167E0,-7.666059324E-1,8.629402721E-1,-2.348297355E0,2.616648818E0
9.459901167E0,-6.656758274E-1,8.612141740E-1,-1.791929523E0,2.096622421E0
9.469935167E0,-6.417276786E-1,6.850475067E-1,-1.092803090E0,1.440598172E0
9.479969167E0,-6.571409391E-1,3.032044441E-1,-2.379091716E-1,7.618188253E-1
9.490003167E0,-6.036893481E-1,-1.588045299E-1,6.384688792E-1,8.929178111E-1
9.500038167E0,-7.638635883E-1,-6.143090612E-1,1.625126587E0,1.897867126E0
9.510072167E0,-1.050878993E0,-9.344388556E-1,2.494108787E0,2.863232661E0
9.520106167E0,-1.494657664E0,-1.343111867E0,3.294525951E0,3.858996277E0
9.530140167E0,-2.008895868E0,-1.889024878E0,3.878820670E0,4.759130948E0
9.540175167E0,-2.282464138E0,-2.649473984E0,4.367709586E0,5.595198117E0
9.550209167E0,-1.933016989E0,-3.218098750E0,4.528466794E0,5.882153156E0
9.560243167E0,-5.837613063E-1,-3.120060824E0,4.086344200E0,5.174337226E0
9.570277167E0,1.128694031E0,-2.786319880E0,3.337487199E0,4.491809156E0
9.580311167E0,2.115566916E0,-2.910372069E0,3.125748995E0,4.766151040E0
9.590346167E0,1.616015455E0,-2.981264881E0,3.449280407E0,4.837042647E0
9.600380167E0,5.368632746E-1,-2.518034424E0,4.005893822E0,4.761922390E0
9.610414167E0,8.354457870E-2,-1.479481800E0,4.003302628E0,4.268756028E0
9.620448167E0,2.521418061E-1,1.573971051E-1,3.092354377E0,3.106606659E0
9.630483167E0,4.293293242E-1,1.645701184E0,1.934348400E0,2.575725100E0
9.640517167E0,6.767113506E-1,2.580484441E0,1.086444243E0,2.880485948E0
9.650551167E0,9.616311128E-1,2.800078379E0,7.506953663E-1,3.054294822E0
9.660585167E0,1.190000698E0,2.084827664E0,1.013090338E0,2.605563295E0
9.670620167E0,1.222914967E0,5.811945248E-1,1.942871302E0,2.368133651E0
9.680654167E0,1.013331390E0,-9.427033103E-1,3.009242346E0,3.312260487E0
9.690688167E0,8.592514099E-1,-1.789812246E0,3.730157258E0,4.225614042E0
9.700722167E0,9.697048751E-1,-1.536080509E0,3.706029015E0,4.127289902E0
9.710757167E0,1.421668625E0,-4.877577728E-1,2.907414547E0,3.272935788E0
9.720791167E0,1.778327730E0,4.837956995E-1,2.001341704E0,2.720638971E0
9.730825167E0,1.851403015E0,1.101948135E0,1.267792713E0,2.499856232E0
9.740859167E0,1.752902136E0,1.396395205E0,7.433690974E-1,2.361182560E0
9.750893167E0,1.535759497E0,1.467496178E0,6.360566103E-1,2.217356596E0
9.760928167E0,1.177499863E0,1.295298015E0,7.948810208E-1,1.922534450E0
9.770962167E0,7.892144841E-1,8.802831137E-1,9.548620105E-1,1.519710275E0
9.780996167E0,3.232200480E-1,3.911915910E-1,1.152995498E0,1.259722461E0
9.791030167E0,-1.383115008E-1,-5.794824600E-2,1.165100988E0,1.174712043E0
9.801065167E0,-4.996881393E-1,-3.225359237E-1,9.549628749E-1,1.125020778E0
9.811099167E0,-7.539768237E-1,-4.387200987E-1,6.148318022E-1,1.067227492E0
9.821133167E0,-8.397048989E-1,-3.642651629E-1,2.783476380E-1,9.566978801E-1
9.831167167E0,-6.250917654E-1,1.118221521E-1,-1.578157657E-1,6.543315098E-1
9.841201167E0,-2.347896820E-1,8.766455609E-1,-6.308253989E-1,1.105248532E0
9.851236167E0,1.467409931E-1,1.499119674E0,-1.066573650E0,1.845663043E0
9.861270167E0,3.753853977E-1,1.757183613E0,-1.303116328E0,2.219621727E0
9.871304167E0,3.527185200E-1,1.622232800E0,-1.219121952E0,2.059686370E0
9.881338167E0,1.090575886E-1,1.104753045E0,-7.900269547E-1,1.362540068E0
9.891373167E0,-2.353537922E-1,3.300911111E-1,-2.803739905E-2,4.063713140E-1
9.901407167E0,-5.344151916E-1,-4.987201327E-1,9.042148903E-1,1.162723499E0
9.911441167E0,-6.207926001E-1,-1.186174353E0,1.796597647E0,2.240570498E0
9.921475167E0,-4.179813404E-1,-1.555354101E0,2.372530555E0,2.867531345E0
9.931510167E0,2.140646647E-1,-1.375425335E0,2.437850386E0,2.807264333E0
9.941544167E0,1.097643854E0,-6.690957177E-1,2.148463205E0,2.503678344E0
9.951578167E0,1.825661964E0,3.624279678E-2,1.939252168E0,2.663654279E0
9.961612167E0,2.390876194E0,5.401774764E-1,1.972689470E0,3.146360505E0
9.971647167E0,2.830159380E0,8.981995672E-1,2.130974475E0,3.654807354E0
9.981681167E0,3.167030922E0,1.156626034E0,2.376851063E0,4.125201767E0
9.991715167E0,3.357507480E0,1.303176554E0,2.648932532E0,4.470790665E0
1.000174917E1,3.507463419E0,1.338376792E0,2.972545221E0,4.788483806E0
1.001178317E1,3.652985414E0,1.275796382E0,3.272018264E0,5.067352599E0
1.002181817E1,3.808412592E0,1.172884802E0,3.474882149E0,5.287198802E0
1.003185217E1,3.993554735E0,1.057594666E0,3.572603740E0,5.461728974E0
1.004188617E1,4.168226269E0,9.712353837E-1,3.625481865E0,5.609057600E0
1.005192017E1,4.440091684E0,1.006958948E0,3.504502974E0,5.745426144E0
1.006195517E1,4.754110261E0,1.132897448E0,3.262440817E0,5.876099139E0
1.007198917E1,4.964511791E0,1.245131244E0,2.973352136E0,5.919252661E0
1.008202317E1,5.074289172E0,1.285740741E0,2.747144705E0,5.911712433E0
1.009205717E1,5.017260693E0,1.280402234E0,2.546880493E0,5.770522939E0
1.010209217E1,4.924188223E0,1.224245574E0,2.371457591E0,5.600912246E0
1.011212617E1,4.801001715E0,1.166405502E0,2.246494699E0,5.427417221E0
1.012216017E1,4.696929755E0,1.152048249E0,2.053611134E0,5.254111055E0
1.013219417E1,4.588116580E0,1.170658767E0,1.811152829E0,5.069667668E0
1.014222817E1,4.498679908E0,1.160781650E0,1.520378104E0,4.888464435E0
1.015226317E1,4.391602771E0,1.109035546E0,1.204389015E0,4.686863305E0
1.016229717E1,4.277050262E0,9.519571137E-1,9.692563936E-1,4.487631808E0
1.017233117E1,4.088074976E0,7.826270109E-1,8.118607503E-1,4.240752283E0
1.018236517E1,3.797516013E0,6.742681646E-1,7.131846008E-1,3.922294954E0
1.019240017E1,3.387455165E0,6.268595248E-1,7.455758366E-1,3.524725335E0
1.020243417E1,2.883881843E0,4.859445512E-1,9.863820112E-1,3.086400179E0
1.021246817E1,2.446239386E0,-1.122665405E-3,1.563715912E0,2.903324964E0
1.022250217E1,2.062967849E0,-9.186718386E-1,2.514940077E0,3.380047024E0
1.023253717E1,1.710831858E0,-2.184602798E0,3.653983533E0,4.588140222E0
1.024257117E1,1.368030800E0,-3.456141238E0,4.540769336E0,5.868134856E0
1.025260517E1,1.071634708E0,-4.323607255E0,4.688568236E0,6.467198214E0
1.026263917E1,8.982040988E-1,-4.353858994E0,4.004425001E0,5.983166247E0
1.027267317E1,8.070845984E-1,-3.628370975E0,2.651942094E0,4.566098811E0
1.028270817E1,6.694257930E-1,-2.437756830E0,1.112848515E0,2.762104465E0
1.029274217E1,4.693485452E-1,-1.131800510E0,-3.429649258E-1,1.272354272E0
1.030277617E1,4.058027597E-1,1.027841109E-1,-1.468755083E0,1.527246525E0
1.031281017E1,2.553429374E-1,1.116015367E0,-2.214087383E0,2.492563591E0
1.032284517E1,4.875379175E-2,1.819868689E0,-2.720036136E0,3.273055997E0
1.033287917E1,-7.462976754E-2,2.250744748E0,-2.934803782E0,3.699255974E0
1.034291317E1,-5.127147125E-1,1.942492402E0,-2.803730550E0,3.449211229E0
1.035294717E1,-1.464284448E0,3.565444994E-1,-2.319780484E0,2.766339534E0
1.036298217E1,-2.387649701E0,-1.867543377E0,-1.693368271E0,3.472187417E0
1.037301617E1,-3.259974754E0,-4.154869475E0,-8.188265383E-1,5.344235460E0
1.038305017E1,-3.362249865E0,-5.801378744E0,3.824079037E-4,6.705275508E0
1.039308417E1,-2.384922998E0,-6.224984960E0,2.279127717E-2,6.666244437E0
1.040311817E1,-6.579725593E-1,-5.457881722E0,-6.560657823E-1,5.536408862E0
1.041315317E1,4.785307203E-1,-4.261747806E0,-1.928231628E0,4.702080733E0
1.042318717E1,1.526614451E0,-3.092109379E0,-3.039281539E0,4.596620973E0
1.043322117E1,2.961432880E0,-1.988780131E0,-3.603685784E0,5.070688547E0
1.044325517E1,4.378062959E0,-1.047214104E0,-4.233205208E0,6.179329978E0
1.045329017E1,5.144969730E0,-4.812042135E-1,-5.039405268E0,7.217885873E0
1.046332417E1,5.701704183E0,-4.261456615E-1,-5.214511836E0,7.738356699E0
1.047335817E1,6.269964666E0,-6.004225087E-1,-5.920888231E0,8.644644674E0
1.048339217E1,6.570189369E0,-5.419667244E-1,-7.387665786E0,9.901450502E0
1.049342617E1,5.386976631E0,-2.684982955E-1,-7.391626105E0,9.150286609E0
1.050346117E1,3.237985422E0,-2.694163084E-1,-6.106394071E0,6.917021273E0
1.051349517E1,1.566256819E0,-5.484284824E-1,-4.772548871E0,5.052836525E0
1.052352917E1,3.187732039E-1,-8.027478647E-1,-3.707603670E0,3.806881331E0
1.053356317E1,-5.196785636E-1,-1.027428296E0,-2.916306993E0,3.135366197E0
1.054359817E1,-9.055414043E-1,-9.950961167E-1,-2.555599861E0,2.888132989E0
1.055363217E1,-7.953937485E-1,-6.564084291E-1,-2.378396482E0,2.592352805E0
1.056366617E1,-3.582719862E-1,-2.905189097E-1,-2.223472164E0,2.270812304E0
1.057370017E1,9.018690605E-2,-1.110351169E-1,-2.003533825E0,2.008633930E0
1.058373517E1,4.581665127E-1,-1.327224398E-1,-1.702151958E0,1.767725400E0
1.059376917E1,8.031209171E-1,-2.695385152E-1,-1.310943995E0,1.560842201E0
1.060380317E1,1.080080061E0,-4.680678588E-1,-8.785131615E-1,1.468824643E0
1.061383717E1,1.183164353E0,-6.518768370E-1,-4.825227606E-1,1.434450944E0
1.062387217E1,1.290343231E0,-7.805009633E-1,-9.582826316E-2,1.511075929E0
1.063390617E1,1.603520101E0,-8.583835369E-1,2.323484695E-1,1.833598872E0
1.064394017E1,2.274639833E0,-8.470101178E-1,6.042384017E-1,2.501302971E0
1.065397417E1,2.767471673E0,-7.868305743E-1,9.900640029E-1,3.042733729E0
1.066400817E1,3.348191696E0,-7.744140118E-1,1.367257360E0,3.698580455E0
1.067404317E1,4.323012885E0,-6.752206761E-1,1.600434380E0,4.658943396E0
1.068407717E1,5.622824659E0,-4.278021777E-1,1.515519944E0,5.839175674E0
1.069411117E1,6.859460483E0,-1.715497059E-1,1.362784240E0,6.995627799E0
1.070414517E1,7.528921652E0,1.455255032E-2,1.634162874E0,7.704243072E0
1.071418017E1,7.861790190E0,2.233829337E-1,2.531207031E0,8.262242672E0
1.072421417E1,7.829442809E0,3.693645197E-1,3.403697853E0,8.545277287E0
1.073424804E1,7.520764201E0,3.586559290E-1,4.245781691E0,8.643910597E0
1.074428204E1,6.020043560E0,-3.653539145E-1,4.878975213E0,7.757500053E0
1.075431604E1,3.816230027E0,-1.262675230E0,5.475359049E0,6.792460311E0
1.076435104E1,2.035277190E0,-1.672289059E0,5.768150772E0,6.341172389E0
1.077438504E1,1.047340550E0,-1.353896472E0,5.715201311E0,5.966027481E0
1.078441904E1,7.116374275E-1,-5.762553817E-1,5.249795689E0,5.329057409E0
1.079445304E1,7.581165062E-1,7.956364810E-2,4.695645121E0,4.757116155E0
1.080448804E1,7.804224645E-1,-9.743858635E-2,4.372177736E0,4.442352041E0
1.081452204E1,5.284507392E-1,-1.030451891E0,4.298203442E0,4.451476621E0
1.082455604E1,1.508306088E-1,-2.137939678E0,3.862668906E0,4.417436702E0
1.083459004E1,-3.729463413E-1,-3.046657802E0,3.098756493E0,4.361594266E0
1.084462504E1,-5.192177664E-1,-3.223333762E0,2.520379157E0,4.124533758E0
1.085465904E1,-5.642548121E-1,-2.739733359E0,1.824948019E0,3.339903837E0
1.086469304E1,-5.991260348E-1,-1.844342210E0,1.048568173E0,2.204551067E0
1.087472704E1,-7.747122198E-1,-9.381851667E-1,3.757831545E-1,1.273414076E0
1.088476104E1,-1.130227902E0,-2.213340694E-1,-9.975262195E-2,1.156007987E0
1.089479604E1,-1.613792636E0,2.457894641E-1,-7.225799069E-1,1.785178102E0
1.090483004E1,-1.942036758E0,5.885912526E-1,-1.160959990E0,2.337899598E0
1.091486404E1,-2.450599363E0,7.109734762E-1,-1.543942090E0,2.982394625E0
1.092489804E1,-2.977378237E0,5.490096956E-1,-1.984908397E0,3.620228467E0
1.093493304E1,-3.396041801E0,2.002764916E-1,-2.311469544E0,4.112918920E0
1.094496704E1,-5.369666533E0,-7.790040761E-1,-6.617198644E0,8.557305880E0
1.095500104E1,-1.332897834E1,-5.441455139E0,-3.232432029E1,3.538548827E1
1.096503504E1,-1.120108886E1,-4.947166611E0,-2.409976943E1,2.703216113E1
1.097507004E1,-4.717273387E0,-1.738311725E0,-7.836569395E0,9.310543257E0
1.098510404E1,-7.717041197E-1,3.172570574E-1,-1.579544909E0,1.786376615E0
1.099513804E1,2.728237733E-2,1.799891092E0,1.014903560E0,2.066490142E0
1.100517204E1,-2.301592720E-1,2.592826159E0,1.794132169E0,3.161428636E0
1.101520704E1,-7.444221810E-2,2.988344105E0,2.666525050E0,4.005758102E0
1.102524104E1,1.630186182E-1,3.135581673E0,3.448343391E0,4.663638026E0
1.103527504E1,3.570149079E-1,2.947331150E0,4.004824074E0,4.985261920E0
1.104530904E1,2.702524602E-1,2.504978760E0,4.527393830E0,5.181240187E0
1.105534304E1,7.952505648E-3,1.983081434E0,5.102370425E0,5.474199410E0
1.106537804E1,-2.162509386E-1,1.413521115E0,5.574371122E0,5.754860538E0
1.107541204E1,-4.407547836E-1,8.627572542E-1,5.662919016E0,5.745195092E0
1.108544604E1,-3.556413969E-1,5.050748867E-1,5.172676177E0,5.209429938E0
1.109548004E1,1.192908007E-1,3.809086776E-1,4.248570521E0,4.267279366E0
1.110551504E1,5.301285247E-1,2.512057400E-1,3.366304032E0,3.417037227E0
1.111554904E1,8.164045485E-1,-4.753786325E-2,2.806556509E0,2.923274820E0
1.112558304E1,1.023019422E0,-5.519227785E-1,2.224195611E0,2.509628181E0
1.113561704E1,1.094988341E0,-1.042200117E0,1.742805310E0,2.307065430E0
1.114565104E1,1.057251727E0,-1.398291457E0,1.458825341E0,2.280607723E0
1.115568604E1,8.646673203E-1,-1.621176208E0,1.014967733E0,2.099052493E0
1.116572004E1,4.951834809E-1,-1.918305395E0,7.577339521E-1,2.121146626E0
1.117575404E1,-5.172666237E-3,-2.224241658E0,4.821046847E-1,2.275896007E0
1.118578804E1,-3.000922270E-1,-2.452325168E0,-1.200059152E-1,2.473530977E0
1.119582304E1,-1.676025064E-1,-2.499554299E0,-1.212046236E0,2.782969344E0
1.120585704E1,1.278640468E0,-2.808318860E0,-7.207820635E0,7.840551930E0
1.121589104E1,3.349590643E0,-2.438032234E0,-1.116910459E1,1.191270985E1
1.122592504E1,3.671121138E0,-5.848414332E-1,-6.103542384E0,7.146495613E0
1.123596004E1,2.605180156E0,8.119069433E-1,-1.478426962E0,3.103530701E0
1.124599404E1,1.962975783E0,1.707757684E0,1.197529061E0,2.864225216E0
1.125602804E1,2.247740156E0,2.466201196E0,2.402540220E0,4.111773784E0
1.126606204E1,2.707634484E0,3.103719025E0,3.317993751E0,5.288992231E0
1.127609604E1,2.869019390E0,3.620508224E0,4.180362166E0,6.230150873E0
1.128613104E1,2.856194692E0,3.962613024E0,4.824205513E0,6.865355703E0
1.129616504E1,2.881527462E0,3.969202251E0,5.203273487E0,7.150651859E0
1.130619904E1,2.828836740E0,3.475534113E0,5.415619217E0,7.029266403E0
1.131623304E1,2.565433415E0,2.547448257E0,5.436741698E0,6.529096532E0
1.132626804E1,2.056381837E0,1.494996802E0,5.148395029E0,5.741924162E0
1.133630204E1,1.442907028E0,5.259740049E-1,4.758223193E0,4.999931729E0
1.134633604E1,8.600108171E-1,-2.853727752E-1,4.275620910E0,4.370582386E0
1.135637004E1,3.250383127E-1,-9.762628198E-1,3.483472001E0,3.632260478E0
1.136640504E1,-2.670655084E-1,-1.612983674E0,2.404255793E0,2.907487960E0
1.137643904E1,-6.040779687E-1,-2.068917391E0,9.835388026E-1,2.369109102E0
1.138647304E1,-6.659896036E-1,-2.374216892E0,-6.996301702E-1,2.563187542E0
1.139650704E1,-1.740952547E-1,-2.129264749E0,-1.116462971E0,2.410511791E0
1.140654104E1,5.486104770E-1,-1.139315352E0,8.413555679E-1,1.518845653E0
1.141657604E1,1.060581789E0,-1.660082996E-2,2.513094696E0,2.727774600E0
1.142661004E1,1.193249192E0,9.125451261E-1,3.357794579E0,3.678500601E0
1.143664404E1,9.645005608E-1,1.393843480E0,3.939296959E0,4.288487089E0
1.144667804E1,3.574385752E-1,1.324317162E0,4.500570313E0,4.704966676E0
1.145671304E1,-3.759150823E-1,7.328876710E-1,5.257221068E0,5.321354137E0
1.146674704E1,-1.067099680E0,-3.821517956E-1,6.127507197E0,6.231459394E0
1.147678104E1,-1.907158117E0,-1.759133660E0,6.920656857E0,7.391027984E0
1.148681504E1,-2.789084444E0,-3.066336021E0,7.283477758E0,8.380361382E0
1.149685004E1,-3.403117809E0,-3.804740540E0,6.879863757E0,8.566783919E0
1.150688404E1,-3.716361338E0,-3.540942822E0,5.672468104E0,7.650262221E0
1.151691804E1,-3.461392622E0,-2.307811233E0,3.942919602E0,5.731827506E0
1.152695204E1,-2.753979808E0,-6.491590512E-1,2.291906222E0,3.641242423E0
1.153698604E1,-2.094758868E0,8.637869489E-1,1.068736535E0,2.505262539E0
1.154702104E1,-1.524523633E0,2.097120851E0,1.628810625E-1,2.597810311E0
1.155705504E1,-1.009412147E0,2.953226897E0,-5.556521326E-1,3.170049098E0
1.156708904E1,-6.767356896E-1,3.353464715E0,-1.211105419E0,3.629114648E0
1.157712304E1,-6.669850190E-1,3.368532405E0,-1.694060581E0,3.829062658E0
1.158715804E1,-8.323533408E-1,2.955884457E0,-2.270903023E0,3.819301709E0
1.159719204E1,6.578326647E-1,2.227125505E0,-3.754569091E0,4.414705074E0
1.160722604E1,3.939385545E0,8.099393553E-1,-8.176753970E0,9.112302986E0
1.161726004E1,2.779105878E0,-1.134034731E0,-7.683372930E0,8.248859547E0
1.162729504E1,-1.028451705E0,-3.130153118E0,-4.663444212E0,5.709928491E0
1.163732904E1,-3.785677448E0,-5.392532070E0,-3.291405877E0,7.365059980E0
1.164736304E1,-5.326926895E0,-7.473784747E0,-2.878795350E0,9.618787411E0
1.165739704E1,-5.342789807E0,-8.513937753E0,-2.955291549E0,1.047694073E1
1.166743104E1,-3.429725564E0,-7.551121776E0,-3.281506541E0,8.919122305E0
1.167746604E1,-1.145656365E0,-5.503681793E0,-3.856545117E0,6.817329537E0
1.168750004E1,7.963783465E-2,-3.714204007E0,-4.292296000E0,5.676747180E0
1.169753404E1,4.436004042E-1,-2.464853413E0,-4.388192675E0,5.052575444E0
1.170756804E1,1.251988712E0,-1.612039348E0,-4.517308552E0,4.957037740E0
1.171760304E1,2.395309846E0,-1.085498748E0,-5.068561825E0,5.710178260E0
1.172763704E1,2.597365645E0,-1.100961125E0,-5.440127821E0,6.128084073E0
1.173767221E1,1.771930583E0,-1.291566907E0,-5.039805803E0,5.496137334E0
1.174770621E1,8.987501556E-1,-1.183382308E0,-4.191775931E0,4.447373492E0
1.175774021E1,2.591785647E-1,-9.691292167E-1,-3.426265474E0,3.570109251E0
1.176777521E1,1.075773294E-1,-5.983157569E-1,-2.961856803E0,3.023598906E0
1.177780921E1,2.677632640E-1,-1.156053007E-1,-2.980551521E0,2.994786990E0
1.178784321E1,3.323953526E-1,3.542564839E-1,-3.190434403E0,3.227205603E0
1.179787721E1,2.005695285E-1,7.447832465E-1,-3.324131573E0,3.412445009E0
1.180791221E1,-1.203420022E-1,1.040958168E0,-3.227233270E0,3.393097506E0
1.181794621E1,-4.116736566E-1,1.365791463E0,-2.908774025E0,3.239726508E0
1.182798021E1,-6.342629769E-1,1.596107440E0,-2.597357166E0,3.113858175E0
1.183801421E1,-7.387447538E-1,1.738960181E0,-2.313791181E0,2.987198679E0
1.184804921E1,-7.295038873E-1,1.775198885E0,-2.032162963E0,2.795208992E0
1.185808321E1,-7.324202592E-1,1.671700244E0,-1.855944255E0,2.602988709E0
1.186811721E1,-6.789697646E-1,1.514390847E0,-1.688471813E0,2.367554992E0
1.187815121E1,-5.376091235E-1,1.359406303E0,-1.572322136E0,2.146906138E0
1.188818521E1,-2.888220477E-1,1.283139900E0,-1.390056823E0,1.913667722E0
1.189822021E1,4.833666600E-2,1.287472687E0,-1.198151205E0,1.759400086E0
1.190825421E1,4.215542450E-1,1.335014643E0,-9.605519360E-1,1.697831588E0
1.191828821E1,7.724640385E-1,1.367822201E0,-7.059413624E-1,1.722205409E0
1.192832221E1,1.065843041E0,1.238532076E0,-4.116907597E-1,1.685073403E0
1.193835721E1,1.364647163E0,9.123387194E-1,3.829721600E-2,1.641977617E0
1.194839121E1,1.603797113E0,3.361061418E-1,7.551772571E-1,1.804279693E0
1.195842521E1,1.939439571E0,-4.691782451E-1,1.741472729E0,2.648448856E0
1.196845921E1,2.375677088E0,-1.397209137E0,2.815706232E0,3.940080784E0
1.197849421E1,2.560371773E0,-2.278056507E0,3.577925876E0,4.954452406E0
1.198852821E1,2.793538561E0,-2.879387088E0,4.047002379E0,5.698504712E0
1.199856221E1,3.444732150E0,-2.956438188E0,4.359497464E0,6.293800481E0
1.200859621E1,4.476406402E0,-2.215950306E0,4.231970276E0,6.546619162E0
1.201863021E1,5.725781847E0,-6.441333693E-1,3.525697376E0,6.755000189E0
1.202866521E1,7.202251162E0,9.171848917E-1,2.596124281E0,7.710610301E0
1.203869921E1,8.423104767E0,1.315448690E0,1.690558684E0,8.691207501E0
1.204873321E1,8.203649408E0,5.137667727E-1,1.363815688E0,8.332095363E0
1.205876721E1,7.722193179E0,-1.021817892E0,2.571109892E0,8.202864462E0
1.206880221E1,6.773728023E0,-3.191757043E0,4.289989858E0,8.629873540E0
1.207883621E1,4.973294309E0,-5.084673243E0,5.552525339E0,9.023197655E0
1.208887021E1,3.038514385E0,-5.633938462E0,5.752739850E0,8.606267951E0
1.209890421E1,1.775043787E0,-4.428081796E0,4.846421717E0,6.800477357E0
1.210893921E1,5.692277594E-1,-3.005937207E0,3.629041358E0,4.746537676E0
1.211897321E1,7.628526047E-2,-1.758446612E0,2.465254532E0,3.029097858E0
1.212900721E1,-1.888744211E-1,-7.897804946E-1,1.175644103E0,1.428833732E0
1.213904121E1,-4.989663736E-1,-2.429722756E-1,3.279989773E-1,6.446598311E-1
1.214907521E1,-8.553024928E-1,-2.769767582E-2,-7.970836669E-2,8.594550245E-1
1.215911021E1,-1.206370125E0,-1.482386112E-2,-3.582513016E-1,1.258527957E0
1.216914421E1,-1.697913166E0,-2.260334766E-1,-8.088406634E-1,1.894260666E0
1.217917821E1,-2.386215671E0,-7.385150313E-1,-1.612305104E0,2.973038417E0
1.218921221E1,-3.193296907E0,-1.509978538E0,-2.488081477E0,4.320616826E0
1.219924721E1,-9.944343288E0,-4.645190667E0,-1.792367596E1,2.101727670E1
1.220928121E1,-1.940278763E1,-8.929163740E0,-3.564014297E1,4.155018561E1
1.221931521E1,-1.275990977E1,-5.712054924E0,-1.935386398E1,2.387498523E1
1.222934921E1,-4.414562448E0,-2.356242551E0,-9.634534414E0,1.085654153E1
1.223938421E1,1.988053322E-5,5.321258605E-2,-3.129450282E0,3.129902658E0
1.224941821E1,1.232096631E0,2.055106267E0,-7.540671632E-1,2.511999436E0
1.225945221E1,1.792490271E-1,3.158837804E0,-7.320860177E-3,3.163927951E0
1.226948621E1,-9.863054127E-1,3.633332922E0,2.520348752E0,4.530569977E0
1.227952021E1,-1.565825587E0,4.019622207E0,7.294155359E0,8.474306748E0
1.228955521E1,-2.134747391E0,4.680785592E0,8.749078853E0,1.014954585E1
1.229958921E1,-2.135809830E0,5.029535753E0,8.553462008E0,1.014985841E1
1.230962321E1,-1.444444992E0,5.227387404E0,8.476355360E0,1.006283263E1
1.231965721E1,-7.690984543E-1,4.958905481E0,6.585425459E0,8.279497840E0
1.232969221E1,-1.817554361E-1,4.221200874E0,4.502667709E0,6.174592161E0
1.233972621E1,1.190162739E-1,3.180443265E0,3.111249070E0,4.450758925E0
1.234976021E1,1.120459543E-1,1.910911006E0,2.227134129E0,2.936709314E0
1.235979421E1,-8.932338193E-2,6.287475908E-1,1.613518109E0,1.733996219E0
1.236982821E1,-4.620148212E-1,-4.894616514E-1,1.128389098E0,1.313884455E0
1.237986321E1,-1.067960098E0,-1.377547290E0,6.595276263E-1,1.863639449E0
1.238989721E1,-1.741027756E0,-1.929709804E0,1.436362678E-1,2.602996149E0
1.239993121E1,-2.153629951E0,-2.085040503E0,-3.900227326E-1,3.022851898E0
1.240996521E1,-2.335093318E0,-2.067574285E0,-7.533163807E-1,3.208583769E0
1.242000021E1,-2.418141468E0,-1.871940483E0,-1.692444411E-1,3.062713342E0
1.243003421E1,-2.191803790E0,-1.645616984E0,7.320830941E-1,2.836900557E0
1.244006821E1,-1.694187174E0,-1.474994062E0,1.463498436E0,2.680989619E0
1.245010221E1,-5.335701958E-1,-1.286002697E0,8.751732320E-1,1.644514602E0
1.246013721E1,2.308721645E0,-9.893716925E-1,-2.737264372E0,3.715059653E0
1.247017121E1,4.724713385E0,-2.644268793E-1,-5.077987536E0,6.941094694E0
1.248020521E1,4.815692844E0,7.979227424E-1,-2.840401363E0,5.647606411E0
1.249023921E1,3.941689640E0,1.583604339E0,3.462940380E-2,4.248048860E0
1.250027321E1,3.515191391E0,2.171281672E0,1.910233313E0,4.551925519E0
1.251030821E1,3.747960276E0,2.689023966E0,2.930691728E0,5.465071832E0
1.252034221E1,3.862260185E0,3.163405648E0,3.456228946E0,6.072043113E0
1.253037621E1,3.606405617E0,3.566275299E0,3.871663678E0,6.380772728E0
1.254041021E1,3.176575625E0,3.708613485E0,4.203185602E0,6.442919826E0
1.255044521E1,2.643785520E0,3.524422683E0,4.409476540E0,6.233349059E0
1.256047921E1,2.045054027E0,2.918051802E0,4.572287582E0,5.796816887E0
1.257051321E1,1.610994013E0,2.127346863E0,4.639285564E0,5.351997471E0
1.258054721E1,1.243029609E0,1.300445319E0,4.630667353E0,4.967832603E0
1.259058221E1,8.924241261E-1,5.284432840E-1,4.509453403E0,4.627185226E0
1.260061621E1,4.647185737E-1,-1.216027898E-1,4.308467644E0,4.335163668E0
1.261065021E1,4.446880594E-2,-7.087415940E-1,4.034509218E0,4.096529843E0
1.262068421E1,-2.590241617E-1,-1.317200516E0,3.794150648E0,4.024635369E0
1.263071821E1,-4.449314863E-1,-2.013874041E0,3.699753199E0,4.235779316E0
1.264075321E1,-5.574712380E-1,-2.762414124E0,3.873435384E0,4.790115619E0
1.265078721E1,-6.355174971E-1,-3.530433036E0,4.431571414E0,5.701461664E0
1.266082121E1,-7.757858417E-1,-4.315569087E0,5.254034920E0,6.843307911E0
1.267085521E1,-1.130165190E0,-5.099496519E0,6.123439874E0,8.048518745E0
1.268089021E1,-1.659254153E0,-5.766566176E0,6.590968620E0,8.913320209E0
1.269092421E1,-1.949609633E0,-5.659315377E0,6.110926833E0,8.554078268E0
1.270095821E1,-1.658748369E0,-4.353906357E0,4.610709051E0,6.554890134E0
1.271099221E1,-1.427964322E0,-2.628921021E0,2.845893360E0,4.129093951E0
1.272102721E1,-1.188985037E0,-1.020951920E0,1.273692846E0,2.019485505E0
1.273106058E1,-7.053862423E-1,4.072445369E-1,2.693397099E-1,8.578821265E-1
1.274109458E1,-2.809512569E-1,1.492226391E0,-6.416693527E-1,1.648457694E0
1.275112858E1,-2.228954952E-1,2.179836148E0,-1.573651208E0,2.697729816E0
1.276116258E1,9.592313424E-2,2.420046199E0,-2.371062904E0,3.389360433E0
1.277119758E1,1.131696576E0,2.466543843E0,-3.206953372E0,4.201086240E0
1.278123158E1,3.227056392E0,2.460624706E0,-5.756731160E0,7.043331637E0
1.279126558E1,3.904629695E0,1.704521835E0,-6.825662992E0,8.046191833E0
1.280129958E1,1.965713157E0,3.986888909E-1,-4.914065523E0,5.307637988E0
1.281133458E1,-1.614458634E-1,-1.131710463E0,-3.918027128E0,4.081393134E0
1.282136858E1,-2.480190367E0,-2.983946414E0,-3.751177121E0,5.396907471E0
1.283140258E1,-3.456803435E0,-4.271123232E0,-4.202497385E0,6.917583965E0
1.284143658E1,-3.341608316E0,-4.855831933E0,-4.785503377E0,7.592528727E0
1.285147058E1,-2.484602968E0,-4.870489733E0,-5.060592070E0,7.450135183E0
1.286150558E1,-1.074758510E0,-4.171785470E0,-5.125968618E0,6.695853503E0
1.287153958E1,3.506670244E-2,-3.300712305E0,-5.166755871E0,6.131174245E0
1.288157358E1,7.320512268E-1,-2.520242917E0,-5.247029371E0,5.866757246E0
1.289160758E1,1.092730512E0,-1.924739671E0,-5.195295546E0,5.647103557E0
1.290164258E1,1.170482035E0,-1.471449480E0,-5.018267584E0,5.358936584E0
1.291167658E1,1.352623825E0,-1.158744480E0,-4.918929822E0,5.231457787E0
1.292171058E1,1.674759215E0,-1.002930801E0,-4.788932769E0,5.171514835E0
1.293174458E1,1.935214227E0,-1.022048857E0,-4.633873381E0,5.124687354E0
1.294177958E1,1.636909018E0,-1.245474476E0,-4.485457014E0,4.934572163E0
1.295181358E1,8.692281485E-1,-1.496149288E0,-4.275312177E0,4.612191939E0
1.296184758E1,9.902587700E-2,-1.595336192E0,-3.897091464E0,4.212152131E0
1.297188158E1,-5.796789996E-1,-1.547034683E0,-3.484920648E0,3.856684584E0
1.298191558E1,-1.061475755E0,-1.305385047E0,-3.261466379E0,3.669867006E0
1.299195058E1,-1.089057218E0,-8.136622775E-1,-3.286521113E0,3.556587262E0
1.300198458E1,-8.478138176E-1,-1.492846781E-1,-3.562604417E0,3.665136343E0
1.301201858E1,-7.040320272E-1,5.164640933E-1,-3.872420892E0,3.969639760E0
1.302205258E1,-8.868016628E-1,1.026197457E0,-3.783972985E0,4.019695257E0
1.303208758E1,-1.154884587E0,1.378334910E0,-3.313511276E0,3.770002985E0
1.304212158E1,-1.327763511E0,1.610420839E0,-2.757804179E0,3.458597275E0
1.305215558E1,-1.400482408E0,1.750580353E0,-2.221820911E0,3.156322339E0
1.306218958E1,-1.336354679E0,1.813073055E0,-1.729643812E0,2.839849546E0
1.307222458E1,-1.137894771E0,1.772870523E0,-1.277494998E0,2.463710184E0
1.308225858E1,-9.521437130E-1,1.631943271E0,-1.008498520E0,2.141701602E0
1.309229258E1,-7.205163514E-1,1.422624645E0,-9.502327698E-1,1.856326213E0
1.310232658E1,-2.178127299E-1,1.264228835E0,-8.215454936E-1,1.523369269E0
1.311236058E1,2.781299023E-1,1.060338764E0,-7.305300736E-1,1.317326355E0
1.312239558E1,6.601550326E-1,7.295378011E-1,-5.907512140E-1,1.147613640E0
1.313242958E1,7.959177321E-1,2.595298362E-1,-2.673539954E-1,8.788167790E-1
1.314246358E1,8.944502594E-1,-2.839086324E-1,3.145492119E-1,9.897406654E-1
1.315249758E1,9.489104220E-1,-7.594229203E-1,1.083639334E0,1.628320720E0
1.316253258E1,1.020491963E0,-1.039336150E0,1.971516811E0,2.451224595E0
1.317256658E1,9.687989952E-1,-1.262194589E0,2.655659169E0,3.095841129E0
1.318260058E1,1.092713335E0,-1.504423099E0,2.948042756E0,3.485436469E0
1.319263458E1,1.554511225E0,-1.893130208E0,3.211468007E0,4.039056064E0
1.320266858E1,2.353731757E0,-2.298867332E0,3.493849347E0,4.799148617E0
1.321270358E1,3.580773470E0,-2.362710156E0,3.290404834E0,5.406579500E0
1.322273758E1,5.309243746E0,-1.744934281E0,2.553997723E0,6.144572334E0
1.323277158E1,7.246549083E0,-1.007217395E0,2.007533906E0,7.586643057E0
1.324280558E1,8.728105475E0,-1.255113611E0,2.418289111E0,9.143481699E0
1.325284058E1,9.352351295E0,-2.897737990E0,3.206464545E0,1.030265864E1
1.326287458E1,8.157108495E0,-4.761269592E0,5.044494100E0,1.070770880E1
1.327290858E1,5.086252576E0,-5.101906157E0,5.715619386E0,9.196070719E0
1.328294258E1,2.513003772E0,-3.624684890E0,4.434849363E0,6.254711614E0
1.329297758E1,1.303682630E0,-1.312502278E0,2.520487915E0,3.126517226E0
1.330301158E1,5.368835206E-1,3.007146996E-1,1.333505477E0,1.468642265E0
1.331304558E1,-2.070303181E-1,9.072516418E-1,5.130423027E-1,1.062628580E0
1.332307958E1,-7.733390012E-1,9.637410074E-1,-2.811341286E-3,1.235660894E0
1.333311358E1,-1.248058360E0,7.488733739E-1,-3.289813095E-1,1.492209671E0
1.334314858E1,-1.885207523E0,2.253885287E-1,-7.106828696E-1,2.027283289E0
1.335318258E1,-2.335301772E0,-4.735350055E-1,-1.167239607E0,2.653359770E0
1.336321658E1,-2.452699098E0,-1.358616929E0,-1.578458204E0,3.217623832E0
1.337325058E1,-2.629228585E0,-2.334109086E0,-1.967799736E0,4.029037599E0
1.338328558E1,-2.525803034E0,-3.132924698E0,-2.537602131E0,4.757554278E0
1.339331958E1,-2.680652215E0,-3.963318198E0,-2.952742163E0,5.622497107E0
1.340335358E1,-5.612515433E0,-5.473165759E0,-9.333163072E0,1.218867531E1
1.341338758E1,-1.193748018E1,-8.224423980E0,-2.752091683E1,3.110539256E1
1.342342258E1,-9.432894936E0,-5.243490052E0,-1.779904841E1,2.081537458E1
1.343345658E1,-3.894094766E0,-8.343333542E-1,-7.408334523E0,8.410915920E0
1.344349058E1,-8.365589507E-1,1.914338644E0,-4.373779873E0,4.847109830E0
1.345352458E1,-9.847898144E-1,3.044061638E0,-2.437366236E0,4.022048782E0
1.346355858E1,-2.194602999E0,2.734893034E0,-1.349177476E0,3.757153456E0
1.347359358E1,-3.113055274E0,2.416967640E0,5.104326904E-2,3.941503664E0
1.348362758E1,-3.843142422E0,1.908815948E0,2.141260897E0,4.795656392E0
1.349366158E1,-4.385611129E0,1.528728805E0,4.237090098E0,6.286774152E0
1.350369558E1,-4.211340422E0,1.452377617E0,4.885654487E0,6.611687278E0
1.351373058E1,-3.236242952E0,1.289333856E0,3.738351254E0,5.109884571E0
1.352376458E1,-1.920105314E0,9.306855279E-1,1.857545807E0,2.829038069E0
1.353379858E1,-1.075406747E0,4.680292672E-1,3.505236214E-1,1.224098801E0
1.354383258E1,-9.195866355E-1,-4.420144200E-2,-5.128557765E-1,1.053856914E0
1.355386658E1,-1.276860429E0,-5.063858324E-1,-6.838991135E-1,1.534443601E0
1.356390158E1,-2.006440622E0,-7.986817110E-1,-1.227751565E-1,2.163046506E0
1.357393558E1,-2.900213116E0,-9.147998124E-1,8.248702204E-1,3.150953141E0
1.358396958E1,-3.550486355E0,-8.747972560E-1,1.502259629E0,3.953227490E0
1.359400358E1,-3.724887163E0,-6.163854074E-1,1.817854908E0,4.190383253E0
1.360403858E1,-3.478690732E0,-1.143048799E-1,1.491021280E0,3.786489043E0
1.361407258E1,-2.933684333E0,5.580027133E-1,1.101265765E0,3.182869316E0
1.362410658E1,-2.392209798E0,1.214961950E0,9.689850828E-1,2.852671090E0
1.363414058E1,-1.785100413E0,1.738053862E0,1.298418674E0,2.809502762E0
1.364417558E1,-1.153571229E0,2.131946282E0,1.806262510E0,3.022996161E0
1.365420958E1,-3.802066097E-1,2.305361250E0,2.256651020E0,3.248341328E0
1.366424358E1,7.691168730E-1,2.385990846E0,2.940329109E0,3.863939486E0
1.367427758E1,2.100726244E0,2.354811153E0,4.008700778E0,5.101751488E0
1.368431158E1,3.190917968E0,2.055928971E0,5.113308227E0,6.368258980E0
1.369434658E1,4.275958879E0,1.688408663E0,5.925065482E0,7.499396583E0
1.370438058E1,5.324995560E0,1.355702092E0,6.430959563E0,8.458767450E0
1.371441458E1,6.180228617E0,1.097914726E0,6.804286741E0,9.257373308E0
1.372444858E1,6.815174841E0,9.106617379E-1,6.789024339E0,9.662647897E0
1.373448417E1,7.115042279E0,8.778711373E-1,6.173059931E0,9.460504917E0
1.374451817E1,6.969664711E0,1.010436287E0,5.419838567E0,8.886611152E0
1.375455217E1,6.232938343E0,1.469336296E0,4.588939283E0,7.878250648E0
1.376458617E1,5.224711719E0,1.969177925E0,3.840094560E0,6.776547829E0
1.377462017E1,4.213343678E0,2.464916562E0,3.180887069E0,5.826329990E0
1.378465517E1,3.284046864E0,2.860382468E0,2.671486412E0,5.109167380E0
1.379468917E1,2.459288617E0,2.886548758E0,2.462269528E0,4.521397512E0
1.380472317E1,1.775248147E0,2.392898746E0,2.702593600E0,4.022621354E0
1.381475717E1,1.400515153E0,1.543142776E0,3.017875468E0,3.667465700E0
1.382479217E1,1.434647543E0,3.952039504E-1,3.255104608E0,3.579120806E0
1.383482617E1,1.782480568E0,-9.789332432E-1,3.431353721E0,3.988700995E0
1.384486017E1,2.211634038E0,-2.464261090E0,3.376684009E0,4.729260273E0
1.385489417E1,2.791066065E0,-4.021460572E0,3.117896184E0,5.803746336E0
1.386492917E1,3.411084348E0,-5.666467692E0,2.749958970E0,7.162864432E0
1.387496317E1,4.023657078E0,-7.191938428E0,2.139081932E0,8.514074591E0
1.388499717E1,4.423313391E0,-8.367804725E0,1.476950541E0,9.579521917E0
1.389503117E1,4.534071350E0,-8.770952117E0,5.557272694E-1,9.889197988E0
1.390506517E1,4.552513176E0,-8.183826762E0,-7.938524956E-1,9.398435959E0
1.391510017E1,4.266043463E0,-6.754367892E0,-5.127704072E0,9.492837378E0
1.392513417E1,4.620254631E0,-4.727783173E0,-1.316385297E1,1.473043488E1
1.393516817E1,5.961942117E0,-2.094082637E0,-1.193985064E1,1.350888482E1
1.394520217E1,6.597878859E0,-4.322045463E-1,-8.605522692E0,1.085236504E1
1.395523717E1,6.087135097E0,-1.656077653E-1,-6.681328567E0,9.039955256E0
1.396527117E1,4.950336971E0,-4.311742669E-1,-5.419345647E0,7.352622296E0
1.397530517E1,3.572006155E0,-4.987113619E-1,-4.882257839E0,6.069957381E0
1.398533917E1,2.305023135E0,-3.995934552E-1,-4.984694041E0,5.506358258E0
1.399537317E1,1.620826398E0,-2.153289789E-1,-5.121969708E0,5.376617753E0
1.400540817E1,1.387257615E0,8.569328427E-2,-5.130794910E0,5.315720406E0
1.401544217E1,1.422998428E0,2.733491457E-1,-5.320329482E0,5.514122784E0
1.402547617E1,1.648645696E0,2.936337215E-1,-5.285671865E0,5.544599216E0
1.403551017E1,1.949271956E0,8.808947325E-2,-5.061282041E0,5.424389073E0
1.404554517E1,2.734124125E0,-2.846828038E-1,-4.301487823E0,5.104828745E0
1.405557917E1,3.379418459E0,-1.044993331E0,-3.352942559E0,4.873879768E0
1.406561317E1,4.576782044E0,-2.034107746E0,-1.804091147E0,5.323464386E0
1.407564717E1,5.582022788E0,-2.570455881E0,-1.053986934E0,6.235151185E0
1.408568217E1,6.153446031E0,-2.586973681E0,-7.107302320E-1,6.712858433E0
1.409571617E1,6.514599305E0,-1.752646759E0,-8.038740385E-1,6.793967047E0
1.410575017E1,6.064112270E0,-5.953295839E-1,-1.034967695E0,6.180536633E0
1.411578417E1,4.223143904E0,-6.136068106E-2,-8.714760375E-1,4.312560730E0
1.412581817E1,2.360331509E0,2.527318633E-1,-7.102671325E-1,2.477805002E0
1.413585317E1,1.060287089E0,5.003661239E-1,-5.548551571E-1,1.297088746E0
1.414588717E1,1.703678739E-1,6.892194951E-1,-3.594160670E-1,7.957566425E-1
1.415592117E1,-5.019825867E-1,8.042406589E-1,-2.409555709E-1,9.781866600E-1
1.416595517E1,-9.232659960E-1,8.949181098E-1,-1.086819050E-1,1.290391522E0
1.417599017E1,-1.138236175E0,9.622768646E-1,1.207450032E-3,1.490489789E0
1.418602417E1,-1.180336639E0,9.755219775E-1,3.217518121E-1,1.564724238E0
1.419605817E1,-1.267606333E0,8.264536464E-1,6.426522696E-1,1.644035701E0
1.420609217E1,-1.252221870E0,5.524466890E-1,6.833696482E-1,1.529787904E0
1.421612717E1,-1.151815018E0,3.734055305E-1,8.960138780E-1,1.506303553E0
1.422616117E1,-9.438850325E-1,3.279557079E-1,1.087448795E0,1.476827269E0
1.423619517E1,-6.177872774E-1,5.089533448E-1,1.179289842E0,1.425278625E0
1.424622917E1,-3.332054843E-1,7.973298347E-1,1.182133343E0,1.464308711E0
1.425626317E1,2.097279310E-2,1.205206456E0,1.094047670E0,1.627852193E0
1.426629817E1,4.720913279E-1,1.581875902E0,9.537639034E-1,1.906532762E0
1.427633217E1,8.989790010E-1,1.792791402E0,8.999022764E-1,2.198201165E0
1.428636617E1,1.267441149E0,1.833574562E0,9.402422172E-1,2.419185435E0
1.429640017E1,1.613301909E0,1.627162587E0,1.128696808E0,2.554282212E0
1.430643517E1,2.000796890E0,1.111477343E0,1.503945381E0,2.738689794E0
1.431646917E1,2.702585998E0,3.098392797E-1,2.065119916E0,3.415361141E0
1.432650317E1,3.817773984E0,-8.852304429E-1,2.910254540E0,4.881455994E0
1.433653717E1,4.883312385E0,-2.507742155E0,4.110179206E0,6.857775416E0
1.434657117E1,5.138848865E0,-3.987696995E0,5.440027834E0,8.479587125E0
1.435660617E1,4.770995558E0,-4.506557862E0,6.132334074E0,8.982036716E0
1.436664017E1,4.350417908E0,-3.489326525E0,5.530027007E0,7.853835641E0
1.437667417E1,3.756253089E0,-1.615492129E0,3.993160340E0,5.715293658E0
1.438670817E1,3.134620391E0,-4.993463695E-2,2.547736525E0,4.039715319E0
1.439674317E1,2.696328016E0,6.654283440E-1,1.681399021E0,3.246549294E0
1.440677717E1,2.377165497E0,5.328696263E-1,1.275498759E0,2.749865982E0
1.441681117E1,1.950168335E0,7.665992081E-2,1.089680092E0,2.235270896E0
1.442684517E1,1.248305697E0,-2.036900961E-1,8.865745716E-1,1.544594199E0
1.443688017E1,6.623722237E-1,-1.938749599E-1,6.863564059E-1,9.733496693E-1
1.444691417E1,2.300497463E-2,-9.320695639E-2,4.756160295E-1,4.852085872E-1
1.445694817E1,-6.410602190E-1,-9.617617249E-2,3.423191008E-1,7.330691831E-1
1.446698217E1,-1.079281550E0,-2.549204761E-1,3.000837851E-1,1.148861781E0
1.447701617E1,-1.297365445E0,-6.745459074E-1,1.727092087E-1,1.472412221E0
1.448705117E1,-1.320653589E0,-1.073175741E0,2.980062693E-2,1.701975368E0
1.449708517E1,-1.230444793E0,-1.371885431E0,-6.591858566E-3,1.842853080E0
1.450711917E1,-1.155702466E0,-1.577064813E0,-1.160268849E-1,1.958633159E0
1.451715317E1,-1.002174902E0,-1.567464854E0,-3.709841985E-1,1.897084573E0
1.452718817E1,-7.944473036E-1,-1.491028297E0,-1.192063669E0,2.067686555E0
1.453722217E1,-2.088147129E0,-1.579929364E0,-4.716729596E0,5.394819117E0
1.454725617E1,-5.864599425E0,-2.611948893E0,-1.470233025E1,1.604288996E1
1.455729017E1,-5.540951360E0,-1.699182158E0,-1.482028964E1,1.591321297E1
1.456732417E1,-2.553173266E0,8.004446465E-1,-6.866003518E0,7.368949020E0
1.457735917E1,-8.697440922E-2,2.553028840E0,-2.882068329E0,3.851212622E0
1.458739317E1,6.972097152E-1,3.544380400E0,-1.104250184E0,3.777314161E0
1.459742717E1,6.132081766E-1,3.868986238E0,-3.795138243E-1,3.935620601E0
1.460746117E1,3.674897562E-1,3.722526934E0,2.000554669E-1,3.745968191E0
1.461749617E1,7.630572572E-2,3.225633472E0,7.880766159E-1,3.321385044E0
1.462753017E1,-5.392433837E-2,2.602717894E0,1.398136213E0,2.954967536E0
1.463756417E1,-2.095452055E-2,1.919529217E0,2.020467069E0,2.786990973E0
1.464759817E1,9.723919630E-4,1.220733737E0,2.589972718E0,2.863241254E0
1.465763317E1,1.037623501E-1,5.196227592E-1,3.094597369E0,3.139634901E0
1.466766717E1,2.557696380E-1,-1.864530891E-1,3.583778939E0,3.597729054E0
1.467770117E1,4.439052634E-1,-8.821127075E-1,4.068631230E0,4.186757074E0
1.468773517E1,7.420691152E-1,-1.434902043E0,4.253562581E0,4.549989569E0
1.469776917E1,1.105102051E0,-1.755413661E0,4.194376187E0,4.679264821E0
1.470780417E1,1.507927920E0,-1.792739947E0,3.967550413E0,4.607517706E0
1.471783817E1,1.931510162E0,-1.541706115E0,3.503897202E0,4.287759887E0
1.472787217E1,2.265510283E0,-1.161886189E0,2.777958362E0,3.768231551E0
1.473790508E1,2.505905544E0,-7.791099107E-1,2.172932341E0,3.407082301E0
1.474794008E1,2.619152078E0,-3.844620305E-1,1.865820787E0,3.238681193E0
1.475797408E1,2.660687774E0,1.380165088E-1,1.840645892E0,3.238253432E0
1.476800808E1,2.842489403E0,8.194761640E-1,1.918353342E0,3.525814337E0
1.477804208E1,3.048237135E0,1.529626352E0,1.942195948E0,3.924746044E0
1.478807708E1,3.336681452E0,2.192007712E0,2.109308056E0,4.515254301E0
1.479811108E1,3.752655590E0,2.636161044E0,2.366080784E0,5.160436735E0
1.480814508E1,4.154436196E0,2.803314228E0,2.548632026E0,5.622582678E0
1.481817908E1,4.455139494E0,2.823748493E0,2.701627347E0,5.926264741E0
1.482821308E1,4.554262370E0,2.700985031E0,2.744549711E0,5.963990190E0
1.483824808E1,4.387971650E0,2.500944182E0,2.739632495E0,5.745833552E0
1.484828208E1,4.068106442E0,2.237487355E0,2.665903491E0,5.353772606E0
1.485831608E1,3.602976517E0,1.836484721E0,2.664483202E0,4.842890320E0
1.486835008E1,3.075681626E0,1.352655693E0,2.679903479E0,4.297834053E0
1.487838508E1,2.603143571E0,8.428556710E-1,2.708520337E0,3.850044747E0
1.488841908E1,2.264990465E0,3.123787254E-1,2.729013074E0,3.560235194E0
1.489845308E1,1.921041014E0,-2.802921295E-1,2.636192034E0,3.273907558E0
1.490848708E1,1.474793795E0,-8.801726013E-1,2.255838549E0,2.835229816E0
1.491852108E1,1.016474633E0,-1.337466381E0,1.704974848E0,2.393527988E0
1.492855608E1,4.822541907E-1,-1.694954621E0,1.089021696E0,2.071571511E0
1.493859008E1,-6.457803838E-2,-1.902757064E0,7.156720063E-1,2.033922611E0
1.494862408E1,-5.409170396E-1,-2.025302424E0,8.811154649E-1,2.273940548E0
1.495865808E1,-8.153529999E-1,-2.241121400E0,1.792273339E0,2.983231363E0
1.496869308E1,-9.707887296E-1,-2.736593989E0,3.334893959E0,4.421865572E0
1.497872708E1,-1.040590086E0,-3.491005846E0,4.658186104E0,5.913429404E0
1.498876108E1,-9.715180235E-1,-4.293138583E0,5.452252023E0,7.007277523E0
1.499879508E1,-1.083065283E0,-4.829035898E0,5.727583959E0,7.569533415E0
1.500882908E1,-1.166743471E0,-4.402861585E0,5.203816109E0,6.915647660E0
1.501886408E1,-6.853050765E-1,-2.689936717E0,3.845947039E0,4.743069809E0
1.502889808E1,-6.131068736E-2,-7.804875147E-1,2.498850294E0,2.618620353E0
1.503893208E1,3.692509010E-1,7.966480494E-1,1.473631953E0,1.715396594E0
1.504896608E1,4.989842441E-1,2.028514300E0,7.222252733E-1,2.210308776E0
1.505900108E1,5.214244325E-1,2.931453620E0,1.108632088E-1,2.979529227E0
1.506903508E1,5.449690138E-1,3.464331433E0,-3.894257319E-1,3.528489181E0
1.507906908E1,7.404107717E-1,3.746762474E0,-6.440950701E-1,3.873150604E0
1.508910308E1,1.270548067E0,3.803784521E0,-7.544314447E-1,4.080715118E0
1.509913808E1,1.792400370E0,3.472467833E0,-1.274348319E0,4.110315751E0
1.510917208E1,2.682792588E0,2.763867157E0,-2.392764260E0,4.534496503E0
1.511920608E1,2.984514179E0,1.651078284E0,-2.165117537E0,4.039940387E0
1.512924008E1,1.733136062E0,2.894137859E-2,-1.082276933E0,2.043507174E0
1.513927408E1,2.710177877E-1,-1.753044369E0,-4.107259691E-1,1.820799556E0
1.514930908E1,-1.046020541E0,-3.550970796E0,-1.877046856E-1,3.706586788E0
1.515934308E1,-1.786614404E0,-5.166759380E0,-1.965798819E-1,5.470469556E0
1.516937708E1,-1.940322500E0,-6.483642392E0,-4.548274237E-1,6.783018359E0
1.517941108E1,-1.507647838E0,-6.945782343E0,-1.458046492E0,7.255535400E0
1.518944608E1,-3.958366922E-1,-6.062411900E0,-3.184293657E0,6.859245645E0
1.519948008E1,9.867730437E-1,-4.544187618E0,-4.878933697E0,6.739981912E0
1.520951408E1,1.706958808E0,-3.352849004E0,-6.057904866E0,7.131165135E0
1.521954808E1,2.546574683E0,-2.340186097E0,-6.921298882E0,7.737305202E0
1.522958308E1,2.975515898E0,-1.681598411E0,-7.487995820E0,8.231132940E0
1.523961708E1,2.397006854E0,-1.492028756E0,-7.318003812E0,7.843785531E0
1.524965108E1,1.834968831E0,-1.378723165E0,-6.989345854E0,7.356557866E0
1.525968508E1,1.497734176E0,-1.113227999E0,-6.844056578E0,7.093912509E0
1.526971908E1,9.484693958E-1,-8.021456015E-1,-6.308348714E0,6.429486391E0
1.527975408E1,3.979065335E-1,-4.786255914E-1,-5.705605445E0,5.739455162E0
1.528978808E1,-1.783203430E-1,-2.383974141E-1,-5.119305131E0,5.127954417E0
1.529982208E1,-7.196729636E-1,-1.355232561E-1,-4.486734631E0,4.546106397E0
1.530985608E1,-1.108511343E0,-1.046517116E-1,-3.966378046E0,4.119697099E0
1.531989108E1,-1.374576904E0,-1.750937033E-1,-3.634870155E0,3.890038626E0
1.532992508E1,-1.504531564E0,-3.306582910E-1,-3.266097373E0,3.611141397E0
1.533995908E1,-1.461168759E0,-4.089758974E-1,-2.796205183E0,3.181358021E0
1.534999308E1,-1.083806491E0,-2.605899364E-1,-2.395917664E0,2.642530052E0
1.536002708E1,-6.042170228E-1,-6.082273722E-3,-2.108835163E0,2.193695728E0
1.537006208E1,-1.944103091E-1,2.903902709E-1,-1.754270530E0,1.788738933E0
1.538009608E1,9.253445350E-2,5.575735277E-1,-1.280311017E0,1.399516761E0
1.539013008E1,3.998742312E-1,8.221986276E-1,-8.359179497E-1,1.238817502E0
1.540016408E1,6.129892715E-1,1.036178069E0,-5.231492150E-1,1.312671299E0
1.541019908E1,6.438907099E-1,1.201005816E0,-3.186428475E-1,1.399479718E0
1.542023308E1,6.754845317E-1,1.287497245E0,-2.693508196E-1,1.478674532E0
1.543026708E1,7.692216843E-1,1.330307634E0,-3.362184083E-1,1.573042663E0
1.544030108E1,9.232545208E-1,1.267521987E0,-3.566801548E-1,1.608176492E0
1.545033608E1,1.189153071E0,1.061404712E0,-2.456918156E-1,1.612770739E0
1.546037008E1,1.544235913E0,6.865654439E-1,1.868968928E-1,1.700284421E0
1.547040408E1,2.025643463E0,1.901228017E-1,9.132701808E-1,2.230121195E0
1.548043808E1,2.662203373E0,-4.286149406E-1,1.826179296E0,3.256680578E0
1.549047208E1,3.416124940E0,-1.043730333E0,2.578849852E0,4.405649688E0
1.550050708E1,4.173727622E0,-1.576973011E0,3.218222126E0,5.501254384E0
1.551054108E1,5.024109537E0,-1.870693856E0,3.848639097E0,6.599484453E0
1.552057508E1,6.101343831E0,-1.790350190E0,4.319963270E0,7.687251329E0
1.553060908E1,7.286546962E0,-1.172766103E0,4.439134203E0,8.612494379E0
1.554064408E1,8.135488999E0,5.436916530E-2,4.066881451E0,9.095529781E0
1.555067808E1,8.415271252E0,1.490931233E0,3.048168722E0,9.073643080E0
1.556071208E1,8.046345858E0,1.855136170E0,1.682684823E0,8.427137123E0
1.557074608E1,7.163972365E0,1.279076670E0,1.189592051E0,7.373850176E0
1.558078008E1,6.523896378E0,1.081471771E-1,1.975021632E0,6.817157048E0
1.559081508E1,5.760502614E0,-1.869109261E0,3.481314378E0,6.985449849E0
1.560084908E1,5.055217309E0,-4.260249165E0,4.658818480E0,8.087616127E0
1.561088308E1,4.393125386E0,-5.985084811E0,5.305348331E0,9.125103384E0
1.562091708E1,3.178613087E0,-6.297376998E0,5.045270026E0,8.672674780E0
1.563095208E1,2.058285691E0,-5.380147668E0,4.060691588E0,7.047818463E0
1.564098608E1,1.155323201E0,-3.653457869E0,2.771074143E0,4.728781873E0
1.565102008E1,2.965846650E-1,-1.866977951E0,1.200875131E0,2.239569202E0
1.566105408E1,-2.633904603E-1,-5.321182591E-1,1.928207070E-1,6.242629264E-1
1.567108908E1,-7.225411691E-1,3.007942218E-1,-3.223517364E-1,8.464357901E-1
1.568112308E1,-1.078825760E0,7.447142494E-1,-9.645716044E-1,1.627532707E0
1.569115708E1,-1.566728105E0,8.450290811E-1,-1.597658122E0,2.391907727E0
1.570119108E1,-1.889575393E0,5.730996394E-1,-2.209852245E0,2.963508952E0
1.571122508E1,-2.465579052E0,-1.963424850E-1,-3.045537183E0,3.923382108E0
1.572126008E1,-7.821696417E0,-3.257093831E0,-1.541832883E1,1.759296618E1
1.573129458E1,-1.775821028E1,-9.002719958E0,-3.762821501E1,4.257094741E1
1.574132858E1,-1.272604153E1,-6.635838983E0,-2.025763185E1,2.482656118E1
1.575136258E1,-4.443445355E0,-3.070179396E0,-8.012938961E0,9.663198173E0
1.576139758E1,5.901450039E-1,-6.337165546E-1,-2.599412170E0,2.739856096E0
1.577143158E1,1.994284846E0,1.053288192E0,-5.816912457E-1,2.329152800E0
1.578146558E1,1.560017986E0,2.409496652E0,4.761440331E-1,2.909646607E0
1.579149958E1,1.661204199E-1,3.183226540E0,2.953890556E0,4.345802183E0
1.580153358E1,-1.695331035E0,3.501070073E0,6.936429137E0,7.952715772E0
1.581156858E1,-2.328411267E0,3.974346632E0,8.381769630E0,9.564046858E0
1.582160258E1,-2.513353143E0,4.570229362E0,7.556541560E0,9.181789629E0
1.583163658E1,-2.395067332E0,4.670427250E0,6.589117391E0,8.424114566E0
1.584167058E1,-1.740696073E0,4.473555592E0,4.808538483E0,6.794465748E0
1.585170558E1,-1.214888714E0,3.805754448E0,3.090439414E0,5.050795707E0
1.586173958E1,-9.494968978E-1,2.800964817E0,2.073969677E0,3.612242861E0
1.587177358E1,-9.270899288E-1,1.654538666E0,1.342516036E0,2.323648691E0
1.588180758E1,-9.830968992E-1,5.537091029E-1,5.307691602E-1,1.246911859E0
1.589184158E1,-9.818071496E-1,-3.897087371E-1,-3.381997374E-1,1.109142570E0
1.590187658E1,-9.646255450E-1,-1.078997229E0,-1.047296257E0,1.786495708E0
1.591191058E1,-1.148807283E0,-1.451996963E0,-1.464641275E0,2.360768396E0
1.592194458E1,-1.440979932E0,-1.583171060E0,-1.576306429E0,2.658495012E0
1.593197858E1,-1.531354789E0,-1.647640706E0,-1.559429610E0,2.737076560E0
1.594201358E1,-1.200965982E0,-1.739257804E0,-1.820376812E0,2.789463879E0
1.595204758E1,-4.799639825E-1,-1.885546954E0,-2.285778925E0,3.001739168E0
1.596208158E1,4.463554295E-1,-2.020212423E0,-2.261709446E0,3.065260352E0
1.597211558E1,1.074033309E0,-1.896643215E0,-1.298302900E0,2.537004819E0
1.598215058E1,1.376297301E0,-1.192406901E0,3.350787860E-1,1.851568597E0
1.599218458E1,1.618809255E0,-1.973049366E-1,1.637193485E0,2.310816988E0
1.600221858E1,2.038747951E0,6.346620494E-1,2.147546069E0,3.028406056E0
1.601225258E1,2.542985662E0,1.347144107E0,2.310760277E0,3.690689147E0
1.602228658E1,3.148856022E0,1.945639374E0,2.319792763E0,4.368322937E0
1.603232158E1,3.645028815E0,2.519719006E0,2.362442646E0,5.021588811E0
1.604235558E1,3.935819035E0,3.061317941E0,2.449136682E0,5.555232623E0
1.605238958E1,4.047979157E0,3.594181135E0,2.457609589E0,5.945091940E0
1.606242358E1,3.940343319E0,3.993860545E0,2.597656544E0,6.182640782E0
1.607245858E1,3.692518439E0,4.113257765E0,2.864087264E0,6.225478111E0
1.608249258E1,3.295988925E0,3.755188896E0,3.347352329E0,6.014129550E0
1.609252658E1,2.948951413E0,2.953242685E0,4.050135317E0,5.815630050E0
1.610256058E1,2.643219802E0,1.931880875E0,4.630232905E0,5.670787546E0
1.611259558E1,2.289132595E0,7.851337123E-1,4.562430346E0,5.164526469E0
1.612262958E1,1.940867900E0,-3.779587573E-1,3.710503597E0,4.204480701E0
1.613266358E1,1.432323567E0,-1.426517136E0,2.637333703E0,3.322955161E0
1.614269758E1,7.549464382E-1,-2.260296759E0,1.444559159E0,2.786689205E0
1.615273158E1,5.671826592E-2,-2.782471243E0,3.544324851E-1,2.805527681E0
1.616276658E1,2.720968913E-2,-2.846982404E0,3.175334845E-1,2.864764683E0
1.617280058E1,5.379093415E-1,-2.458111573E0,1.882848464E0,3.142734049E0
1.618283458E1,1.212084828E0,-1.909637482E0,3.935557957E0,4.539215943E0
1.619286858E1,1.617358268E0,-1.673572522E0,4.895567856E0,5.420634409E0
1.620290358E1,1.593904209E0,-1.873755459E0,5.247055684E0,5.795091328E0
1.621293758E1,1.178282074E0,-2.317721679E0,5.498958997E0,6.082658339E0
1.622297158E1,3.213530685E-1,-2.703898698E0,5.642299395E0,6.264972341E0
1.623300558E1,-5.708115508E-1,-2.757648643E0,5.510086833E0,6.188013314E0
1.624303958E1,-9.894300185E-1,-2.257733340E0,4.842760482E0,5.434028035E0
1.625307458E1,-1.049994747E0,-1.341036690E0,3.723473891E0,4.094523927E0
1.626310858E1,-1.081934578E0,-4.504589689E-1,2.631027773E0,2.880243541E0
1.627314258E1,-1.231071175E0,2.648127955E-1,1.682583666E0,2.101606493E0
1.628317658E1,-1.363988474E0,8.626619446E-1,9.215855062E-1,1.858485952E0
1.629321158E1,-1.499934191E0,1.277279236E0,3.624235824E-1,2.003146444E0
1.630324558E1,-1.569526290E0,1.547861479E0,-9.849605531E-2,2.206578665E0
1.631327958E1,-1.196484018E0,1.710653810E0,-3.025249976E-1,2.109367639E0
1.632331358E1,-5.019981549E-1,1.525542072E0,-7.276433033E-1,1.763163503E0
1.633334858E1,8.896037216E-1,1.144854419E0,-2.114172209E0,2.563554281E0
1.634338258E1,2.731219229E0,2.721142137E-1,-4.457092171E0,5.234431702E0
1.635341658E1,2.724732912E0,-1.151239579E0,-5.046447655E0,5.849457748E0
1.636345058E1,1.120495942E0,-2.601129205E0,-3.932558628E0,4.846277093E0
1.637348458E1,-7.734799191E-1,-3.796433986E0,-3.414773649E0,5.164480735E0
1.638351958E1,-2.482090420E0,-4.887315096E0,-3.127514269E0,6.310940279E0
1.639355358E1,-3.552592229E0,-5.678547454E0,-3.182000087E0,7.415654879E0
1.640358758E1,-3.861973087E0,-5.811371051E0,-3.738262376E0,7.915900152E0
1.641362158E1,-2.857139018E0,-4.878862361E0,-4.235311959E0,7.064305252E0
1.642365658E1,-1.062033580E0,-3.487853027E0,-4.567078882E0,5.843906534E0
1.643369058E1,4.653725848E-1,-2.378847887E0,-4.863506988E0,5.434076659E0
1.644372458E1,2.119221864E0,-1.447979341E0,-5.247121757E0,5.841235504E0
1.645375858E1,3.437153574E0,-8.393549430E-1,-5.679744380E0,6.691639383E0
1.646379258E1,4.024142105E0,-4.999807924E-1,-6.435667157E0,7.606675504E0
1.647382758E1,4.153517014E0,-3.254741496E-1,-7.131383493E0,8.259192910E0
1.648386158E1,3.363967777E0,-3.344326687E-1,-7.018416456E0,7.790140818E0
1.649389558E1,2.075718726E0,-4.313450056E-1,-6.517504202E0,6.853650689E0
1.650392958E1,8.231210259E-1,-6.154656404E-1,-6.013512805E0,6.100709994E0
1.651396458E1,-3.569062228E-1,-8.820834714E-1,-5.430079966E0,5.512823391E0
1.652399858E1,-1.227718236E0,-1.123840111E0,-4.781754727E0,5.063149902E0
1.653403258E1,-1.486583390E0,-1.235555844E0,-4.264076752E0,4.681760242E0
1.654406658E1,-1.330561404E0,-1.235121396E0,-3.981253363E0,4.375648163E0
1.655410058E1,-1.168921778E0,-1.241556256E0,-3.698372086E0,4.072566286E0
1.656413558E1,-1.402516655E0,-1.203384463E0,-3.121061867E0,3.627149612E0
1.657416958E1,-1.477911677E0,-8.325856215E-1,-2.496112043E0,3.017945836E0
1.658420358E1,-1.267359873E0,-2.567296046E-1,-2.128080688E0,2.490148299E0
1.659423758E1,-1.068262326E0,2.271169657E-1,-1.953686312E0,2.238226244E0
