"Time (s)","Linear Acceleration x (m/s^2)","Linear Acceleration y (m/s^2)","Linear Acceleration z (m/s^2)","Absolute acceleration (m/s^2)"
7.448125005E-3,-3.735946586E0,1.032112851E1,1.046638036E1,1.516667757E1
1.747812500E-2,-5.202971186E0,1.114920768E1,8.577366010E0,1.499823152E1
2.750812500E-2,-5.193166575E0,1.124000792E1,7.000542102E0,1.422372479E1
3.753812501E-2,-3.586548180E0,1.009473134E1,7.346944022E0,1.299016994E1
4.756812500E-2,-9.350383414E-1,8.310633574E0,1.001145061E1,1.304492508E1
5.759812500E-2,1.319131997E0,6.332384863E0,1.247221156E1,1.404974265E1
6.762812501E-2,2.712207007E0,3.923767924E0,1.339279953E1,1.421685974E1
7.765812500E-2,3.152346810E0,1.563054592E0,1.408616002E1,1.451896464E1
8.768812500E-2,2.697999150E0,-2.062362662E-1,1.400006913E1,1.425916086E1
9.771812501E-2,1.549550447E0,-1.252686431E0,1.317879144E1,1.332857358E1
1.077481250E-1,4.419169177E-1,-1.963566352E0,1.148389646E1,1.165893482E1
1.177781250E-1,-2.927475759E-1,-2.330808917E0,8.725988783E0,9.036661529E0
1.278081250E-1,-8.312502636E-1,-2.433372881E0,5.504668803E0,6.075661215E0
1.378381250E-1,-9.635538965E-1,-2.662547481E0,2.018234310E0,3.477192105E0
1.478681250E-1,-9.264308015E-1,-3.065527351E0,-1.282862742E0,3.449850546E0
1.578971250E-1,-8.668963520E-1,-3.303696724E0,-3.990248719E0,5.252428598E0
1.679271250E-1,-7.199151845E-1,-3.346541320E0,-5.943528065E0,6.858800372E0
1.779571250E-1,-6.777793445E-1,-3.287389424E0,-7.226048160E0,7.967564627E0
1.879871250E-1,-9.075280689E-1,-3.256426079E0,-8.094980659E0,8.772492797E0
1.980171250E-1,-8.807053558E-1,-3.269466539E0,-8.817735690E0,9.445502425E0
2.080471250E-1,-6.783529564E-1,-3.249147172E0,-9.634228020E0,1.018996907E1
2.180771250E-1,-5.440022498E-1,-3.045583376E0,-1.035894128E1,1.081106753E1
2.281071250E-1,-4.459164132E-1,-2.659782918E0,-1.096686460E1,1.129360021E1
2.381371250E-1,-2.098669486E-1,-2.138782847E0,-1.156402787E1,1.176202265E1
2.481671250E-1,4.004220787E-2,-1.665023893E0,-1.204579049E1,1.216038554E1
2.581971250E-1,2.704244780E-1,-1.386898742E0,-1.214607024E1,1.222798593E1
2.682271250E-1,8.040175876E-1,-1.078759832E0,-1.153412872E1,1.161233363E1
2.782571250E-1,1.265609947E0,-8.888346666E-1,-1.042119776E1,1.053532906E1
2.882871250E-1,7.253533874E-1,-1.234706243E0,-8.822293594E0,8.937757063E0
2.983171250E-1,2.028918050E-2,-1.794186840E0,-7.161396081E0,7.382757744E0
3.083471250E-1,-2.623917559E-1,-2.297288876E0,-5.277324965E0,5.761644245E0
3.183771250E-1,-4.253028584E-1,-2.452376331E0,-3.693758633E0,4.454086330E0
3.284071250E-1,-3.106722886E-1,-2.546662391E0,-2.908055402E0,3.877988245E0
3.384371250E-1,4.469817759E-1,-2.817400755E0,-2.729539908E0,3.948154991E0
3.484671250E-1,1.075730975E0,-2.600294515E0,-2.918297970E0,4.054034008E0
3.584971250E-1,1.423825663E0,-1.846918493E0,-3.411414716E0,4.132328375E0
3.685271250E-1,1.856487023E0,-1.124478919E0,-3.817762874E0,4.391618184E0
3.785571250E-1,2.425327989E0,-6.765517947E-1,-3.937714410E0,4.673920513E0
3.885871250E-1,2.542065310E0,-6.549565655E-1,-3.699338046E0,4.536095912E0
3.986171250E-1,2.246867897E0,-8.332638985E-1,-2.829950634E0,3.708283250E0
4.086471250E-1,1.704216025E0,-1.274524612E0,-1.751752719E0,2.756338665E0
4.186771250E-1,1.331437024E0,-1.732154899E0,-5.538956290E-1,2.253860136E0
4.287071250E-1,9.105648203E-1,-1.612243124E0,1.284092411E0,2.253297473E0
4.387371250E-1,8.496407070E-1,-1.120475038E0,3.050019366E0,3.358566923E0
4.487661250E-1,1.969310657E0,-4.013201380E-1,4.112006460E0,4.576880974E0
4.587961250E-1,3.125229470E0,9.370256639E-1,4.429747667E0,5.501612557E0
4.688261250E-1,2.942942522E0,2.148216745E0,4.391059565E0,5.705887308E0
4.788561250E-1,1.669927076E0,2.368545093E0,5.033422397E0,5.808098082E0
4.888861250E-1,1.474667788E-2,2.237000282E0,6.799335904E0,7.157887709E0
4.989161250E-1,-1.346361750E0,2.394092748E0,8.835663253E0,9.252746358E0
5.089461250E-1,-2.923583560E0,3.255918540E0,1.007726336E1,1.098633621E1
5.189761250E-1,-4.022749006E0,5.046005605E0,9.752396740E0,1.169418335E1
5.290061250E-1,-4.087255781E0,7.100565743E0,7.705274261E0,1.124699716E1
5.390361250E-1,-3.573282602E0,8.463980897E0,5.308378358E0,1.061066454E1
5.490661250E-1,-2.580346447E0,8.701580166E0,4.727787266E0,1.023365319E1
5.590961250E-1,-1.544899572E0,7.521179354E0,5.922861081E0,9.697171595E0
5.691261250E-1,-6.414212114E-1,5.287707281E0,7.781553528E0,9.429944049E0
5.791561250E-1,-3.721077409E-1,3.751996901E0,9.544774391E0,1.026248815E1
5.891861250E-1,-4.415619186E-1,3.001537178E0,9.655632337E0,1.012103938E1
5.992161250E-1,-6.131648342E-1,2.128612492E0,8.198169982E0,8.492170118E0
6.092461250E-1,-7.483256359E-1,1.421198216E0,6.450324957E0,6.647291755E0
6.192761250E-1,-7.259551390E-1,1.038118175E0,4.992579596E0,5.150781614E0
6.293061250E-1,-9.765870479E-1,5.821742257E-1,4.002249545E0,4.160606988E0
6.393361250E-1,-1.112627783E0,-5.810290486E-2,3.416310005E0,3.593395411E0
6.493661250E-1,-1.149025531E0,-6.211508882E-1,2.663338902E0,2.966388748E0
6.593961250E-1,-9.735100968E-1,-1.008318718E0,1.619038466E0,2.141428051E0
6.694261250E-1,-5.681742373E-1,-1.321102363E0,5.931567585E-1,1.555624748E0
6.794561250E-1,-4.723850043E-1,-1.600578221E0,-4.490556371E-1,1.728192466E0
6.894861250E-1,-8.158368570E-1,-1.506116452E0,-1.622266713E0,2.359179059E0
6.995161250E-1,-1.169091567E0,-1.103420172E0,-2.935078894E0,3.346490592E0
7.095461250E-1,-9.683462745E-1,-8.300581625E-1,-4.973407161E0,5.134342202E0
7.195761250E-1,-9.310274439E-1,-7.529412818E-1,-7.585208704E0,7.679135613E0
7.296061250E-1,-1.197109670E0,-6.764588240E-1,-9.921688836E0,1.001651524E1
7.396361250E-1,-1.453288028E0,-5.791933152E-1,-1.170102813E1,1.180515016E1
7.496651250E-1,-1.561690290E0,-7.755191356E-1,-1.276143005E1,1.288000013E1
7.596951250E-1,-1.648043871E0,-1.280937254E0,-1.298956034E1,1.315619727E1
7.697251250E-1,-1.741821808E0,-1.849661129E0,-1.258652229E1,1.284039457E1
7.797551250E-1,-1.627589434E0,-2.317500362E0,-1.152591572E1,1.186872312E1
7.897851250E-1,-1.531108475E0,-2.834679862E0,-9.863382740E0,1.037622389E1
7.998151250E-1,-1.283752103E0,-3.015948225E0,-8.130282639E0,8.766154171E0
8.098451250E-1,-4.442488604E-1,-2.940767065E0,-7.012128360E0,7.616784894E0
8.198751250E-1,4.888922057E-1,-2.558473475E0,-6.434676054E0,6.941891531E0
8.299051250E-1,1.229506022E0,-1.902969317E0,-6.312243544E0,6.706518906E0
8.399351250E-1,1.806269673E0,-1.235402647E0,-6.703072023E0,7.051241336E0
8.499651250E-1,1.893035044E0,-4.932263812E-1,-7.311036270E0,7.568229997E0
8.599951250E-1,1.613012179E0,1.551932895E-1,-7.458424112E0,7.632429723E0
8.700251250E-1,1.276454047E0,-2.712435633E-2,-6.532139198E0,6.655742871E0
8.800551250E-1,1.238713779E0,-7.772291538E-1,-5.216874695E0,5.417958893E0
8.900851250E-1,1.085817787E0,-1.161351753E0,-3.913167799E0,4.223815856E0
9.001151250E-1,8.940863433E-1,-1.184372826E0,-2.779532433E0,3.150861775E0
9.101451250E-1,1.469609361E0,-1.087680345E0,-2.247627012E0,2.897348338E0
9.201751250E-1,2.836608566E0,-3.716718310E-1,-2.097370527E0,3.547316061E0
9.302051250E-1,3.772234114E0,7.435465604E-1,-1.546044164E0,4.144015475E0
9.402351250E-1,3.597601172E0,1.214383368E0,-2.873555660E-2,3.797141937E0
9.502656250E-1,2.955170512E0,6.630143210E-1,3.211267447E0,4.414165761E0
9.602956250E-1,2.181941584E0,-1.641243267E-1,6.761592711E0,7.106823613E0
9.703256250E-1,2.054922080E0,-7.079963663E-1,9.959864137E0,1.019425609E1
9.803556250E-1,2.025174224E0,-2.610843185E-1,1.194710937E1,1.212035140E1
9.903856250E-1,2.052861960E0,1.033057410E0,1.089779261E1,1.113747429E1
1.000415625E0,2.714818958E0,2.283085697E0,8.897235603E0,9.578283962E0
1.010445625E0,2.821835284E0,3.473748373E0,8.267202795E0,9.400868267E0
1.020475625E0,1.848460696E0,4.273150461E0,8.664568461E0,9.836227347E0
1.030505625E0,3.611536402E-1,4.785011626E0,9.221675380E0,1.039548292E1
1.040535625E0,-1.258253565E0,5.558490084E0,8.754264164E0,1.044591571E1
1.050564625E0,-2.810935489E0,6.529034327E0,7.012959834E0,9.985552223E0
1.060594625E0,-3.453253298E0,7.441350242E0,5.438414002E0,9.842509772E0
1.070624625E0,-3.131126679E0,7.912812409E0,5.241728286E0,9.994612045E0
1.080654625E0,-2.728417827E0,7.510963098E0,6.013175420E0,1.000085542E1
1.090684625E0,-2.149615983E0,6.214640651E0,6.380316828E0,9.162480566E0
1.100714625E0,-1.544829844E0,4.263948113E0,6.594821935E0,8.003713458E0
1.110744625E0,-1.059572925E0,2.101160107E0,7.137444132E0,7.515362754E0
1.120774625E0,-9.059449352E-1,4.453543496E-1,6.966225963E0,7.038990048E0
1.130804625E0,-1.004535423E0,-5.010984877E-1,5.988356329E0,6.092667940E0
1.140834625E0,-1.400708111E0,-9.219857481E-1,4.930106190E0,5.207493445E0
1.150864625E0,-1.875755206E0,-8.897450781E-1,4.280995086E0,4.757838041E0
1.160894625E0,-1.898564756E0,-7.093327475E-1,3.911390246E0,4.405300754E0
1.170924625E0,-1.220010729E0,-4.311728051E-1,3.339866431E0,3.581765478E0
1.180954625E0,-2.797446109E-1,-1.468735787E-1,2.216965967E0,2.239367544E0
1.190984625E0,5.256350856E-1,-7.564513654E-2,4.204165596E-1,6.773215732E-1
1.201014625E0,1.134455950E0,-1.904642791E-2,-1.550636567E0,1.921412718E0
1.211044625E0,1.529126123E0,-4.069428205E-2,-3.263964309E0,3.604628377E0
1.221074625E0,1.442662468E0,-2.055705607E-2,-5.018245949E0,5.221540960E0
1.231104625E0,9.610059723E-1,-2.182075632E-1,-6.758369141E0,6.829838978E0
1.241134625E0,1.729368116E-1,-7.100379217E-1,-8.084232892E0,8.117196711E0
1.251164625E0,-6.736398082E-1,-1.294831992E0,-8.939544302E0,9.057915478E0
1.261194625E0,-9.666332596E-1,-1.770826629E0,-9.578925054E0,9.789076157E0
1.271224625E0,-5.373914243E-1,-1.875657558E0,-1.009899396E1,1.028574546E1
1.281254625E0,-5.577325720E-1,-1.771569225E0,-1.041870100E1,1.058295108E1
1.291284625E0,-9.406341268E-1,-1.892718856E0,-1.048700583E1,1.069787215E1
1.301314625E0,-1.122472009E0,-2.358175348E0,-1.042722507E1,1.074932356E1
1.311344625E0,-1.101123824E0,-2.903560063E0,-9.689716927E0,1.017515350E1
1.321374625E0,-8.573825667E-1,-3.322813611E0,-8.449988510E0,9.120224832E0
1.331404625E0,-7.365021273E-1,-3.642366870E0,-7.191032109E0,8.094455794E0
1.341434625E0,-7.814378335E-1,-4.077912223E0,-6.394429668E0,7.624220876E0
1.351463625E0,-1.034330276E0,-4.304531298E0,-6.375106375E0,7.761495352E0
1.361493625E0,-1.038337446E0,-4.060880453E0,-7.046741538E0,8.199113428E0
1.371523625E0,-8.930817917E-1,-3.420811484E0,-8.061479622E0,8.802670048E0
1.381553625E0,-7.782550478E-1,-2.858722151E0,-8.710731059E0,9.200804793E0
1.391583625E0,-4.756919702E-1,-2.516875798E0,-8.218044668E0,8.607973327E0
1.401613625E0,-1.669651599E-1,-2.485312820E0,-6.360633931E0,6.830982447E0
1.411643625E0,1.280470792E-2,-2.629092929E0,-4.248867559E0,4.996515699E0
1.421673625E0,2.379384807E-1,-2.688174366E0,-2.085578447E0,3.410650026E0
1.431703625E0,6.817965279E-1,-2.626102079E0,-4.650770080E-1,2.752735958E0
1.441733625E0,1.608400334E0,-2.495746299E0,3.685616970E-1,2.991912256E0
1.451763625E0,2.726675065E0,-1.967014455E0,1.192998054E0,3.567512738E0
1.461793625E0,3.137414775E0,-1.236865912E0,2.838795717E0,4.408170809E0
1.471823625E0,2.509653609E0,-8.711547330E-1,4.563694514E0,5.280585140E0
1.481853625E0,9.671834095E-1,-6.178577363E-1,5.251999505E0,5.375936265E0
1.491883625E0,-6.684893614E-1,3.173327789E-1,5.026657754E0,5.080833228E0
1.501913625E0,-9.313957454E-1,2.158712789E0,4.549246044E0,5.120857205E0
1.511943625E0,3.474488996E-1,4.087074518E0,4.685809520E0,6.227496263E0
1.521973625E0,2.104424315E0,5.396588868E0,7.152279103E0,9.203633493E0
1.532003625E0,2.647712218E0,6.138235084E0,1.070416791E1,1.262012364E1
1.542033625E0,1.475729934E0,6.191462873E0,1.365975299E1,1.506986540E1
1.552063625E0,-8.730532508E-1,5.969809545E0,1.496998070E1,1.614004864E1
1.562093625E0,-2.769968434E0,6.382743423E0,1.416860576E1,1.578485122E1
1.572123625E0,-3.363162030E0,7.726723602E0,1.196296001E1,1.463302869E1
1.582153625E0,-2.899079341E0,9.156635047E0,1.002799589E1,1.388557986E1
1.592183625E0,-2.042508149E0,9.652750829E0,8.753852520E0,1.319004822E1
1.602213625E0,-1.681871476E0,9.250310365E0,7.495068027E0,1.202385039E1
1.612243625E0,-1.622969987E0,7.953869219E0,7.139607602E0,1.081073836E1
1.622273625E0,-1.272152689E0,5.979556854E0,7.498627812E0,9.674858743E0
1.632303625E0,-8.728483059E-1,3.975979759E0,7.756236253E0,8.759536519E0
1.642332625E0,-8.630288574E-1,2.163325950E0,7.240708299E0,7.606093258E0
1.652362625E0,-1.181853261E0,6.814590704E-1,5.766974312E0,5.926141773E0
1.662392625E0,-1.512328388E0,-1.594307667E-1,3.672154925E0,3.974578861E0
1.672422625E0,-1.443445702E0,-4.770158529E-1,1.595909804E0,2.204088865E0
1.682452625E0,-1.074956950E0,-4.590122759E-1,1.701563144E-1,1.181176483E0
1.692482625E0,-6.145514283E-1,-3.869681472E-1,-8.476919031E-1,1.116243418E0
1.702512625E0,-1.883002245E-1,-4.739238453E-1,-1.621679068E0,1.699971702E0
1.712542625E0,1.732579699E-1,-6.870300052E-1,-2.510037187E0,2.608124850E0
1.722572625E0,1.818367124E-1,-1.152589701E0,-3.617388149E0,3.800924181E0
1.732602625E0,-2.252458566E-1,-1.733547998E0,-4.681114206E0,4.996874480E0
1.742632625E0,-7.301481774E-1,-2.220279000E0,-5.638706281E0,6.103913804E0
1.752662625E0,-1.428640699E0,-2.683193123E0,-6.660213686E0,7.321132831E0
1.762692625E0,-1.864753524E0,-3.170125853E0,-7.945923437E0,8.755838218E0
1.772722625E0,-1.351803169E0,-3.424458684E0,-9.386706610E0,1.008288402E1
1.782752625E0,-7.071676697E-1,-3.201561654E0,-1.058239380E1,1.107867960E1
1.792782625E0,-4.493878321E-1,-2.840838735E0,-1.163996215E1,1.199003891E1
1.802812625E0,-4.827915864E-1,-2.646352741E0,-1.232980496E1,1.261983997E1
1.812842625E0,-4.727407343E-1,-2.756473938E0,-1.243939815E1,1.274991211E1
1.822872625E0,-4.082857067E-1,-3.206161659E0,-1.145764363E1,1.190477918E1
1.832902625E0,-5.361982269E-1,-3.748717198E0,-9.323184214E0,1.006290977E1
1.842932625E0,-4.794836703E-1,-4.272608424E0,-6.974186947E0,8.192946412E0
1.852962625E0,-2.385258336E-1,-4.642357691E0,-5.166626063E0,6.949993121E0
1.862992625E0,-1.462292887E-1,-4.625359835E0,-4.229255998E0,6.269126168E0
1.873022625E0,3.028385911E-1,-4.327721940E0,-4.220744791E0,6.052732853E0
1.883052625E0,7.668709575E-1,-3.650060636E0,-4.774605922E0,6.058704104E0
1.893082625E0,7.180063610E-1,-2.799075581E0,-5.380028969E0,6.106968884E0
1.903112625E0,6.137123528E-1,-2.226369460E0,-6.053589621E0,6.479144320E0
1.913142625E0,6.022847007E-1,-2.121562212E0,-6.330566964E0,6.703719204E0
1.923171625E0,6.940695412E-1,-2.367445816E0,-5.869139203E0,6.366578925E0
1.933201625E0,7.712253790E-1,-2.779023140E0,-4.340920275E0,5.211654923E0
1.943231625E0,8.674785154E-1,-3.337164432E0,-2.274559872E0,4.130715197E0
1.953260875E0,9.708543646E-1,-3.708505896E0,-2.691028976E-1,3.842914330E0
1.963290875E0,1.059060124E0,-3.647969672E0,1.176891314E0,3.976727831E0
1.973320875E0,1.639271147E0,-3.018530940E0,1.728828710E0,3.845463255E0
1.983350875E0,2.832798813E0,-1.765439882E0,1.982131262E0,3.882057628E0
1.993380875E0,3.600364273E0,-2.312515318E-2,2.957157395E0,4.659177775E0
2.003410875E0,3.442105289E0,1.906312755E0,4.430327126E0,5.925362064E0
2.013440875E0,2.099593492E0,3.553908437E0,6.246774609E0,7.487372772E0
2.023470875E0,8.044271851E-1,4.318479831E0,7.061913309E0,8.316669449E0
2.033500875E0,8.350763161E-1,3.822698509E0,7.206038404E0,8.199839378E0
2.043530875E0,1.444201309E0,3.332923447E0,8.459779088E0,9.206625785E0
2.053560875E0,2.182476458E0,3.196506152E0,1.073801744E1,1.141428376E1
2.063590875E0,2.237061678E0,3.256637163E0,1.285478202E1,1.344825458E1
2.073620875E0,1.077871787E0,3.915304372E0,1.284980370E1,1.347623356E1
2.083650875E0,-7.109734762E-1,5.254819617E0,1.026640793E1,1.155498785E1
2.093680875E0,-1.881213875E0,6.707559176E0,6.374857868E0,9.442940674E0
2.103710875E0,-2.022982542E0,7.712787348E0,3.467187213E0,8.694879770E0
2.113740875E0,-1.753014695E0,7.866662090E0,2.490091749E0,8.435519539E0
2.123770875E0,-1.340268513E0,6.835170565E0,3.779815030E0,7.924826685E0
2.133800875E0,-2.371377777E-1,4.813183511E0,6.153266521E0,7.815731490E0
2.143830875E0,2.192994576E-1,2.819751336E0,7.765345631E0,8.264362202E0
2.153860875E0,6.822428897E-2,1.156862261E0,8.299160752E0,8.379681022E0
2.163890875E0,-1.305664983E-1,-3.186820239E-1,7.180075597E0,7.188330224E0
2.173920875E0,-2.519547683E-1,-1.375736407E0,5.474288424E0,5.650129699E0
2.183950875E0,-1.187016937E-1,-1.954175139E0,3.931654941E0,4.392129454E0
2.193979875E0,1.611244127E-1,-2.133886096E0,2.538461671E0,3.320123282E0
2.204009875E0,2.622392897E-1,-2.264104466E0,1.151061823E0,2.553405921E0
2.214039875E0,2.711579016E-1,-2.428529924E0,-2.356866449E-1,2.454960773E0
2.224069875E0,5.518733695E-2,-2.664705689E0,-1.536407953E0,3.076402355E0
2.234099875E0,-2.679309694E-1,-3.021968518E0,-2.507353315E0,3.935848241E0
2.244129875E0,-5.701897725E-1,-3.292860079E0,-3.105752102E0,4.562207799E0
2.254159875E0,-1.124405244E0,-3.230546010E0,-3.375048543E0,4.805379001E0
2.264189875E0,-1.886954086E0,-2.890953758E0,-3.671883615E0,5.039934388E0
2.274219875E0,-2.525007228E0,-2.515408439E0,-4.252738416E0,5.548758884E0
2.284249875E0,-2.956442281E0,-2.311383005E0,-5.050769917E0,6.292322235E0
2.294279875E0,-2.959265317E0,-2.190633324E0,-6.102382881E0,7.127075305E0
2.304309875E0,-2.386507155E0,-1.945298481E0,-7.415451170E0,8.029229018E0
2.314339875E0,-1.762608660E0,-1.468575574E0,-8.884984517E0,9.176407433E0
2.324369875E0,-1.536341879E0,-9.018996853E-1,-1.014265278E1,1.029792089E1
2.334399875E0,-1.502433291E0,-4.776146078E-1,-1.086297946E1,1.097678205E1
2.344429875E0,-1.425164090E0,-4.095614961E-1,-1.053743573E1,1.064125862E1
2.354459875E0,-1.227220492E0,-5.813354427E-1,-9.384830239E0,9.482566090E0
2.364489875E0,-1.109560918E0,-6.544197911E-1,-8.091871110E0,8.193764016E0
2.374519875E0,-1.013103421E0,-6.743544111E-1,-6.965617268E0,7.071135435E0
2.384549875E0,-7.769406668E-1,-6.669623610E-1,-6.321830639E0,6.404218783E0
2.394579875E0,-4.479462010E-1,-5.652979919E-1,-6.191205010E0,6.233076054E0
2.404609875E0,3.510842963E-1,-3.646636507E-1,-6.220242283E0,6.240805543E0
2.414639875E0,1.251514357E0,9.323736191E-2,-6.120066615E0,6.247415207E0
2.424669875E0,1.852135086E0,6.586145836E-1,-5.805411569E0,6.129190895E0
2.434699875E0,2.046135761E0,1.008786787E0,-5.387172512E0,5.850294866E0
2.444729875E0,1.893835674E0,1.077762882E0,-5.119165968E0,5.563636095E0
2.454759875E0,1.620958984E0,6.215546384E-1,-4.687871833E0,4.998997951E0
2.464788875E0,1.439532161E0,-4.265953124E-2,-3.459351359E0,3.747156856E0
2.474818875E0,1.652299036E0,-4.149160838E-1,-1.346859933E0,2.171699597E0
2.484848875E0,1.550466121E0,-3.531139380E-1,1.175871559E0,1.977702852E0
2.494878875E0,1.188326202E0,2.647560775E-2,3.860765052E0,4.039594894E0
2.504908875E0,1.779636337E0,7.654031602E-1,5.848834162E0,6.161315488E0
2.514938875E0,2.786858117E0,1.918202484E0,6.722508752E0,7.525835692E0
2.524968875E0,2.641875235E0,4.030583690E0,6.547892767E0,8.130191223E0
2.534998875E0,1.438020510E0,6.591382018E0,5.591621577E0,8.762445535E0
2.545028875E0,1.335426945E-1,7.994030235E0,4.526479325E0,9.187565952E0
2.555058875E0,-1.015820549E0,8.153762133E0,4.559286883E0,9.396958295E0
2.565088875E0,-2.461235155E0,8.172081460E0,6.658554831E0,1.082483008E1
2.575118875E0,-3.932075063E0,8.525339824E0,9.754426893E0,1.353851829E1
2.585148875E0,-4.490323652E0,8.169025705E0,1.267018425E1,1.572989372E1
2.595178875E0,-4.095890365E0,6.994039414E0,1.512818063E1,1.716259754E1
2.605208875E0,-2.918814571E0,5.716324561E0,1.646342624E1,1.767032112E1
2.615238875E0,-1.272020689E0,4.331599229E0,1.640896293E1,1.701866191E1
2.625268875E0,3.458584204E-1,3.345463970E0,1.574721366E1,1.610237514E1
2.635298875E0,6.013929272E-1,2.970484954E0,1.527619237E1,1.557393681E1
2.645328875E0,1.989012996E-1,2.414303648E0,1.409249022E1,1.429918545E1
2.655358875E0,-1.567275258E-1,1.395370772E0,1.183060594E1,1.191364176E1
2.665388875E0,-4.792243463E-1,1.302362037E-1,9.238421806E0,9.251759558E0
2.675418875E0,-8.452049361E-1,-1.163143048E0,6.716004894E0,6.868187161E0
2.685448875E0,-1.404683340E0,-2.277014826E0,4.468248659E0,5.207991732E0
2.695478875E0,-1.996037256E0,-3.183637015E0,2.385574524E0,4.450918465E0
2.705508875E0,-2.291048728E0,-3.928053056E0,2.690596282E-1,4.555315375E0
2.715538875E0,-2.410219368E0,-4.578652569E0,-2.061836997E0,5.569954089E0
2.725567875E0,-2.325325983E0,-5.030654325E0,-4.503789790E0,7.141340654E0
2.735597875E0,-2.143157441E0,-5.075620583E0,-6.802319738E0,8.753662201E0
2.745627875E0,-1.885528827E0,-4.817524192E0,-9.023141944E0,1.040100230E1
2.755657875E0,-1.704741690E0,-4.505900342E0,-1.098183347E1,1.199207857E1
2.765687875E0,-1.742394251E0,-4.381019603E0,-1.266628299E1,1.351532446E1
2.775717875E0,-1.920863405E0,-4.323844652E0,-1.399791384E1,1.477589052E1
2.785747875E0,-2.074378982E0,-4.156159371E0,-1.449415300E1,1.522028844E1
2.795777875E0,-1.728214168E0,-4.065307673E0,-1.453032622E1,1.518696252E1
2.805807875E0,-1.447789745E0,-4.118185213E0,-1.378105114E1,1.445589552E1
2.815837875E0,-1.268551974E0,-4.239962835E0,-1.206093478E1,1.284728208E1
2.825867875E0,-1.000925279E0,-4.245753332E0,-9.838320404E0,1.076200823E1
2.835897875E0,-1.789124102E-1,-4.071367727E0,-7.972970318E0,8.954121984E0
2.845927875E0,6.084017288E-1,-3.844365367E0,-6.432196834E0,7.518141649E0
2.855957875E0,1.018919427E0,-3.525933896E0,-5.130791402E0,6.308361677E0
2.865987875E0,1.395026371E0,-3.115974789E0,-4.500020090E0,5.648502303E0
2.876017875E0,1.662151741E0,-2.682894038E0,-4.566977141E0,5.551391630E0
2.886047875E0,1.725493459E0,-2.417757891E0,-5.026519175E0,5.838559403E0
2.896077875E0,1.576579202E0,-2.259974285E0,-5.278033063E0,5.954050618E0
2.906107875E0,1.387213322E0,-2.332235638E0,-5.113281330E0,5.788724370E0
2.916137875E0,1.175568820E0,-2.711999723E0,-4.606004382E0,5.472858569E0
2.926167875E0,9.667444298E-1,-3.108184836E0,-3.784447194E0,4.991738007E0
2.936197875E0,8.026645419E-1,-3.317145320E0,-3.107250744E0,4.615488124E0
2.946227875E0,7.258235036E-1,-3.381703551E0,-2.508663091E0,4.272719178E0
2.956258000E0,9.077925092E-1,-3.154635994E0,-1.797736393E0,3.742682412E0
2.966288000E0,1.826763287E0,-2.520862137E0,-1.157926455E0,3.321536345E0
2.976317000E0,3.003141069E0,-1.710361157E0,-2.870181817E-1,3.467934688E0
2.986347000E0,3.774682051E0,-7.608227438E-1,1.340810403E0,4.077358014E0
2.996377000E0,4.241022935E0,-6.299907088E-2,3.273683551E0,5.357914558E0
3.006407000E0,3.892079816E0,1.217986715E-1,5.939021031E0,7.101766753E0
3.016437000E0,3.106029260E0,2.561764580E-1,8.474430456E0,9.029341931E0
3.026467000E0,1.948542516E0,8.880160564E-1,9.411032197E0,9.651575906E0
3.036497000E0,9.485842205E-1,2.577163222E0,8.030019262E0,8.486624279E0
3.046527000E0,6.556411283E-1,4.485845854E0,5.132798751E0,6.848233446E0
3.056557000E0,7.661542350E-1,5.869747313E0,3.709615113E0,6.985855003E0
3.066587000E0,8.655465954E-1,6.725731738E0,5.935648942E0,9.012023451E0
3.076617000E0,2.885250822E-1,7.037323428E0,9.864963827E0,1.212124907E1
3.086647000E0,-1.371165492E0,7.581482273E0,1.181614928E1,1.410603956E1
3.096677000E0,-3.141075717E0,8.131816363E0,1.062424934E1,1.374290610E1
3.106707000E0,-4.047318421E0,8.520957336E0,7.767497991E0,1.221971871E1
3.116737000E0,-3.624749794E0,8.527759402E0,5.935265949E0,1.100403896E1
3.126767000E0,-2.338953065E0,7.800096803E0,5.839626551E0,1.002065117E1
3.136797000E0,-1.475012919E0,6.784672256E0,6.303334141E0,9.377604280E0
3.146827000E0,-7.853582454E-1,5.526129838E0,6.333606931E0,8.442125048E0
3.156857000E0,-2.450124971E-1,3.768952072E0,5.338259969E0,6.539269863E0
3.166887000E0,-2.954345177E-1,2.011700631E0,3.930841008E0,4.425577027E0
3.176917000E0,-2.369903182E-1,2.347575223E-1,3.096988295E0,3.114901605E0
3.186947000E0,-1.010720462E-1,-1.357823754E0,2.819175385E0,3.130758815E0
3.196977000E0,-1.799712313E-1,-2.459982682E0,2.590788404E0,3.577162143E0
3.207007000E0,-4.526069435E-1,-3.045683948E0,2.214065164E0,3.792509500E0
3.217037000E0,-9.046437105E-1,-3.129886777E0,1.970438000E0,3.807518535E0
3.227066000E0,-1.228953460E0,-2.765182196E0,1.794860732E0,3.518250166E0
3.237096000E0,-1.345704230E0,-2.344646061E0,1.440780249E0,3.063353188E0
3.247126000E0,-1.429341926E0,-2.063839084E0,7.474501616E-1,2.619376233E0
3.257156000E0,-1.405814631E0,-1.949007078E0,-5.219978982E-1,2.459151311E0
3.267186000E0,-1.189012226E0,-2.019625947E0,-2.075708932E0,3.130687881E0
3.277216000E0,-9.370660827E-1,-2.198849247E0,-3.991922193E0,4.652792027E0
3.287246000E0,-3.395952485E-1,-2.198928477E0,-6.125841326E0,6.517403112E0
3.297276000E0,6.835051574E-2,-2.202349098E0,-8.065873219E0,8.361418787E0
3.307306000E0,-5.921665326E-2,-2.205082671E0,-9.571127207E0,9.822035034E0
3.317336000E0,-6.629244932E-1,-2.366438341E0,-1.099516746E1,1.126646381E1
3.327366000E0,-1.086659055E0,-2.822625827E0,-1.248234595E1,1.284355889E1
3.337396000E0,-1.320285507E0,-3.486160258E0,-1.300094486E1,1.352483030E1
3.347426000E0,-1.615980079E0,-4.263376840E0,-1.240637074E1,1.321763249E1
3.357456000E0,-1.771916258E0,-4.840088305E0,-1.072720828E1,1.190122429E1
3.367486000E0,-1.395713712E0,-5.044581808E0,-8.564598615E0,1.003733888E1
3.377516000E0,-6.345097294E-1,-4.989127985E0,-6.798995011E0,8.456969540E0
3.387546000E0,-1.702572154E-1,-4.811113012E0,-5.682238802E0,7.447391069E0
3.397576000E0,2.415605385E-1,-4.647112062E0,-5.043289574E0,6.862125890E0
3.407606000E0,6.276082608E-1,-4.505018290E0,-4.880873219E0,6.671731806E0
3.417636000E0,1.132179702E0,-4.211689208E0,-5.065458122E0,6.684236894E0
3.427666000E0,1.403310414E0,-3.668705653E0,-5.529753358E0,6.782835210E0
3.437696000E0,1.281174943E0,-3.240469027E0,-6.028524361E0,6.963128228E0
3.447726000E0,1.138730119E0,-3.250262529E0,-6.117877418E0,7.020636502E0
3.457756000E0,8.651563668E-1,-3.571776944E0,-4.779650314E0,6.029190924E0
3.467785000E0,7.347662352E-1,-3.854241899E0,-2.683574946E0,4.753591960E0
3.477815000E0,1.020071548E0,-3.982923328E0,-7.204857266E-1,4.174125523E0
3.487845000E0,1.827468315E0,-3.977966058E0,1.091237791E0,4.511613272E0
3.497875000E0,3.394591984E0,-3.689413860E0,2.947137607E0,5.815552376E0
3.507905000E0,4.771448133E0,-2.912418010E0,5.024732850E0,7.516437731E0
3.517935000E0,5.336201164E0,-1.982660435E0,7.216058777E0,9.191163666E0
3.527965000E0,4.566550587E0,-1.056042815E0,8.947638018E0,1.010093247E1
3.537995000E0,2.916940246E0,1.641249114E-1,8.881189089E0,9.349384848E0
3.548025000E0,1.724149915E0,1.655841426E0,7.674614970E0,8.038297002E0
3.558055000E0,9.781080548E-1,2.923192674E0,6.579540237E0,7.265817263E0
3.568085000E0,7.433910976E-1,3.947970427E0,6.120692267E0,7.321336944E0
3.578115000E0,2.707281678E-1,5.033782586E0,7.333487824E0,8.899005817E0
3.588145000E0,-8.196289225E-1,6.483027849E0,8.635304316E0,1.082912380E1
3.598175000E0,-2.097654994E0,8.244079980E0,8.550506240E0,1.206135018E1
3.608205000E0,-2.662157764E0,9.479125947E0,7.945960860E0,1.265224117E1
3.618235000E0,-2.042028092E0,9.286992872E0,8.206188853E0,1.256024088E1
3.628265000E0,-1.024511193E0,7.939958693E0,1.017289925E1,1.294528665E1
3.638295000E0,-1.706041928E-1,6.319956606E0,1.260870896E1,1.410498135E1
3.648325000E0,4.189750656E-2,4.551709768E0,1.373619013E1,1.447075453E1
3.658355000E0,-2.362031368E-1,2.816899357E0,1.361087495E1,1.390131759E1
3.668385000E0,-7.193794334E-1,1.705883359E0,1.245780870E1,1.259462355E1
3.678415000E0,-1.252977477E0,1.096220203E0,1.054027630E1,1.067094541E1
3.688445000E0,-1.473172070E0,7.263782582E-1,8.174974077E0,8.338348906E0
3.698475000E0,-1.627069909E0,7.705837932E-1,5.716709307E0,5.993489900E0
3.708504000E0,-1.314265506E0,1.024151224E0,3.352622716E0,3.743829407E0
3.718534000E0,-7.515294716E-1,1.264410976E0,1.257937231E0,1.935442518E0
3.728564000E0,-1.310660698E-2,1.450648595E0,-4.546561003E-1,1.520284611E0
3.738594000E0,5.090229998E-1,1.395289204E0,-1.828779261E0,2.355922316E0
3.748624000E0,5.618364403E-1,1.058070629E0,-2.802897906E0,3.048181477E0
3.758654000E0,1.969918913E-1,5.553752670E-1,-3.304498377E0,3.356628818E0
3.768684000E0,-6.149572250E-1,1.139806518E-1,-3.487658899E0,3.543293465E0
3.778714000E0,-1.630882586E0,-5.964540035E-2,-3.853625602E0,4.184945145E0
3.788744000E0,-2.642918963E0,-1.456132114E-2,-4.678780582E0,5.373659871E0
3.798774000E0,-3.291111762E0,-3.669420183E-3,-5.998879563E0,6.842366995E0
3.808804000E0,-3.488954058E0,-2.424577206E-2,-7.689197341E0,8.443763617E0
3.818834000E0,-3.211709789E0,-2.468130192E-1,-9.773563660E0,1.029070178E1
3.828864000E0,-2.696875315E0,-6.324848387E-1,-1.175998795E1,1.208182478E1
3.838894000E0,-2.256080478E0,-8.187446773E-1,-1.288476069E1,1.310638394E1
3.848924000E0,-1.940951076E0,-6.776727059E-1,-1.269705571E1,1.286241638E1
3.858954000E0,-1.577566796E0,-9.397966594E-1,-1.171570581E1,1.185873929E1
3.868984000E0,-1.394204838E0,-1.682137524E0,-1.032250144E1,1.055118143E1
3.879014000E0,-1.527344769E0,-2.449047512E0,-8.836191257E0,9.295638315E0
3.889044000E0,-1.832968060E0,-2.889257481E0,-7.505935078E0,8.249038858E0
3.899074000E0,-1.935097429E0,-3.174365085E0,-6.905792066E0,7.842905062E0
3.909104000E0,-2.011633388E0,-3.450234965E0,-6.827513636E0,7.909850356E0
3.919134000E0,-1.836865960E0,-3.643073798E0,-7.043918502E0,8.140199698E0
3.929164000E0,-1.552842576E0,-3.687966674E0,-7.370908835E0,8.387056415E0
3.939194000E0,-1.181331397E0,-3.538244039E0,-7.656641214E0,8.516975369E0
3.949223000E0,-6.944229323E-1,-3.296620131E0,-7.771941290E0,8.470714191E0
3.959253417E0,-2.750573001E-1,-3.095856859E0,-7.566255539E0,8.179743828E0
3.969283417E0,-2.187448492E-1,-2.969574543E0,-6.321000919E0,6.987222258E0
3.979313417E0,-4.614918608E-2,-2.885933339E0,-4.229212729E0,5.120252073E0
3.989343417E0,7.936623149E-2,-2.912034432E0,-2.598123152E0,3.903394349E0
3.999373417E0,3.186934990E-1,-2.971305318E0,-1.420147764E0,3.308631215E0
4.009403417E0,1.000904814E0,-2.648936333E0,-5.780066228E-1,2.890115188E0
4.019433417E0,2.006575401E0,-1.692213738E0,-1.903409028E-1,2.631760216E0
4.029463417E0,2.836594241E0,-3.458929190E-1,3.054094291E-1,2.873879559E0
4.039493417E0,2.734760302E0,7.024517441E-1,2.109464323E0,3.524513029E0
4.049523417E0,2.255180153E0,1.177795001E0,5.069013230E0,5.671678209E0
4.059553417E0,1.122470254E0,1.963038056E0,7.893980282E0,8.211478708E0
4.069583417E0,-5.868299616E-1,3.508563280E0,9.669001996E0,1.030262031E1
4.079613417E0,-1.368319799E0,5.217198046E0,9.770147717E0,1.116007352E1
4.089643417E0,-1.177222997E0,6.153486961E0,8.441555656E0,1.051242682E1
4.099673417E0,-1.244917967E0,7.022284974E0,7.679165858E0,1.048007134E1
4.109703417E0,-2.301575616E0,8.624899195E0,8.748560205E0,1.249893764E1
4.119733417E0,-4.067040203E0,1.048612056E1,1.076157588E1,1.556634369E1
4.129763417E0,-5.499171835E0,1.166468067E1,1.228123097E1,1.780826494E1
4.139793417E0,-5.843048927E0,1.165315815E1,1.251087569E1,1.806818547E1
4.149823417E0,-5.216640222E0,1.042271569E1,1.231131256E1,1.695331102E1
4.159853417E0,-4.000475207E0,8.383343115E0,1.307144825E1,1.603580379E1
4.169883417E0,-2.524749074E0,6.429549215E0,1.543518752E1,1.691030676E1
4.179913417E0,-1.928370207E0,4.789426567E0,1.649895860E1,1.728793953E1
4.189942417E0,-1.955231146E0,3.228570528E0,1.531568213E1,1.577392518E1
4.199972417E0,-2.058778026E0,1.996083888E0,1.270734213E1,1.302687460E1
4.210002417E0,-1.844847701E0,1.158529595E0,9.714988593E0,9.956237102E0
4.220032417E0,-1.029871847E0,1.653320691E-1,7.163025700E0,7.238570846E0
4.230062417E0,2.154579100E-1,-9.876230827E-1,5.445397916E0,5.538427569E0
4.240092417E0,1.643472810E0,-2.080163925E0,4.322605042E0,5.070798673E0
4.250122417E0,2.602158023E0,-3.146243193E0,3.379270232E0,5.299956595E0
4.260152417E0,2.497600744E0,-4.143767074E0,2.154686104E0,5.296365475E0
4.270182417E0,1.840818385E0,-4.665036409E0,2.388692844E-1,5.020780374E0
4.280212417E0,1.167758475E0,-4.724996097E0,-2.018130814E0,5.268975229E0
4.290242417E0,8.378370059E-1,-4.581952737E0,-4.320921044E0,6.353473098E0
4.300272417E0,1.023696164E0,-4.568709379E0,-6.800833960E0,8.256658027E0
4.310302417E0,1.227431430E0,-4.833821259E0,-9.425105276E0,1.066325585E1
4.320332417E0,1.046260715E0,-5.220626854E0,-1.146895331E1,1.264462322E1
4.330362417E0,1.340674090E-1,-5.567179046E0,-1.286956261E1,1.402273505E1
4.340392417E0,-5.741241812E-1,-6.010864601E0,-1.451961412E1,1.572511704E1
4.350422417E0,-8.812826221E-1,-6.458248519E0,-1.611371713E1,1.738210323E1
4.360452417E0,-1.254147943E0,-6.712250397E0,-1.681249800E1,1.814627459E1
4.370482417E0,-1.756345853E0,-6.717668427E0,-1.636499889E1,1.777709224E1
4.380512417E0,-2.135095739E0,-6.497328969E0,-1.522578352E1,1.669126722E1
4.390542417E0,-1.803642519E0,-6.131289176E0,-1.372128207E1,1.513669102E1
4.400572417E0,-7.596462840E-1,-5.791546066E0,-1.178567360E1,1.315375119E1
4.410602417E0,3.930837135E-1,-5.366307308E0,-9.707920479E0,1.109934633E1
4.420631417E0,1.309099345E0,-4.986272789E0,-7.769526390E0,9.324280012E0
4.430661417E0,1.843448463E0,-4.933163699E0,-6.217877085E0,8.148398723E0
4.440691417E0,2.188488419E0,-5.175471146E0,-5.428878947E0,7.813303384E0
4.450721417E0,2.287661144E0,-5.440460528E0,-5.190124853E0,7.859351134E0
4.460751417E0,2.272097756E0,-5.597595677E0,-5.047123008E0,7.872036347E0
4.470781417E0,2.128530047E0,-5.535060875E0,-5.039320484E0,7.782177715E0
4.480811417E0,1.615717247E0,-5.082492816E0,-5.339428242E0,7.546639610E0
4.490841417E0,1.479889643E0,-4.355906689E0,-5.835615946E0,7.430909091E0
4.500871417E0,1.721160818E0,-3.630233898E0,-6.141121269E0,7.338553206E0
4.510901417E0,2.108845249E0,-3.044807158E0,-5.814808044E0,6.894205647E0
4.520931417E0,2.747677679E0,-2.444211572E0,-4.879354697E0,6.109992233E0
4.530961417E0,3.269963552E0,-1.587634240E0,-3.133767282E0,4.799348028E0
4.540991417E0,3.831077861E0,-6.772034669E-1,-1.078468641E0,4.037184257E0
4.551021417E0,4.053665574E0,-5.340495944E-2,6.476381904E-1,4.105422256E0
4.561051417E0,3.598719452E0,4.775286537E-1,2.004287531E0,4.146804048E0
4.571081417E0,2.420603439E0,1.550210890E0,4.221143571E0,5.106909815E0
4.581111417E0,1.321983831E0,3.275894968E0,7.488726722E0,8.280106099E0
4.591141417E0,5.601660369E-1,5.145515860E0,1.065274633E1,1.184361110E1
4.601171417E0,6.499417010E-1,5.906721012E0,1.247251094E1,1.381576297E1
4.611201417E0,1.182740576E0,6.064605190E0,1.299995902E1,1.439365298E1
4.621231417E0,1.069527810E0,7.095962230E0,1.291599067E1,1.477563483E1
4.631261417E0,-4.188370804E-1,8.391898177E0,1.183945746E1,1.451799340E1
4.641291417E0,-3.027995828E0,9.747982092E0,9.424412380E0,1.389285652E1
4.651320417E0,-5.130338827E0,1.080455057E1,6.399410326E0,1.356507066E1
4.661350417E0,-5.634084057E0,1.074205319E1,4.574027129E0,1.296365435E1
4.671380417E0,-4.880018356E0,9.686084636E0,4.584614682E0,1.177512236E1
4.681410417E0,-3.322641411E0,8.063481123E0,6.132431722E0,1.066144421E1
4.691440417E0,-2.096941487E0,6.192525312E0,8.778274586E0,1.094543914E1
4.701470417E0,-1.205984135E0,4.200374846E0,1.154435199E1,1.234380855E1
4.711500417E0,-8.706222709E-1,1.973327109E0,1.238198551E1,1.256843539E1
4.721530417E0,-1.481705935E0,4.142822456E-1,1.148338658E1,1.158599368E1
4.731560417E0,-1.948189052E0,-4.721720195E-1,9.459358850E0,9.669428982E0
4.741590417E0,-1.873825040E0,-1.274980988E0,6.666477224E0,7.041215476E0
4.751620417E0,-1.555649970E0,-1.914859923E0,4.008937590E0,4.707262044E0
4.761650417E0,-1.093041364E0,-2.433408549E0,1.741003198E0,3.185484064E0
4.771680417E0,-7.188720413E-1,-2.867541799E0,-8.185224831E-2,2.957409808E0
4.781710417E0,-5.093739789E-1,-3.191701202E0,-1.348119423E0,3.501977212E0
4.791740417E0,-4.758412935E-1,-3.381699458E0,-2.161809767E0,4.041749328E0
4.801770417E0,-5.770345232E-1,-3.362003112E0,-2.903362427E0,4.479458354E0
4.811800417E0,-5.638480652E-1,-3.303147378E0,-3.338153781E0,4.729902527E0
4.821830417E0,-5.334054505E-1,-3.002486181E0,-3.575960627E0,4.699674355E0
4.831860417E0,-2.381723876E-1,-2.599133551E0,-4.019174895E0,4.792284230E0
4.841890417E0,1.152749695E-1,-2.236994728E0,-4.792602482E0,5.290224218E0
4.851920417E0,3.332006969E-1,-1.882105575E0,-5.783123737E0,6.090801610E0
4.861950417E0,4.809084540E-1,-1.548523968E0,-6.932130264E0,7.119243599E0
4.871980417E0,5.434904357E-1,-1.325255933E0,-8.247285424E0,8.370746801E0
4.882009417E0,3.904157021E-1,-1.344299729E0,-9.488418927E0,9.591124017E0
4.892039417E0,1.091561873E-1,-1.705605032E0,-1.033837546E1,1.047869318E1
4.902069417E0,-2.763957643E-1,-2.220810512E0,-1.045824221E1,1.069500930E1
4.912099417E0,-6.424367266E-1,-2.750612981E0,-9.446887323E0,9.860135740E0
4.922129417E0,-7.294460730E-1,-3.073107974E0,-7.797535138E0,8.412944693E0
4.932159417E0,-6.302922059E-1,-3.191965204E0,-6.375516849E0,7.157731849E0
4.942189417E0,-2.654307000E-1,-3.435499689E0,-5.355364244E0,6.368126707E0
4.952219417E0,3.402632929E-1,-3.636024103E0,-4.943905034E0,6.146433712E0
4.962249667E0,7.638395416E-1,-3.627133996E0,-5.023368695E0,6.242898759E0
4.972279667E0,8.253950811E-1,-3.490156538E0,-5.376586713E0,6.462983396E0
4.982309667E0,6.408355397E-1,-3.399802730E0,-5.900753928E0,6.840191936E0
4.992339667E0,4.256380501E-1,-3.370504964E0,-6.440337328E0,7.281443288E0
5.002369667E0,2.158887036E-1,-3.403056121E0,-6.837097222E0,7.640241967E0
5.012399667E0,4.198929414E-2,-3.598604846E0,-6.789354706E0,7.684208305E0
5.022429667E0,-9.802197402E-2,-3.689710606E0,-6.135754695E0,7.160381159E0
5.032459667E0,-1.088740591E-2,-3.747422040E0,-4.921742917E0,6.186020031E0
5.042489667E0,2.312500700E-1,-3.781765076E0,-3.387241741E0,5.082187551E0
5.052519667E0,4.800807076E-1,-3.507301451E0,-1.769170990E0,3.957474819E0
5.062549667E0,1.046494458E0,-2.779073134E0,-5.431806064E-1,3.018848009E0
5.072579667E0,2.121585601E0,-1.401618230E0,-4.339452624E-2,2.543136294E0
5.082609667E0,2.894548919E0,7.489341849E-1,-3.269529104E-2,2.990047631E0
5.092638667E0,2.840479715E0,3.280979122E0,2.756482708E-1,4.348463060E0
5.102668667E0,2.457578599E0,5.761767367E0,1.143006699E0,6.367426487E0
5.112698667E0,2.260663964E0,7.420393821E0,2.942682613E0,8.296518968E0
5.122728667E0,2.365617100E0,7.501540895E0,4.895104172E0,9.264518602E0
5.132758667E0,2.843675511E0,6.911986021E0,7.467434086E0,1.056525499E1
5.142788667E0,2.438919842E0,6.413906159E0,1.111724914E1,1.306444605E1
5.152818667E0,8.609836476E-1,6.309335724E0,1.424404186E1,1.560261961E1
5.162848667E0,-5.985812936E-1,6.493459282E0,1.546942998E1,1.678769124E1
5.172878667E0,-9.146808216E-1,6.574601678E0,1.507392782E1,1.647074158E1
5.182908667E0,-2.483328567E-1,6.622657605E0,1.374906804E1,1.526296613E1
5.192938667E0,3.180253085E-1,6.665135872E0,1.275604710E1,1.439589921E1
5.202968667E0,6.861896872E-1,6.182994350E0,1.251544119E1,1.397628505E1
5.212998667E0,1.202686598E0,4.973904759E0,1.226557914E1,1.329024512E1
5.223028667E0,1.036139843E0,3.566557719E0,1.153930701E1,1.212227396E1
5.233058667E0,2.044575432E-1,2.424762563E0,1.025399780E1,1.053877351E1
5.243088667E0,-5.448369033E-1,1.389465962E0,8.427418842E0,8.558554274E0
5.253118667E0,-9.487822949E-1,2.832116443E-1,6.463239117E0,6.538643328E0
5.263148667E0,-1.092855423E0,-7.039161792E-1,4.708689675E0,4.884832588E0
5.273178667E0,-1.105499442E0,-1.377537642E0,3.301696392E0,3.744454304E0
5.283208667E0,-1.028536489E0,-1.648239899E0,2.054475353E0,2.827622862E0
5.293238667E0,-1.035389134E0,-1.664156312E0,7.989588690E-1,2.116549589E0
5.303268667E0,-1.139070719E0,-1.507228593E0,-4.213544530E-1,1.935654853E0
5.313298667E0,-1.189197875E0,-1.186055070E0,-1.608657319E0,2.325660462E0
5.323327667E0,-1.130742603E0,-8.924049765E-1,-2.803925262E0,3.152294775E0
5.333357667E0,-8.885532694E-1,-7.859271795E-1,-4.064622964E0,4.234190393E0
5.343387667E0,-6.535794000E-1,-8.778147116E-1,-5.349737468E0,5.460532546E0
5.353417667E0,-5.571217937E-1,-1.132860903E0,-6.554739271E0,6.675205273E0
5.363447667E0,-3.514760598E-1,-1.449650768E0,-7.702713180E0,7.845815006E0
5.373477667E0,1.096371207E-3,-1.662566308E0,-8.873232783E0,9.027645759E0
5.383507667E0,1.080629955E-1,-1.760249308E0,-1.006443106E1,1.021777509E1
5.393537667E0,3.295328116E-2,-1.835139569E0,-1.111000210E1,1.126059367E1
5.403567667E0,1.676150962E-1,-1.971930209E0,-1.168306432E1,1.184949769E1
5.413597667E0,4.309176107E-1,-2.278364948E0,-1.134954031E1,1.158398472E1
5.423627667E0,6.417240241E-1,-2.624014330E0,-1.006011348E1,1.041648425E1
5.433657667E0,7.975020352E-1,-2.789427091E0,-8.433416916E0,8.918488318E0
5.443687667E0,8.945692503E-1,-2.869185744E0,-7.295140615E0,7.889965625E0
5.453717667E0,8.242040764E-1,-3.075815527E0,-6.569921567E0,7.300946713E0
5.463747667E0,7.131976839E-1,-3.395566715E0,-6.210715415E0,7.114176707E0
5.473777667E0,7.104609677E-1,-3.625348257E0,-6.162585229E0,7.185079086E0
5.483807667E0,7.775007570E-1,-3.544643524E0,-6.362865229E0,7.324961369E0
5.493837667E0,6.083837121E-1,-3.173014963E0,-6.613181022E0,7.360184640E0
5.503867667E0,5.438572754E-1,-2.783232551E0,-6.858899150E0,7.422038920E0
5.513897667E0,8.215153804E-1,-2.647701693E0,-7.055179655E0,7.580288368E0
5.523927667E0,1.113828947E0,-2.653594517E0,-6.519298128E0,7.126249144E0
5.533957667E0,1.234219755E0,-2.594513081E0,-4.710375427E0,5.517466193E0
5.543986667E0,1.440864449E0,-2.335129425E0,-2.469304898E0,3.691393568E0
5.554016667E0,2.045155622E0,-1.874386958E0,-4.685011375E-1,2.813446517E0
5.564046667E0,3.099219593E0,-9.850757432E-1,1.242287743E0,3.481208862E0
5.574076667E0,3.739922108E0,2.281010520E-1,2.753837428E0,4.650018070E0
5.584106667E0,2.855445664E0,1.644960342E0,3.737392895E0,4.982727177E0
5.594136667E0,9.375301324E-1,3.088308104E0,4.357743300E0,5.422779394E0
5.604166667E0,-9.099863845E-1,4.369034858E0,4.631925673E0,6.432050704E0
5.614196667E0,-1.670731068E0,4.971291638E0,4.046731653E0,6.624282597E0
5.624226667E0,-1.453143310E0,5.369972343E0,4.518604880E0,7.167009035E0
5.634256667E0,-1.087371465E0,5.728478583E0,7.350224894E0,9.382091962E0
5.644286667E0,-3.322547636E-1,5.736168256E0,1.119038962E1,1.257930202E1
5.654316667E0,1.317907956E-1,6.071975605E0,1.375807041E1,1.503897464E1
5.664346667E0,-6.683025429E-1,6.921055638E0,1.371843097E1,1.537995409E1
5.674376667E0,-1.918134948E0,7.962648813E0,1.148075300E1,1.410286166E1
5.684406667E0,-2.388769004E0,8.454049401E0,8.564934829E0,1.226928186E1
5.694436667E0,-1.965352969E0,7.861857433E0,5.845757357E0,9.992211651E0
5.704466667E0,-1.010231196E0,5.985837933E0,5.249569986E0,8.025509820E0
5.714496667E0,3.236392933E-1,4.015519216E0,6.726063859E0,7.840221426E0
5.724526667E0,1.337277808E0,2.501817756E0,7.552992885E0,8.068153787E0
5.734556667E0,1.550951294E0,1.084559686E0,7.391555353E0,7.629994113E0
5.744586667E0,1.066615019E0,-2.827508837E-2,6.294025959E0,6.383825644E0
5.754616667E0,5.123547433E-1,-7.044576314E-1,4.438989192E0,4.523648194E0
5.764645667E0,-1.003854369E-1,-9.085260424E-1,2.544740996E0,2.703923731E0
5.774675667E0,-6.361307238E-1,-8.534037557E-1,7.048999733E-1,1.276653532E0
5.784705667E0,-1.018887414E0,-6.216101870E-1,-1.042805303E0,1.584920720E0
5.794735667E0,-1.271353521E0,-5.083487427E-1,-2.767096574E0,3.087325974E0
5.804765667E0,-1.450567611E0,-4.779557928E-1,-4.217528238E0,4.485547076E0
5.814795667E0,-1.443208306E0,-5.134138933E-1,-5.457316296E0,5.668222402E0
5.824825667E0,-1.268146177E0,-7.677607575E-1,-6.607708029E0,6.771961067E0
5.834855667E0,-1.171268777E0,-1.163341853E0,-7.305974336E0,7.490159932E0
5.844885667E0,-1.073124140E0,-1.553077488E0,-7.539877580E0,7.772605678E0
5.854915667E0,-8.868346996E-1,-1.974785697E0,-7.790165307E0,8.085352796E0
5.864945667E0,-9.124220422E-1,-2.392951956E0,-8.007929651E0,8.407477050E0
5.874975667E0,-1.179342394E0,-2.733999580E0,-8.048648492E0,8.581744853E0
5.885005667E0,-1.350633726E0,-3.030795183E0,-7.879368090E0,8.549524689E0
5.895035667E0,-1.185539930E0,-3.255575309E0,-7.687449024E0,8.432149667E0
5.905065667E0,-4.205276567E-1,-3.207155978E0,-7.663928014E0,8.318562711E0
5.915095667E0,6.413772111E-1,-2.816067882E0,-8.062046217E0,8.563772080E0
5.925125667E0,1.387234664E0,-2.168106633E0,-8.490621396E0,8.872190151E0
5.935155667E0,1.730486396E0,-1.375224776E0,-8.815811371E0,9.088693882E0
5.945185667E0,1.631198189E0,-8.270898235E-1,-8.941421843E0,9.126549714E0
5.955215667E0,1.060271521E0,-9.374396467E-1,-8.431087970E0,8.549047500E0
5.965245792E0,3.063214485E-1,-1.699092695E0,-7.156221880E0,7.361539270E0
5.975275792E0,-8.405387118E-2,-2.453040867E0,-6.023929619E0,6.504783056E0
5.985304792E0,-2.583454461E-1,-2.888989971E0,-5.325753359E0,6.064375835E0
5.995334792E0,-3.343456914E-1,-3.073818411E0,-4.848841002E0,5.750774359E0
6.005364792E0,-3.051637364E-1,-2.940622639E0,-4.616842781E0,5.482300947E0
6.015394792E0,5.635427674E-2,-2.431668710E0,-4.514712389E0,5.128237170E0
6.025424792E0,1.033060407E0,-1.621605686E0,-3.877724901E0,4.328229339E0
6.035454792E0,2.099957920E0,-5.244218615E-1,-2.215571991E0,3.097353839E0
6.045484792E0,2.846918377E0,4.893695578E-1,-5.017378807E-2,2.889107859E0
6.055514792E0,3.206038283E0,1.120749565E0,2.186821817E0,4.039424552E0
6.065544792E0,3.166061746E0,1.157449614E0,4.609616207E0,5.710709077E0
6.075574792E0,2.278339805E0,9.305475336E-1,6.918520870E0,7.343206520E0
6.085604792E0,2.827547209E-1,1.330549124E0,8.591092349E0,8.698113528E0
6.095634792E0,-1.666791653E0,2.621688015E0,9.502103165E0,9.997069922E0
6.105664792E0,-1.959713037E0,3.915856349E0,9.860964332E0,1.078948672E1
6.115694792E0,-3.458603208E-1,4.814451773E0,9.188549734E0,1.037921054E1
6.125724792E0,1.108956608E-1,6.027357257E0,8.723776197E0,1.060403718E1
6.135754792E0,-1.003619676E0,7.339432688E0,9.293596133E0,1.188467306E1
6.145784792E0,-2.318274387E0,7.910234372E0,9.399169366E0,1.250162344E1
6.155814792E0,-3.102064848E0,7.829600683E0,8.153147006E0,1.172174301E1
6.165844792E0,-2.771307447E0,7.347511202E0,6.200312049E0,1.000549526E1
6.175874792E0,-1.561087004E0,5.879771195E0,5.495755307E0,8.198294233E0
6.185904792E0,-4.350291900E-1,3.430631005E0,7.973526388E0,8.691122054E0
6.195933792E0,3.258525010E-1,1.128425790E0,1.110121958E1,1.116318059E1
6.205963792E0,3.090457394E-1,-6.756168249E-1,1.177271617E1,1.179613552E1
6.215993792E0,-3.229329497E-1,-1.910030123E0,1.073354082E1,1.090694271E1
6.226023792E0,-8.458039103E-1,-2.634159249E0,8.994701672E0,9.410570512E0
6.236053792E0,-6.486803835E-1,-3.014346381E0,6.862591667E0,7.523445669E0
6.246083792E0,-3.237264899E-1,-2.912524429E0,4.825007166E0,5.645200753E0
6.256113792E0,-1.746091153E-1,-2.516222664E0,2.840136484E0,3.798452327E0
6.266143792E0,-1.239618489E-1,-2.018638937E0,1.019925733E0,2.265064723E0
6.276173792E0,-3.628909211E-1,-1.558939614E0,-6.946913195E-1,1.744872078E0
6.286203792E0,-8.583997630E-1,-1.153678452E0,-2.335352204E0,2.742570699E0
6.296233792E0,-1.332923679E0,-7.739643610E-1,-3.772927009E0,4.075620761E0
6.306263792E0,-1.526623953E0,-6.664638859E-1,-5.054985175E0,5.322370705E0
6.316293792E0,-1.529047770E0,-6.473186401E-1,-6.243239967E0,6.460267316E0
6.326323792E0,-1.003624427E0,-5.237748671E-1,-7.330405172E0,7.417306930E0
6.336353792E0,2.836557403E-3,-3.639701709E-1,-8.338052922E0,8.345993581E0
6.346383792E0,9.861537505E-1,-3.059233993E-1,-9.210013694E0,9.267709565E0
6.356413792E0,1.296350514E0,-3.814147541E-1,-9.712340974E0,9.805894608E0
6.366443792E0,1.262068143E0,-5.503422761E-1,-9.813372674E0,9.909489182E0
6.376473792E0,1.009784249E0,-8.880920702E-1,-9.457397109E0,9.552524893E0
6.386503792E0,4.129873066E-1,-1.435692587E0,-8.388838329E0,8.520820396E0
6.396532792E0,-1.571680404E-1,-1.902070893E0,-7.201224976E0,7.449846752E0
6.406562792E0,-6.087602728E-1,-2.222741555E0,-6.371068287E0,6.775077875E0
6.416592792E0,-8.985905267E-1,-2.245387821E0,-5.763333251E0,6.250219321E0
6.426622792E0,-7.281236520E-1,-2.166753588E0,-5.746887957E0,6.184796387E0
6.436652792E0,-4.685218220E-1,-2.021037465E0,-6.148132081E0,6.488731249E0
6.446682792E0,-1.264336862E-1,-1.943488475E0,-6.596722280E0,6.878217630E0
6.456712792E0,2.148999029E-1,-1.823624648E0,-6.964950686E0,7.202938767E0
6.466742792E0,3.292954877E-1,-1.655577716E0,-7.189608312E0,7.385109395E0
6.476772792E0,3.243889794E-1,-1.668461471E0,-7.124258076E0,7.324209515E0
6.486802792E0,2.350457170E-1,-1.908232689E0,-6.734761593E0,7.003828396E0
6.496832792E0,-8.100524258E-2,-2.288502850E0,-5.948846692E0,6.374369311E0
6.506862792E0,-3.860025160E-1,-2.787172405E0,-4.464808157E0,5.277484233E0
6.516892792E0,-5.187938799E-1,-3.306251373E0,-2.661854294E0,4.276203165E0
6.526922792E0,-6.590452310E-1,-3.579019305E0,-1.086572882E0,3.797941604E0
6.536952792E0,-1.306415984E-1,-3.060500500E0,-2.861171257E-1,3.076620475E0
6.546982792E0,1.164325501E0,-1.815111979E0,4.725795704E-1,2.207626965E0
6.557012792E0,2.165875044E0,-1.110947585E-1,1.991731805E0,2.944546202E0
6.567042792E0,2.575791758E0,1.552007155E0,3.992404588E0,4.998272080E0
6.577072792E0,2.237505774E0,2.407264186E0,6.297227894E0,7.103269113E0
6.587102792E0,1.545926343E0,2.277293445E0,7.711565280E0,8.188051829E0
6.597132792E0,2.729340482E-1,2.331635129E0,8.298460255E0,8.624120707E0
6.607161792E0,-9.037035513E-1,3.276661538E0,7.802532168E0,8.510740225E0
6.617191792E0,-1.124573936E0,4.848350421E0,6.637348734E0,8.296117559E0
6.627221792E0,-6.539053092E-1,6.675346865E0,6.564093647E0,9.384837416E0
6.637251792E0,-9.855251748E-1,8.409266161E0,7.507087564E0,1.131562552E1
6.647281792E0,-1.977694833E0,9.793023194E0,7.703622422E0,1.261587803E1
6.657311792E0,-2.857752098E0,1.036987792E1,6.996080092E0,1.283145556E1
6.667341792E0,-3.741001504E0,1.038438954E1,6.531737494E0,1.282553051E1
6.677371792E0,-3.678234860E0,9.825739535E0,6.956093323E0,1.258816124E1
6.687401792E0,-2.716811104E0,8.627103596E0,8.365850000E0,1.232052861E1
6.697431792E0,-1.309303120E0,6.306642496E0,1.051326334E1,1.232950608E1
6.707461792E0,-2.001939728E-1,4.043529133E0,1.165501990E1,1.233813983E1
6.717491792E0,-8.630501267E-2,2.705748757E0,1.068856286E1,1.102605555E1
6.727521792E0,-2.950586148E-1,1.694024329E0,8.271471262E0,8.448314320E0
6.737551792E0,-2.742510056E-1,3.812805605E-1,5.343132454E0,5.363734976E0
6.747581792E0,1.958033717E-1,-1.072263576E0,2.805297019E0,3.009614510E0
6.757611792E0,9.359089918E-1,-2.125179884E0,1.256749662E0,2.640404305E0
6.767641792E0,1.100548970E0,-2.690656216E0,7.579441595E-1,3.004216746E0
6.777671792E0,7.902070490E-1,-3.220635856E0,5.600603485E-1,3.363122075E0
6.787701792E0,3.948110906E-1,-3.446325809E0,-1.670198679E-2,3.468907081E0
6.797731792E0,-1.179778084E-1,-3.300448888E0,-1.346937701E0,3.566668305E0
6.807761792E0,-5.551220094E-1,-3.033763814E0,-3.262474439E0,4.489501396E0
6.817790792E0,-1.126659931E0,-2.751497957E0,-5.203268225E0,5.992837711E0
6.827820792E0,-1.474122535E0,-2.599322416E0,-7.139159120E0,7.739322142E0
6.837850792E0,-1.540013931E0,-2.291343135E0,-9.231272416E0,9.635262668E0
6.847880792E0,-1.345230606E0,-1.838487977E0,-1.151160992E1,1.173485605E1
6.857910792E0,-1.101182296E0,-1.523322469E0,-1.358760303E1,1.371699930E1
6.867940792E0,-1.033415991E0,-1.354240873E0,-1.466305918E1,1.476168085E1
6.877970792E0,-1.197339612E0,-1.530984076E0,-1.453893566E1,1.466827135E1
6.888000792E0,-1.424534784E0,-2.100082465E0,-1.309659011E1,1.334017684E1
6.898030792E0,-1.409662829E0,-2.802273424E0,-1.080066802E1,1.124696916E1
6.908060792E0,-1.344566362E0,-3.415317732E0,-8.589939278E0,9.341269224E0
6.918090792E0,-1.416579793E0,-3.912250371E0,-6.769330916E0,7.945831758E0
6.928120792E0,-1.342509604E0,-4.288574247E0,-5.608973774E0,7.187126540E0
6.938150792E0,-1.164150304E0,-4.589343910E0,-5.094388391E0,6.954862798E0
6.948180792E0,-5.566297871E-1,-4.731031301E0,-5.122295982E0,6.995027521E0
6.958210500E0,1.897443406E-1,-4.503522572E0,-5.541714422E0,7.143410754E0
6.968240500E0,8.492196344E-1,-4.373372907E0,-6.640522018E0,7.996505314E0
6.978270500E0,1.414202169E0,-4.448526000E0,-7.966577557E0,9.233401829E0
6.988300500E0,1.755291016E0,-4.251372507E0,-8.915025757E0,1.003159504E1
6.998330500E0,8.638677867E-1,-3.728310415E0,-9.057896624E0,9.833211955E0
7.008360500E0,-2.549170408E-1,-3.530107346E0,-8.376835164E0,9.093844509E0
7.018390500E0,-5.429546480E-1,-3.556520973E0,-7.136047232E0,7.991671370E0
7.028419500E0,3.262830022E-1,-3.303539434E0,-5.170764138E0,6.144642801E0
7.038449500E0,1.607199754E0,-2.774307361E0,-3.145545913E0,4.491584517E0
7.048479500E0,2.081196836E0,-1.548804635E0,-1.350698045E0,2.924818161E0
7.058509500E0,2.206125814E0,3.486057347E-1,3.939812976E-1,2.267981113E0
7.068539500E0,2.444747908E0,2.301171720E0,2.655213611E0,4.280460599E0
7.078569500E0,3.372182530E0,3.331700209E0,5.831600078E0,7.515277824E0
7.088599500E0,3.851985458E0,3.656508361E0,9.033249441E0,1.047890456E1
7.098629500E0,3.443294028E0,4.713414225E0,1.067141883E1,1.216354090E1
7.108659500E0,2.367406348E0,6.162746612E0,1.062394645E1,1.250808926E1
7.118689500E0,1.559551086E0,7.441822112E0,9.929209524E0,1.250608323E1
7.128719500E0,1.534333068E0,8.246662695E0,9.806747194E0,1.290480198E1
7.138749500E0,1.826860497E0,8.577860684E0,1.130519619E1,1.430819954E1
7.148779500E0,1.647756334E0,9.078929644E0,1.257783332E1,1.559948575E1
7.158809500E0,3.029068208E-1,1.002108215E1,1.130555989E1,1.511057657E1
7.168839500E0,-1.343614874E0,1.098169080E1,8.542770959E0,1.397790290E1
7.178869500E0,-2.216756052E0,1.133187587E1,6.410435836E0,1.320678256E1
7.188899500E0,-1.680881834E0,1.076857031E1,5.850780115E0,1.237008886E1
7.198929500E0,3.228516734E-1,9.214277483E0,7.646952962E0,1.197844031E1
7.208959500E0,2.962112326E0,6.148838425E0,1.209437852E1,1.388727169E1
7.218989500E0,4.182622114E0,3.022130486E0,1.628511072E1,1.708310369E1
7.229018500E0,3.515435220E0,1.007423217E0,1.748867703E1,1.786692505E1
7.239048500E0,1.837622005E0,-2.119984049E-1,1.519260408E1,1.530480372E1
7.249078500E0,-1.246974286E-1,-9.334492144E-1,1.131467336E1,1.135379717E1
7.259108500E0,-1.415894499E0,-1.221952004E0,7.737843837E0,7.960662735E0
7.269138500E0,-1.745397088E0,-9.865322846E-1,4.982573841E0,5.370819213E0
7.279168500E0,-8.906720079E-1,-6.684764975E-1,2.782257235E0,2.996850476E0
7.289198500E0,1.782257643E-1,-2.947391376E-1,9.995750839E-1,1.057253957E0
7.299228500E0,7.962548241E-1,-1.096616060E-2,-6.967056853E-1,1.058083557E0
7.309258500E0,8.943069296E-1,-3.273452586E-1,-2.627238777E0,2.794516666E0
7.319288500E0,4.259322381E-1,-9.546632051E-1,-4.409027474E0,4.531260682E0
7.329318500E0,-5.993489599E-1,-1.476588598E0,-6.131522480E0,6.335226988E0
7.339348500E0,-1.975440293E0,-2.221845469E0,-8.368054985E0,8.880501443E0
7.349378500E0,-3.409524018E0,-3.058394918E0,-1.034914720E1,1.131739728E1
7.359408500E0,-4.701408137E0,-3.667607546E0,-1.136684105E1,1.283587391E1
7.369438500E0,-5.214329987E0,-3.710418520E0,-1.170030074E1,1.333617187E1
7.379468500E0,-4.601321931E0,-3.501336706E0,-1.191213952E1,1.324124579E1
7.389498500E0,-3.236274819E0,-3.524795151E0,-1.136430570E1,1.233065690E1
7.399528500E0,-1.459717042E0,-3.427306863E0,-9.499418709E0,1.020373275E1
7.409558500E0,-6.163099784E-1,-3.553600289E0,-7.443043596E0,8.270841007E0
7.419588500E0,-8.160745463E-1,-4.306733944E0,-5.622749230E0,7.129463082E0
7.429618500E0,-1.442057573E0,-5.320175700E0,-4.373720816E0,7.036564027E0
7.439647500E0,-1.973718873E0,-5.884617952E0,-3.216090231E0,6.990531525E0
7.449677500E0,-2.062538078E0,-5.967140876E0,-2.135390292E0,6.664887490E0
7.459707500E0,-1.989504601E0,-5.884969370E0,-1.677584297E0,6.434693630E0
7.469737500E0,-2.088230744E0,-6.017902309E0,-1.611096193E0,6.570501258E0
7.479767500E0,-1.763936270E0,-6.152663088E0,-1.800044289E0,6.648826489E0
7.489797500E0,-8.685068214E-1,-6.205656989E0,-2.044151509E0,6.591133298E0
7.499827500E0,8.875927180E-2,-6.436240184E0,-2.324178175E0,6.843600668E0
7.509857500E0,1.088240800E0,-6.563197269E0,-2.446047598E0,7.088227936E0
7.519887500E0,1.530612777E0,-6.659197440E0,-2.216377153E0,7.183314952E0
7.529917500E0,1.180055096E0,-6.824736793E0,-1.421359307E0,7.070348266E0
7.539947500E0,8.712589596E-1,-7.160530109E0,-9.444937277E-1,7.274912509E0
7.549977500E0,8.362541646E-1,-7.074435706E0,-7.705384773E-1,7.165241875E0
7.560007500E0,6.617774887E-1,-6.405494354E0,-7.527489084E-1,6.483435685E0
7.570037500E0,8.175537457E-1,-5.549735633E0,-8.011626846E-1,5.666552864E0
7.580067500E0,1.806589077E0,-4.032343994E0,-4.905895793E-1,4.445699081E0
7.590097500E0,3.570608670E0,-2.267212261E0,5.835459825E-1,4.269663175E0
7.600127500E0,6.687433645E0,-4.004389626E-1,2.170687010E0,7.042300917E0
7.610157500E0,7.597094339E0,1.436726375E0,2.261520874E0,8.055712367E0
7.620187500E0,4.994547769E0,3.539916050E0,2.341911610E0,6.554468937E0
7.630216500E0,5.747362751E-1,5.564706259E0,1.896295305E0,5.906963130E0
7.640246500E0,-2.932392975E0,6.306767042E0,1.493228897E0,7.113646858E0
7.650276500E0,-4.741777899E0,7.702138399E0,2.163444064E0,9.299886224E0
7.660306500E0,-5.962069586E0,1.042787411E1,3.428042443E0,1.249152942E1
7.670336500E0,-7.459660213E0,1.287566476E1,4.942879432E0,1.567996590E1
7.680366500E0,-8.951053376E0,1.481648778E1,6.426595201E0,1.846485290E1
7.690396500E0,-8.808100063E0,1.709147333E1,7.445640344E0,2.061889055E1
7.700426500E0,-7.024771210E0,1.816600797E1,7.732879550E0,2.095587465E1
7.710456500E0,-4.450251514E0,1.782543572E1,6.573928664E0,1.951326306E1
7.720486500E0,-2.222983337E0,1.587279548E1,5.190050594E0,1.684707441E1
7.730516500E0,4.344906615E-1,1.360481723E1,5.049087088E0,1.451802722E1
7.740546500E0,2.662390484E0,1.195593399E1,5.539925759E0,1.344334252E1
7.750576500E0,4.113651867E0,9.406970136E0,5.414248044E0,1.160720900E1
7.760606500E0,4.196268931E0,6.029309642E0,4.943665298E0,8.854438112E0
7.770636500E0,3.834334468E0,2.990294736E0,4.559792375E0,6.666010045E0
7.780666500E0,3.663631732E0,2.007793522E-1,4.156408170E0,5.544207670E0
7.790696500E0,3.611148293E0,-2.217907369E0,3.247174029E0,5.338880432E0
7.800726500E0,3.205893272E0,-4.358468354E0,1.847571627E0,5.717299973E0
7.810756500E0,2.276397944E0,-6.224545834E0,3.759185176E-1,6.638393870E0
7.820786500E0,7.781541833E-1,-7.328841042E0,-1.025670184E0,7.441064055E0
7.830816500E0,-8.307332236E-1,-8.047069159E0,-2.444918793E0,8.451216932E0
7.840845500E0,-2.080151938E0,-8.496830555E0,-3.975599690E0,9.608774868E0
7.850875500E0,-3.449519851E0,-8.679008744E0,-5.337165370E0,1.075684499E1
7.860905500E0,-4.999755884E0,-8.840777813E0,-6.492392165E0,1.205437959E1
7.870935500E0,-6.275248795E0,-9.024071651E0,-7.367734382E0,1.323238930E1
7.880965500E0,-7.423035593E0,-8.922732972E0,-8.004161121E0,1.409905019E1
7.890995500E0,-7.899418777E0,-8.811948701E0,-8.468409578E0,1.455215509E1
7.901025500E0,-7.453023623E0,-8.877431084E0,-8.502789452E0,1.437545729E1
7.911055500E0,-6.442346431E0,-8.970195991E0,-7.667219412E0,1.344449691E1
7.921085500E0,-5.195454590E0,-8.701821072E0,-6.212903443E0,1.188758207E1
7.931115500E0,-3.887398827E0,-8.140875455E0,-4.778670906E0,1.020888919E1
7.941145500E0,-2.422486242E0,-7.653432262E0,-3.581544718E0,8.790388361E0
7.951175500E0,-1.079846245E0,-7.096028304E0,-2.510012921E0,7.603936511E0
7.961205875E0,-4.175949857E-1,-6.613838834E0,-1.727188274E0,6.848388791E0
7.971235875E0,-2.833358976E-1,-6.256521918E0,-1.314376895E0,6.399369685E0
7.981265875E0,-6.265899682E-1,-6.131382147E0,-1.232435185E0,6.285328830E0
7.991295875E0,-1.332645059E0,-6.380244323E0,-1.226540899E0,6.632334661E0
8.001325875E0,-2.059545766E0,-6.723709770E0,-1.076442288E0,7.113981293E0
8.011355875E0,-2.177803656E0,-6.709412159E0,-5.627600080E-1,7.076421349E0
8.021384875E0,-1.393609299E0,-6.183048729E0,-4.345293993E-1,6.353035044E0
8.031414875E0,7.670465201E-1,-5.343655779E0,-1.071145588E0,5.503668806E0
8.041444875E0,3.025356980E0,-4.226590253E0,-1.698330511E0,5.468196827E0
8.051474875E0,4.314152892E0,-2.966087263E0,-2.127614373E0,5.651223916E0
8.061504875E0,4.195080192E0,-2.381555732E0,-2.473024896E0,5.420918526E0
8.071534875E0,3.185800484E0,-2.059941915E0,-2.155673991E0,4.363440818E0
8.081564875E0,2.488871143E0,-1.434194530E0,-1.045513149E0,3.056876063E0
8.091594875E0,2.753667566E0,-6.512956238E-1,2.553318277E-1,2.841138046E0
8.101624875E0,3.364559222E0,5.695895559E-1,1.916324650E0,3.913692782E0
8.111654875E0,3.349921888E0,2.641719407E0,3.286675187E0,5.385433303E0
8.121684875E0,3.161445954E0,4.783741611E0,3.597645318E0,6.769193169E0
8.131714875E0,2.938645695E0,6.535224189E0,3.073911089E0,7.797032968E0
8.141744875E0,1.727090187E0,8.254698524E0,2.472616176E0,8.788442353E0
8.151774875E0,-5.532500964E-1,9.349661576E0,2.208301563E0,9.622829783E0
8.161804875E0,-3.655008550E0,1.067323731E1,2.152480534E0,1.148521896E1
8.171834875E0,-6.198832703E0,1.225893788E1,2.375846803E0,1.394100903E1
8.181864875E0,-7.757589299E0,1.376216580E1,2.835845505E0,1.605052707E1
8.191894875E0,-7.764004864E0,1.494580831E1,3.205216456E0,1.714439763E1
8.201924875E0,-6.153182906E0,1.560420363E1,3.599203601E0,1.715538100E1
8.211954875E0,-4.161449054E0,1.575391690E1,4.584701221E0,1.692699150E1
8.221984875E0,-1.424511541E0,1.552203270E1,5.756891373E0,1.661639343E1
8.232013875E0,1.761947194E0,1.532903717E1,7.002842982E0,1.694472331E1
8.242043875E0,5.080846240E0,1.484920997E1,8.313058999E0,1.776009530E1
8.252073875E0,7.252208018E0,1.363549406E1,9.218006837E0,1.798590753E1
8.262103875E0,6.948912942E0,1.151617660E1,8.945288022E0,1.615326259E1
8.272133875E0,4.967958140E0,8.519981436E0,7.451706830E0,1.236117415E1
8.282163875E0,3.109289375E0,5.061674974E0,5.624013398E0,8.180327662E0
8.292193875E0,2.093596734E0,1.751589582E0,4.131317475E0,4.951666126E0
8.302223875E0,2.354026895E0,-1.308146102E0,2.957631312E0,4.000033978E0
8.312253875E0,3.267697464E0,-3.928032006E0,1.940953415E0,5.465764568E0
8.322283875E0,3.746037711E0,-5.923200220E0,9.830809656E-1,7.076973051E0
8.332313875E0,3.417815663E0,-7.324475511E0,-8.365260601E-2,8.083093663E0
8.342343875E0,2.112351678E0,-8.065580859E0,-1.338118638E0,8.444299005E0
8.352373875E0,-1.130202466E-1,-8.327066004E0,-2.917627879E0,8.824134759E0
8.362403875E0,-2.306902284E0,-8.669690037E0,-5.024496038E0,1.028255240E1
8.372433875E0,-4.280465913E0,-9.285726950E0,-7.152978430E0,1.247847001E1
8.382463875E0,-5.826056918E0,-9.601710484E0,-8.809130927E0,1.427363202E1
8.392493875E0,-6.717411150E0,-9.462806368E0,-1.002882854E1,1.533772208E1
8.402523875E0,-6.638721076E0,-9.412020961E0,-1.028476000E1,1.544134205E1
8.412553875E0,-5.439087017E0,-9.545394196E0,-9.461484897E0,1.449889356E1
8.422583875E0,-4.002906772E0,-9.382489014E0,-7.909215202E0,1.290775146E1
8.432612875E0,-2.998181460E0,-9.220097217E0,-6.078202890E0,1.144306931E1
8.442642875E0,-2.371841315E0,-9.305225660E0,-4.147168692E0,1.046001262E1
8.452672875E0,-2.111444921E0,-9.263537936E0,-2.503635655E0,9.825452979E0
8.462702875E0,-2.105837295E0,-8.757435694E0,-1.266664493E0,9.095695113E0
8.472732875E0,-1.790434682E0,-8.053627980E0,-5.697167328E-1,8.269894628E0
8.482762875E0,-1.071318958E0,-7.281468655E0,-2.553531700E-1,7.364286478E0
8.492792875E0,-8.881715924E-2,-6.399921958E0,-2.677352339E-1,6.406135474E0
8.502822875E0,7.562940753E-1,-5.547641745E0,-5.944905084E-1,5.630428813E0
8.512852875E0,1.212803158E0,-4.830650899E0,-1.169417403E0,5.116015703E0
8.522882875E0,1.237677360E0,-4.285553575E0,-1.768532766E0,4.798491725E0
8.532912875E0,9.479302825E-1,-4.198685001E0,-2.218064367E0,4.842245046E0
8.542942875E0,6.699910726E-1,-4.639605407E0,-2.131107207E0,5.149412034E0
8.552972875E0,1.170714900E-1,-4.937770720E0,-1.549314512E0,5.176452538E0
8.563002875E0,-3.712968783E-1,-4.802243371E0,-1.018603093E0,4.923104206E0
8.573032875E0,-1.795979597E-1,-4.413692967E0,-6.953134632E-1,4.471733651E0
8.583062875E0,-1.021172360E-2,-3.477259626E0,-5.372258019E-1,3.518529572E0
8.593092875E0,4.059150262E-1,-1.899317147E0,-6.349748755E-1,2.043371167E0
8.603122875E0,1.010275342E0,6.949591219E-2,-6.517350420E-1,1.204260983E0
8.613152875E0,1.589985113E0,2.326900054E0,-2.687608355E-1,2.831033187E0
8.623181875E0,1.993716204E0,4.348491835E0,1.648569828E-1,4.786592041E0
8.633211875E0,1.929399171E0,6.047581607E0,3.956600332E-1,6.360217866E0
8.643241875E0,1.041612691E0,8.262890473E0,5.955956322E-1,8.349553888E0
8.653271875E0,2.424459531E-1,1.077851994E1,1.119022590E0,1.083916434E1
8.663301875E0,1.104656712E-1,1.289255035E1,1.866380658E0,1.302741087E1
8.673331875E0,-5.045192550E-1,1.485081211E1,2.852775825E0,1.513074651E1
8.683361875E0,-1.700020648E0,1.681775932E1,4.067012721E0,1.738584744E1
8.693391875E0,-2.791052032E0,1.857587089E1,4.926735855E0,1.941972391E1
8.703421875E0,-2.788276944E0,1.936153436E1,5.645926423E0,2.035976390E1
8.713451875E0,-1.573534995E0,1.987352124E1,7.045510114E0,2.114407888E1
8.723481875E0,-4.928545714E-1,1.991918799E1,8.303013482E0,2.158603689E1
8.733511875E0,-3.597656574E-1,1.887291295E1,8.557577278E0,2.072554953E1
8.743541875E0,-7.545930471E-1,1.693454927E1,8.030067794E0,1.875714153E1
8.753571875E0,-1.185371238E0,1.437357289E1,7.199833923E0,1.611962503E1
8.763601875E0,-1.369504591E0,1.113312550E1,6.245609844E0,1.283860072E1
8.773631875E0,-1.421386497E0,7.749237721E0,5.328621418E0,9.511321204E0
8.783661875E0,-1.341167814E0,4.151978611E0,4.166504849E0,6.033027445E0
8.793691875E0,-9.296289361E-1,1.721455371E-1,2.879957777E0,3.031171529E0
8.803721875E0,-5.374899499E-1,-3.092364317E0,1.652605723E0,3.547212736E0
8.813751875E0,1.545787472E-1,-5.688574845E0,2.133498426E-1,5.694672643E0
8.823781875E0,7.962017606E-1,-7.894284922E0,-1.171025972E0,8.020285126E0
8.833810875E0,1.316089253E0,-9.297751164E0,-2.204908424E0,9.645822349E0
8.843840875E0,1.390448002E0,-1.048098671E1,-2.693767228E0,1.091058247E1
8.853870875E0,4.755049324E-1,-1.138943586E1,-2.588197503E0,1.168948760E1
8.863900875E0,-1.329201634E0,-1.191839604E1,-1.872987134E0,1.213766954E1
8.873930875E0,-3.138260575E0,-1.248523682E1,-1.207681070E0,1.293013192E1
8.883960875E0,-4.443293912E0,-1.327621073E1,-1.036695036E0,1.403835349E1
8.893990875E0,-5.496441185E0,-1.389497946E1,-1.195167517E0,1.499032172E1
8.904020875E0,-6.301926717E0,-1.399646841E1,-1.571910054E0,1.543004568E1
8.914050875E0,-6.687454695E0,-1.396820765E1,-2.221288229E0,1.564503105E1
8.924080875E0,-6.633267962E0,-1.380509372E1,-2.837233341E0,1.557660905E1
8.934110875E0,-5.862582720E0,-1.317822543E1,-3.285675021E0,1.479294298E1
8.944140875E0,-4.643115198E0,-1.224848539E1,-3.477174257E0,1.355266225E1
8.954170875E0,-3.341834019E0,-1.130555170E1,-3.579026322E0,1.232042139E1
8.964199875E0,-1.995704696E0,-1.068830325E1,-3.802416272E0,1.151872532E1
8.974229875E0,-1.248064646E0,-1.012467610E1,-3.856632240E0,1.090597743E1
8.984259875E0,-1.011444055E0,-9.584319111E0,-3.621945177E0,1.029566310E1
8.994289875E0,-1.141497533E0,-9.030882488E0,-3.073063243E0,9.607474841E0
9.004319875E0,-1.306447632E0,-8.558266080E0,-2.191000529E0,8.930353130E0
9.014348875E0,-1.070102737E0,-8.164340916E0,-1.404067629E0,8.353022708E0
9.024378875E0,-7.083099233E-1,-7.695398313E0,-9.012120527E-1,7.780298279E0
9.034408875E0,-3.862970330E-1,-7.056508142E0,-7.408088940E-1,7.105795549E0
9.044438875E0,-4.793839753E-3,-6.429204229E0,-8.104734984E-1,6.480089297E0
9.054468875E0,6.236169514E-1,-5.803452752E0,-1.123050152E0,5.943921566E0
9.064498875E0,1.471815370E0,-4.892758269E0,-1.475660645E0,5.318166818E0
9.074528875E0,2.122949610E0,-3.919164119E0,-1.805363793E0,4.808960476E0
9.084558875E0,2.947947738E0,-3.062248233E0,-1.912678034E0,4.661126191E0
9.094588875E0,3.472016428E0,-2.181084529E0,-1.154855205E0,4.259779142E0
9.104618875E0,3.787422257E0,-1.074593691E0,4.615856355E-1,3.963884490E0
9.114648875E0,3.935785706E0,5.990355492E-1,1.839996267E0,4.385754094E0
9.124678875E0,3.785301472E0,3.092123997E0,2.741147801E0,5.603894120E0
9.134708875E0,3.213694042E0,6.899259557E0,3.230143429E0,8.268097629E0
9.144738875E0,1.677756790E0,1.218333338E1,3.577846061E0,1.280817951E1
9.154768875E0,-4.487273160E-1,1.685889214E1,3.992388800E0,1.733097715E1
9.164798875E0,-1.342853274E0,1.900456652E1,4.107043929E0,1.948960270E1
9.174828875E0,-1.000586360E0,2.041379929E1,5.084206050E0,2.106118528E1
9.184858875E0,-8.760010515E-1,2.212392977E1,7.447065310E0,2.336010334E1
9.194888875E0,-2.130792481E0,2.264604169E1,9.264092252E0,2.456027048E1
9.204917875E0,-4.448696739E0,2.142555938E1,8.874813870E0,2.361372098E1
9.214947875E0,-6.407046790E0,2.002998337E1,7.209373071E0,2.223118401E1
9.224977875E0,-5.874956013E0,1.889768877E1,6.457174970E0,2.081664857E1
9.235007875E0,-2.624825924E0,1.716144930E1,6.863728951E0,1.866857864E1
9.245037875E0,9.236467959E-1,1.491753235E1,6.699880028E0,1.637908078E1
9.255067875E0,4.006739914E0,1.209683435E1,5.736395713E0,1.397474872E1
9.265097875E0,5.688152676E0,8.657962276E0,4.263755740E0,1.120245530E1
9.275127875E0,5.836619328E0,4.941071473E0,2.533342727E0,8.055938050E0
9.285157875E0,5.504986891E0,1.410256029E0,9.438715839E-1,5.760607286E0
9.295187875E0,5.172245822E0,-1.787742916E0,-2.612436551E-1,5.478722463E0
9.305217875E0,4.736949853E0,-4.401252431E0,-9.909919560E-1,6.541542779E0
9.315247875E0,4.102423751E0,-6.352163070E0,-1.410976114E0,7.692249989E0
9.325277875E0,3.206422445E0,-7.640767193E0,-1.629853476E0,8.445051246E0
9.335307875E0,2.124164223E0,-8.248246121E0,-1.718217476E0,8.688953275E0
9.345337875E0,9.967570183E-1,-8.541727815E0,-1.970705802E0,8.822602790E0
9.355367875E0,1.617105961E-2,-8.790346162E0,-2.531463139E0,9.147609129E0
9.365397875E0,-6.376996779E-1,-8.787133117E0,-3.435460221E0,9.456360623E0
9.375427875E0,-1.259082701E0,-8.477438264E0,-4.516154312E0,9.687512505E0
9.385457875E0,-1.936592562E0,-8.249285756E0,-5.600125183E0,1.015689462E1
9.395487875E0,-2.595803561E0,-8.158305420E0,-6.572053462E0,1.079296207E1
9.405516875E0,-2.982060102E0,-8.130083249E0,-7.338415858E0,1.135091553E1
9.415546875E0,-3.153592266E0,-8.200040506E0,-7.870967980E0,1.179567486E1
9.425576875E0,-3.313800713E0,-8.241706011E0,-8.114881657E0,1.203155424E1
9.435606875E0,-3.388943866E0,-8.295978697E0,-8.141163722E0,1.210730151E1
9.445636875E0,-3.196358802E0,-8.407823068E0,-7.945724047E0,1.200178024E1
9.455666875E0,-2.753537466E0,-8.404048106E0,-7.472431701E0,1.157787669E1
9.465696875E0,-2.218750391E0,-8.281327913E0,-6.873041811E0,1.098826415E1
9.475726875E0,-1.495988051E0,-8.095470656E0,-6.471524037E0,1.047164021E1
9.485756875E0,-5.645442858E-1,-7.797992975E0,-6.108047079E0,9.921473872E0
9.495786875E0,2.227452949E-2,-7.345588637E0,-5.603684383E0,9.239017656E0
9.505816875E0,2.052251364E-1,-7.113358866E0,-5.198545429E0,8.812880703E0
9.515846875E0,1.549145235E-1,-7.221315424E0,-5.046254697E0,8.811133947E0
9.525876875E0,-1.464363532E-1,-7.485120744E0,-5.062340387E0,9.037464598E0
9.535906875E0,-4.292087254E-1,-7.661617194E0,-4.914701700E0,9.112567748E0
9.545936875E0,-3.604448846E-1,-7.543646695E0,-4.512011560E0,8.797429982E0
9.555966875E0,-9.081807643E-2,-7.062750630E0,-3.949604723E0,8.092593642E0
9.565996875E0,3.781951310E-1,-6.382031817E0,-3.051144370E0,7.083985011E0
9.576026875E0,1.730685932E0,-5.591471304E0,-1.380506566E0,6.013786121E0
9.586055875E0,3.976732588E0,-4.069742201E0,1.398086804E0,5.859338732E0
9.596085875E0,5.903267062E0,-1.682804691E0,4.418967156E0,7.563574840E0
9.606115875E0,6.734981448E0,1.228267289E0,6.554812946E0,9.478089913E0
9.616145875E0,5.828292308E0,4.473204174E0,7.264968982E0,1.033239184E1
9.626175875E0,3.382047367E0,7.940204861E0,6.333687038E0,1.070517114E1
9.636205875E0,5.852549044E-1,1.148687854E1,4.834293129E0,1.247642945E1
9.646235875E0,-1.350368554E0,1.384343742E1,4.901058977E0,1.474736024E1
9.656265875E0,-2.173575973E0,1.541277865E1,6.717018217E0,1.695277299E1
9.666295875E0,-3.125169244E0,1.782207006E1,8.871930608E0,2.015202265E1
9.676325875E0,-4.171316815E0,1.989476768E1,1.065819710E1,2.295209861E1
9.686355875E0,-5.326358546E0,2.056430662E1,1.113561992E1,2.398463744E1
9.696385875E0,-6.771383289E0,2.047676210E1,1.043885986E1,2.396078490E1
9.706415875E0,-7.670044202E0,1.976417363E1,9.046536069E0,2.304977119E1
9.716445875E0,-6.679663864E0,1.797314341E1,7.572230224E0,2.061529684E1
9.726475875E0,-3.270122597E0,1.545286131E1,8.061619370E0,1.773342413E1
9.736505875E0,1.525375573E0,1.308436358E1,1.086827821E1,1.707766999E1
9.746535875E0,5.214384366E0,1.048177023E1,1.286429310E1,1.739388825E1
9.756565875E0,6.371872280E0,6.885306346E0,1.238674749E1,1.553833045E1
9.766595875E0,6.224624771E0,3.169209010E0,9.962661445E0,1.216735232E1
9.776625875E0,5.505501446E0,-3.581466365E-1,6.840620170E0,8.788225048E0
9.786654875E0,4.538827475E0,-3.559538137E0,3.934432953E0,6.982193728E0
9.796684875E0,3.509937083E0,-6.101594092E0,1.682693886E0,7.237442055E0
9.806714875E0,2.366699712E0,-8.298573691E0,-9.021084309E-2,8.629932261E0
9.816744875E0,1.121591856E0,-9.916109422E0,-1.481074874E0,1.008864595E1
9.826774875E0,-3.205525482E-1,-1.070368376E1,-2.739785107E0,1.105341678E1
9.836804875E0,-2.121604312E0,-1.113530651E1,-3.985476514E0,1.201583451E1
9.846834875E0,-3.879657114E0,-1.157925753E1,-5.182342209E0,1.326603238E1
9.856864875E0,-5.388328507E0,-1.203469949E1,-6.284218424E0,1.460682981E1
9.866894875E0,-6.643620458E0,-1.217937715E1,-7.228115736E0,1.564354748E1
9.876924875E0,-7.394212913E0,-1.184081752E1,-7.796988423E0,1.598975836E1
9.886954875E0,-7.402845157E0,-1.129056997E1,-7.883591534E0,1.563426052E1
9.896984875E0,-6.621148438E0,-1.074333022E1,-7.811308254E0,1.484167402E1
9.907014875E0,-5.366862209E0,-1.030163155E1,-7.613167750E0,1.388838168E1
9.917044875E0,-4.239726607E0,-9.829319201E0,-7.091465136E0,1.284054810E1
9.927074875E0,-3.100853597E0,-9.153257110E0,-6.281131679E0,1.152605847E1
9.937104875E0,-1.952966812E0,-8.447291189E0,-5.455300761E0,1.024358893E1
9.947134875E0,-1.044536225E0,-7.807476574E0,-4.783057779E0,9.215497170E0
9.957164875E0,-3.953100774E-1,-7.333637513E0,-4.181288657E0,8.451135075E0
9.967194875E0,-8.780339822E-2,-7.095185135E0,-3.554432933E0,7.936205328E0
9.977224875E0,7.775203452E-2,-6.956900239E0,-3.030685548E0,7.588778637E0
9.987254875E0,2.159750962E-1,-6.888914078E0,-2.517211136E0,7.337583684E0
9.997284875E0,2.880279958E-1,-6.849595646E0,-2.143919334E0,7.183057200E0
1.000731488E1,5.544085760E-1,-6.836378015E0,-2.104014426E0,7.174281144E0
1.001734487E1,8.795951888E-1,-6.628469152E0,-2.185080516E0,7.034548163E0
1.002737488E1,1.288653386E0,-6.233053533E0,-2.297903419E0,6.766974510E0
1.003740488E1,1.540138769E0,-5.923264539E0,-2.571079779E0,6.638338758E0
1.004743487E1,1.520771767E0,-5.714107881E0,-2.808248693E0,6.545993918E0
1.005746488E1,1.402029728E0,-5.532496871E0,-2.867999636E0,6.387458877E0
1.006749488E1,1.419952759E0,-5.222064099E0,-2.445201505E0,5.938453477E0
1.007752487E1,1.858283141E0,-4.591800326E0,-1.651384678E0,5.221581927E0
1.008755488E1,2.295315734E0,-3.886507419E0,-6.539347646E-1,4.560816255E0
1.009758488E1,2.649211444E0,-2.687161628E0,1.791165876E-1,3.777729694E0
1.010761487E1,2.385199717E0,-4.622124571E-1,1.019920471E0,2.634967896E0
1.011764488E1,9.049217456E-1,2.637606475E0,1.868602600E0,3.356713714E0
1.012767488E1,-1.334562215E0,5.977179961E0,2.153201496E0,6.491842055E0
1.013770488E1,-3.571569660E0,8.976871757E0,1.671779766E0,9.804855122E0
1.014773488E1,-4.726852296E0,1.202852250E1,1.237884205E0,1.298309837E1
1.015776388E1,-4.666987625E0,1.503161152E1,2.225437413E0,1.589599604E1
1.016779387E1,-4.666981485E0,1.793090780E1,5.143382796E0,1.922895102E1
1.017782388E1,-4.560632912E0,1.993999706E1,8.507050903E0,2.215339185E1
1.018785388E1,-3.689417076E0,2.036062471E1,1.098189077E1,2.342581401E1
1.019788388E1,-2.300630268E0,2.001788665E1,1.317641630E1,2.407543628E1
1.020791388E1,-9.885538863E-1,1.951541436E1,1.559997843E1,2.500375899E1
1.021794388E1,-1.688978474E-1,1.866510525E1,1.690608385E1,2.518393042E1
1.022797388E1,-1.566217643E-1,1.767903548E1,1.659264035E1,2.424641292E1
1.023800388E1,-3.472966893E-1,1.622439908E1,1.516953682E1,2.221410785E1
1.024803388E1,2.704725348E-1,1.422953609E1,1.318839023E1,1.940325976E1
1.025806388E1,1.552314134E0,1.199632305E1,1.095350839E1,1.631872519E1
1.026809388E1,2.562424438E0,9.514315660E0,8.777936032E0,1.319622607E1
1.027812388E1,3.042264496E0,6.557252989E0,6.483981530E0,9.710559022E0
1.028815388E1,3.088951590E0,3.308105525E0,4.251540906E0,6.209733019E0
1.029818388E1,2.917738976E0,-3.803964615E-2,2.490121570E0,3.836059590E0
1.030821388E1,2.622381203E0,-3.350699567E0,8.057135725E-1,4.330501717E0
1.031824388E1,2.337342011E0,-6.397558513E0,-8.114555383E-1,6.859328152E0
1.032827388E1,2.147793552E0,-8.994339144E0,-1.951578975E0,9.450916055E0
1.033830388E1,1.629768399E0,-1.102754116E1,-2.437223857E0,1.141064718E1
1.034833288E1,4.869806778E-1,-1.238185337E1,-2.613418591E0,1.266401989E1
1.035836288E1,-8.805868766E-1,-1.312416909E1,-3.049638420E0,1.350257538E1
1.036839288E1,-2.036105886E0,-1.337759443E1,-4.099111011E0,1.413889921E1
1.037842288E1,-3.291865468E0,-1.350163492E1,-5.534091992E0,1.495849919E1
1.038845288E1,-4.654186023E0,-1.353879398E1,-7.170259291E0,1.601165227E1
1.039848288E1,-5.912056596E0,-1.353379461E1,-8.748968925E0,1.716567700E1
1.040851288E1,-6.877967505E0,-1.331979120E1,-9.875116932E0,1.795107821E1
1.041854288E1,-7.244856899E0,-1.287255872E1,-1.039634358E1,1.806307503E1
1.042857288E1,-6.906422980E0,-1.251634400E1,-1.041090198E1,1.768458158E1
1.043860288E1,-5.906190085E0,-1.223254822E1,-9.712152693E0,1.669862950E1
1.044863288E1,-4.420695008E0,-1.177684664E1,-8.423304741E0,1.513898028E1
1.045866288E1,-2.892845332E0,-1.121001522E1,-6.954919787E0,1.350569896E1
1.046869288E1,-1.377810122E0,-1.059000453E1,-5.339175058E0,1.193957064E1
1.047872288E1,-2.912410408E-2,-9.898868322E0,-3.694048655E0,1.056571993E1
1.048875288E1,8.829778031E-1,-9.215626436E0,-2.312614136E0,9.542306039E0
1.049878288E1,1.534221971E0,-8.784039940E0,-1.594630433E0,9.058478953E0
1.050881287E1,1.812991194E0,-8.409439239E0,-1.579823529E0,8.746510605E0
1.051884288E1,1.617661008E0,-7.889964414E0,-2.029204856E0,8.305783403E0
1.052887188E1,1.049386345E0,-7.282784278E0,-2.765005025E0,7.860369669E0
1.053890187E1,4.280790433E-1,-6.542521514E0,-3.616986446E0,7.488019123E0
1.054893188E1,1.657384506E-1,-5.970586640E0,-4.410995647E0,7.425109875E0
1.055896188E1,1.130034359E-1,-5.674038082E0,-4.510200092E0,7.249095309E0
1.056899187E1,-2.166900645E-1,-5.316017745E0,-4.348082530E0,6.871158631E0
1.057902188E1,-4.486708903E-1,-4.670331355E0,-4.282389647E0,6.352335132E0
1.058905188E1,1.961417793E-1,-3.843402915E0,-4.132482240E0,5.646913053E0
1.059908187E1,1.402240228E0,-2.534166892E0,-3.562541851E0,4.591294364E0
1.060911188E1,2.517039812E0,-6.061358231E-1,-2.165475386E0,3.375229429E0
1.061914188E1,3.236865388E0,1.535871763E0,-3.095568591E-1,3.596112493E0
1.062917187E1,3.614259012E0,3.674358156E0,2.137147965E0,5.579532014E0
1.063920188E1,3.001564659E0,6.054311752E0,4.907841747E0,8.351705922E0
1.064923188E1,1.190678610E0,8.571735726E0,6.806755435E0,1.101019021E1
1.065926188E1,-5.771234009E-1,1.115514027E1,7.175854492E0,1.327641192E1
1.066929188E1,-6.034962438E-1,1.399724960E1,7.038246703E0,1.567877931E1
1.067932188E1,8.349379563E-1,1.678817826E1,8.094518144E0,1.865640036E1
1.068935188E1,1.771942716E0,1.925990156E1,1.066762749E1,2.208804802E1
1.069938188E1,1.215918262E0,2.125371205E1,1.302057163E1,2.495463922E1
1.070941088E1,-3.264232989E-1,2.208587375E1,1.424019673E1,2.628070727E1
1.071944088E1,-1.940517944E0,2.187205043E1,1.484359898E1,2.650442662E1
1.072947088E1,-3.066650602E0,2.112403484E1,1.543145933E1,2.633930772E1
1.073950088E1,-3.436956523E0,1.932580319E1,1.568894381E1,2.512851562E1
1.074953088E1,-3.193573481E0,1.647006868E1,1.541452580E1,2.278310074E1
1.075956088E1,-1.989660283E0,1.352748663E1,1.520083930E1,2.044546791E1
1.076959088E1,2.088163501E-1,1.099217954E1,1.437992414E1,1.810121083E1
1.077962088E1,2.339994601E0,8.555863459E0,1.215496970E1,1.504731414E1
1.078965088E1,3.628096740E0,6.187674462E0,8.588514896E0,1.118986101E1
1.079968088E1,4.101753368E0,3.714987534E0,4.969304754E0,7.437708169E0
1.080971088E1,4.139606195E0,9.869603008E-1,2.405686899E0,4.888533476E0
1.081974088E1,3.502224314E0,-1.649129407E0,1.085788770E0,4.020465172E0
1.082977088E1,2.130642938E0,-4.137737718E0,6.131524819E-1,4.694301728E0
1.083980088E1,5.356873995E-1,-6.573632795E0,-1.332656461E-1,6.596769576E0
1.084983088E1,-1.190315936E0,-8.728521212E0,-1.698025578E0,8.971467296E0
1.085986088E1,-3.055126324E0,-1.077096416E1,-3.641694440E0,1.177324952E1
1.086989088E1,-4.613852807E0,-1.238272577E1,-5.798831112E0,1.443073032E1
1.087992088E1,-5.680408623E0,-1.305227874E1,-7.957331355E0,1.630791663E1
1.088994988E1,-6.534019078E0,-1.297671868E1,-9.486702769E0,1.735183456E1
1.089997988E1,-7.370354519E0,-1.262144654E1,-1.011088368E1,1.777225386E1
1.091000988E1,-7.904379555E0,-1.212828067E1,-9.974070532E0,1.758000259E1
1.092003988E1,-8.091719667E0,-1.160133311E1,-9.554611747E0,1.706919631E1
1.093006988E1,-7.964868416E0,-1.115605945E1,-9.221467220E0,1.652066128E1
1.094009988E1,-7.609345425E0,-1.084623654E1,-9.019562278E0,1.602795959E1
1.095012988E1,-7.210340785E0,-1.038090576E1,-8.683589453E0,1.533482783E1
1.096015988E1,-6.723341396E0,-9.901391981E0,-8.060812454E0,1.442974636E1
1.097018875E1,-5.772703414E0,-9.543996711E0,-6.924915969E0,1.312883998E1
1.098021875E1,-4.094803952E0,-9.152721505E0,-5.324017906E0,1.135274843E1
1.099024875E1,-2.572306817E0,-8.747512384E0,-3.811637916E0,9.882525936E0
1.100027875E1,-1.366787828E0,-8.288048118E0,-2.492689667E0,8.762040422E0
1.101030875E1,-7.317176431E-1,-7.733375979E0,-1.558037973E0,7.922625642E0
1.102033875E1,-6.730595452E-1,-7.319032922E0,-1.429438405E0,7.487626208E0
1.103036875E1,-8.751793715E-1,-7.021811349E0,-2.196076497E0,7.409083988E0
1.104039875E1,-1.188561772E0,-6.661863770E0,-3.389856032E0,7.568634745E0
1.105042875E1,-1.500549026E0,-6.094482123E0,-4.482533991E0,7.712812114E0
1.106045875E1,-1.963246802E0,-5.574206230E0,-5.287593260E0,7.929990895E0
1.107048775E1,-2.146638289E0,-5.206960741E0,-5.266864881E0,7.711054518E0
1.108051775E1,-1.349104094E0,-4.876611768E0,-3.770050179E0,6.309889266E0
1.109054775E1,1.739815629E-1,-4.436018806E0,-1.331360718E0,4.634765776E0
1.110057775E1,1.939390162E0,-3.527453295E0,1.121976603E0,4.178874543E0
1.111060775E1,3.691414484E0,-2.359826310E0,3.007445204E0,5.314136596E0
1.112063775E1,5.244367719E0,-8.600774753E-1,3.753061679E0,6.506043191E0
1.113066775E1,6.145797873E0,1.354451957E0,3.713675419E0,7.307308445E0
1.114069775E1,6.100988320E0,3.912400060E0,3.694237520E0,8.134883132E0
1.115072775E1,5.250565767E0,6.478582796E0,4.436157385E0,9.445632232E0
1.116075775E1,4.751705009E0,8.953417990E0,6.252103761E0,1.190929031E1
1.117078775E1,5.768327358E0,1.123960096E1,9.243804168E0,1.565407761E1
1.118081775E1,7.706595147E0,1.346606748E1,1.283631534E1,2.013697032E1
1.119084775E1,7.535683372E0,1.542499699E1,1.418583283E1,2.227004511E1
1.120087775E1,5.990764797E0,1.596539198E1,1.242204596E1,2.109716165E1
1.121090775E1,4.443131067E0,1.615255668E1,1.016484764E1,1.959516850E1
1.122093775E1,2.430145217E0,1.648977730E1,9.091642075E0,1.898621386E1
1.123096775E1,6.687896159E-1,1.645865140E1,8.333269899E0,1.846016990E1
1.124099675E1,-9.288189505E-1,1.658336900E1,7.291434065E0,1.813934516E1
1.125102675E1,-1.825482454E0,1.618844689E1,6.083317450E0,1.738979442E1
1.126105675E1,-1.955436530E0,1.507487975E1,5.090071392E0,1.603073792E1
1.127108675E1,-1.243648683E0,1.335922950E1,4.354881672E0,1.410605080E1
1.128111675E1,3.385381450E-1,1.095395629E1,4.365868590E0,1.179680359E1
1.129114675E1,2.004790830E0,8.312229863E0,5.160191787E0,9.986988077E0
1.130117675E1,2.861656284E0,5.501194387E0,5.999082461E0,8.627931777E0
1.131120675E1,2.727553609E0,2.398093997E0,5.945321991E0,6.966868528E0
1.132123675E1,2.293603815E0,-6.159667468E-1,5.094266185E0,5.620638883E0
1.133126675E1,1.905526012E0,-3.289241822E0,4.176989492E0,5.647776763E0
1.134129675E1,1.442873260E0,-5.449512602E0,3.362166542E0,6.563782042E0
1.135132675E1,6.781545165E-1,-7.255085433E0,2.423735792E0,7.679235208E0
1.136135675E1,-1.243600443E-1,-8.776630349E0,1.249790890E0,8.866040997E0
1.137138675E1,-6.640510324E-1,-9.680416930E0,2.952843904E-2,9.703211203E0
1.138141675E1,-1.070795632E0,-1.037036557E1,-1.234060126E0,1.049828509E1
1.139144675E1,-1.649092569E0,-1.107051585E1,-2.641063349E0,1.150004536E1
1.140147675E1,-2.557088854E0,-1.156542536E1,-4.071947186E0,1.252511561E1
1.141150675E1,-3.819875473E0,-1.174092602E1,-5.353189080E0,1.345724436E1
1.142153575E1,-5.064576362E0,-1.165850367E1,-6.273635548E0,1.417494778E1
1.143156575E1,-5.954660579E0,-1.174908991E1,-6.815298218E0,1.483062325E1
1.144159575E1,-6.537795210E0,-1.191125425E1,-6.831007347E0,1.520800465E1
1.145162575E1,-6.667304605E0,-1.189244025E1,-6.621081195E0,1.515657619E1
1.146165575E1,-6.365325737E0,-1.174875662E1,-6.270993776E0,1.476062386E1
1.147168575E1,-5.358608864E0,-1.145077315E1,-6.198260261E0,1.408024591E1
1.148171575E1,-4.108809495E0,-1.101714130E1,-6.171832016E0,1.327972998E1
1.149174575E1,-3.419757231E0,-1.046457591E1,-5.776280740E0,1.243251816E1
1.150177575E1,-2.819910673E0,-9.860393643E0,-5.336182453E0,1.156088674E1
1.151180575E1,-2.239659888E0,-9.504737336E0,-5.040298723E0,1.098911823E1
1.152183575E1,-2.077757796E0,-9.316981487E0,-4.846134618E0,1.070552391E1
1.153186575E1,-2.184846919E0,-9.212775334E0,-4.764021292E0,1.059927754E1
1.154189575E1,-2.597936625E0,-9.068435061E0,-4.706446390E0,1.054212629E1
1.155192575E1,-2.911522216E0,-8.846816232E0,-4.668063220E0,1.041796205E1
1.156195575E1,-2.877429441E0,-8.281758268E0,-4.708803695E0,9.951881854E0
1.157198575E1,-2.357800396E0,-7.286790791E0,-4.996416539E0,9.144436613E0
1.158201575E1,-7.582591783E-1,-5.990360169E0,-5.174123948E0,7.951787885E0
1.159204475E1,1.205981065E0,-4.129199613E0,-4.650394104E0,6.334891088E0
1.160207475E1,2.906115881E0,-2.178709974E0,-3.506121775E0,5.048284517E0
1.161210475E1,4.112559022E0,-5.076862532E-1,-2.130459920E0,4.659371901E0
1.162213475E1,4.437872958E0,1.181278480E0,-5.988148168E-1,4.631275680E0
1.163216475E1,3.607222180E0,2.795848503E0,8.784754470E-1,4.647638091E0
1.164219475E1,1.774079728E0,4.630428202E0,1.849771349E0,5.292435947E0
1.165222475E1,-2.067145684E-1,6.875093014E0,2.301066470E0,7.252898853E0
1.166225475E1,-7.723964301E-1,9.011109543E0,2.412875758E0,9.360484009E0
1.167228475E1,3.079338913E-1,1.085670306E1,3.125257244E0,1.130177231E1
1.168231475E1,1.739991630E0,1.314000919E1,5.201591828E0,1.423881912E1
1.169234475E1,1.990356248E0,1.524812106E1,7.262190385E0,1.700606136E1
1.170237475E1,6.813292623E-1,1.600402688E1,8.121118298E0,1.795955590E1
1.171240475E1,-1.157941365E0,1.573575545E1,7.950235759E0,1.766808073E1
1.172243475E1,-2.124457753E0,1.507456400E1,8.092741175E0,1.724088920E1
1.173246475E1,-2.013344284E0,1.422078866E1,8.638038474E0,1.676007440E1
1.174249475E1,-8.385918083E-1,1.359388060E1,9.488218952E0,1.659888926E1
1.175252475E1,4.123945452E-1,1.338380885E1,1.006601449E1,1.675174786E1
1.176255375E1,1.342495863E0,1.284918623E1,9.664992560E0,1.613431012E1
1.177258375E1,2.567795983E0,1.179282357E1,8.707732022E0,1.488250184E1
1.178261375E1,3.899577700E0,1.042840621E1,8.006905804E0,1.371382160E1
1.179264375E1,4.751380196E0,8.657729557E0,7.553060127E0,1.243304517E1
1.180267375E1,4.577517917E0,6.598205134E0,6.655325414E0,1.042992510E1
1.181270375E1,3.619034433E0,4.402994902E0,5.441880231E0,7.880217940E0
1.182273375E1,2.302843585E0,1.909551528E0,4.099009269E0,5.074579057E0
1.183276375E1,8.405547917E-1,-7.732691270E-1,2.661532697E0,2.896244775E0
1.184279375E1,-3.550128213E-1,-3.075139589E0,1.295741234E0,3.355810326E0
1.185282375E1,-1.134078586E0,-4.714410591E0,1.625373924E-1,4.851620333E0
1.186285375E1,-1.304009782E0,-5.870344899E0,-9.935664850E-1,6.094962272E0
1.187288375E1,-7.691697903E-1,-6.806908048E0,-2.315872790E0,7.231105456E0
1.188291375E1,4.125447455E-1,-6.977621602E0,-3.836200315E0,7.973319838E0
1.189294375E1,1.256164501E0,-6.473824332E0,-5.314617922E0,8.469564002E0
1.190297375E1,1.332451516E0,-6.158785708E0,-6.682962863E0,9.185208820E0
1.191300375E1,6.205679208E-1,-5.974658056E0,-8.043718704E0,1.003907635E1
1.192303375E1,-9.257971095E-1,-5.799246849E0,-9.208063062E0,1.092139138E1
1.193306275E1,-2.728135992E0,-5.847850075E0,-1.025077832E1,1.211274257E1
1.194309275E1,-4.215546616E0,-6.155368595E0,-1.119205842E1,1.345070881E1
1.195312275E1,-5.002787665E0,-6.499671949E0,-1.187082894E1,1.442879758E1
1.196315300E1,-4.874876899E0,-6.584647195E0,-1.223462281E1,1.472440148E1
1.197318300E1,-3.336048491E0,-6.426403413E0,-1.229331249E1,1.426721459E1
1.198321300E1,-1.449590249E0,-6.241864702E0,-1.117399988E1,1.288101161E1
1.199324300E1,-1.595749006E-1,-6.380272974E0,-9.433255709E0,1.138945392E1
1.200327300E1,6.065373807E-1,-6.716856249E0,-7.632548347E0,1.018527563E1
1.201330300E1,8.959508011E-1,-7.059562728E0,-6.201497864E0,9.439212335E0
1.202333300E1,8.929854588E-1,-7.173940698E0,-5.245180482E0,8.931672097E0
1.203336300E1,7.578934349E-1,-7.075812725E0,-4.725662972E0,8.542448051E0
1.204339300E1,5.228938378E-1,-6.798484549E0,-4.572768223E0,8.209934187E0
1.205342300E1,5.512329898E-1,-5.930050233E0,-4.816338669E0,7.659404138E0
1.206345300E1,1.089315811E0,-4.306146884E0,-5.377111208E0,6.974441545E0
1.207348300E1,2.570917227E0,-2.527088837E0,-5.482437689E0,6.561472120E0
1.208351300E1,4.121306165E0,-1.541644719E0,-4.176897106E0,6.066984619E0
1.209354300E1,4.937374864E0,-1.183669406E0,-1.225878702E0,5.223171680E0
1.210357200E1,5.172974970E0,-1.254260502E0,2.628578374E0,5.936519495E0
1.211360200E1,4.591540124E0,-1.169329110E0,5.908526047E0,7.573655084E0
1.212363200E1,3.536944203E0,-6.689624012E-2,8.293428726E0,9.016396699E0
1.213366200E1,2.779514306E0,1.280453689E0,9.657542623E0,1.013081393E1
1.214369200E1,2.349772461E0,2.694382939E0,9.403946541E0,1.006058351E1
1.215372200E1,1.638864766E0,3.913688786E0,7.759491983E0,8.843786150E0
1.216375200E1,1.017570182E0,4.816450351E0,5.683677217E0,7.519164167E0
1.217378200E1,4.836873433E-1,5.533589716E0,4.258053535E0,6.998970531E0
1.218381200E1,-8.113840561E-1,6.127233548E0,4.318822478E0,7.540130147E0
1.219384200E1,-2.322349897E0,6.699406403E0,4.889983181E0,8.613204439E0
1.220387200E1,-3.765477364E0,7.594841407E0,5.014334747E0,9.849060297E0
1.221390200E1,-4.742177263E0,8.759289846E0,5.097206165E0,1.118905333E1
1.222393200E1,-4.664897538E0,9.008050280E0,5.548596010E0,1.156257569E1
1.223396200E1,-3.801556147E0,8.371198449E0,6.787678894E0,1.142809596E1
1.224399200E1,-2.433971051E0,7.319921114E0,8.497330492E0,1.147650146E1
1.225402200E1,-1.037172900E0,6.033567000E0,9.994053977E0,1.172010125E1
1.226405200E1,-4.015588506E-1,4.983345673E0,1.081406165E1,1.191381186E1
1.227408200E1,-8.128063182E-1,3.788192920E0,9.741194059E0,1.048341173E1
1.228411100E1,-2.247663557E0,2.439518012E0,7.321797486E0,8.038156382E0
1.229414100E1,-3.963820182E0,1.453479232E0,4.749461725E0,6.354672217E0
1.230417100E1,-5.051910709E0,8.233090138E-1,2.672769291E0,5.774368816E0
1.231420100E1,-4.633468754E0,2.897652036E-1,1.291163449E0,4.818723858E0
1.232423100E1,-2.589653460E0,-1.395847321E-1,9.721130508E-1,2.769619599E0
1.233426100E1,-1.644395647E-1,-2.366403258E-1,1.547271495E0,1.573876772E0
1.234429100E1,1.988263091E0,-2.319002804E-1,3.078125178E0,3.671760132E0
1.235432100E1,3.585852654E0,-1.032179743E0,4.325916905E0,5.712905683E0
1.236435100E1,3.723364255E0,-2.186342930E0,3.944545128E0,5.848330792E0
1.237438100E1,2.807709580E0,-2.765711369E0,1.860832527E0,4.358335710E0
1.238441100E1,1.394021381E0,-3.251282868E0,-1.366593701E0,3.792323066E0
1.239444100E1,3.981708276E-1,-2.984703628E0,-5.111148266E0,5.932186136E0
1.240447100E1,-4.632463910E-1,-3.273780030E0,-8.644302596E0,9.255063494E0
1.241450100E1,-1.370338404E0,-3.270445363E0,-1.189454875E1,1.241184637E1
1.242453100E1,-1.256541501E0,-1.691866706E0,-1.432801723E1,1.448217482E1
1.243456100E1,-9.016172647E-1,-8.429164821E-1,-1.496741611E1,1.501822117E1
1.244459100E1,-4.125513236E-1,-1.056043984E0,-1.413056612E1,1.417597708E1
1.245462100E1,-3.389864802E-1,-1.823961155E0,-1.196063515E1,1.210365810E1
1.246465000E1,-7.484952052E-1,-2.780805956E0,-9.062218886E0,9.508782150E0
1.247468000E1,-1.262842606E0,-3.564129955E0,-6.411687725E0,7.443623665E0
1.248471000E1,-1.927393430E0,-4.203941647E0,-3.861660846E0,6.024980937E0
1.249474000E1,-2.401329262E0,-4.404514008E0,-2.317194845E0,5.525895205E0
1.250477000E1,-2.396928647E0,-4.086672814E0,-1.917040057E0,5.110890745E0
1.251480000E1,-1.716434660E0,-3.592723424E0,-2.581108339E0,4.745095342E0
1.252483000E1,-8.681852976E-1,-2.915992997E0,-3.988242540E0,5.016257512E0
1.253486000E1,-4.919038872E-1,-2.027467064E0,-5.141741483E0,5.548882554E0
1.254489000E1,1.486805145E-1,-1.836743753E0,-5.935671746E0,6.215137375E0
1.255492000E1,8.700341872E-1,-1.987351071E0,-6.147174892E0,6.518763910E0
1.256495000E1,6.791862577E-1,-2.040818011E0,-5.561144135E0,5.962596433E0
1.257498000E1,3.211876654E-1,-2.202314599E0,-4.243268266E0,4.791521333E0
1.258501000E1,5.308015027E-1,-2.260063455E0,-2.609526976E0,3.492745066E0
1.259504000E1,1.571929934E0,-1.932945653E0,-1.046915896E0,2.702457309E0
1.260507000E1,2.283760466E0,-1.145738518E0,1.581899875E-1,2.559941931E0
1.261510000E1,2.439839755E0,-2.330045271E-1,1.380147547E0,2.812812896E0
1.262513000E1,2.988478883E0,5.984929276E-1,3.192485021E0,4.413746757E0
1.263516000E1,3.383222950E0,1.599901698E0,5.488235203E0,6.642786209E0
1.264519000E1,2.980879549E0,3.273823299E0,7.510792944E0,8.718690988E0
1.265522000E1,2.061096009E0,5.018797342E0,8.935324366E0,1.045353840E1
1.266524900E1,1.144604085E0,5.880104486E0,8.822603497E0,1.066414927E1
1.267527900E1,1.091417300E0,6.190794536E0,7.891860082E0,1.008952845E1
1.268530900E1,5.681265094E-1,6.600642253E0,7.587093261E0,1.007249870E1
1.269533900E1,-1.557860656E0,7.284968798E0,7.275868776E0,1.041325918E1
1.270536900E1,-4.499742639E0,8.328107978E0,5.677294396E0,1.103796802E1
1.271539900E1,-6.688230620E0,9.816048360E0,3.250729721E0,1.231480726E1
1.272542900E1,-7.228225079E0,1.134211551E1,1.548180737E0,1.353837825E1
1.273545900E1,-6.125706255E0,1.189857982E1,1.929567717E0,1.352123184E1
1.274548900E1,-4.780354319E0,1.105600189E1,3.748081605E0,1.261487539E1
1.275551900E1,-3.805241939E0,8.589878467E0,6.082160286E0,1.119189671E1
1.276554900E1,-2.522049414E0,6.014983379E0,9.001586768E0,1.111617392E1
1.277557900E1,-1.383737445E0,4.002555939E0,1.087839623E1,1.167367499E1
1.278560900E1,-8.128510494E-1,2.626068165E0,1.082968424E1,1.117313840E1
1.279563900E1,-1.029189623E0,1.525850805E0,9.186982096E0,9.369529977E0
1.280566900E1,-1.896297352E0,1.408717042E-1,6.502433589E0,6.774764281E0
1.281569900E1,-2.478087708E0,-9.780169845E-1,3.992327405E0,4.799595193E0
1.282572900E1,-2.239321919E0,-1.503039647E0,1.998400555E0,3.356679254E0
1.283575900E1,-1.207872786E0,-1.898515493E0,1.367751449E-1,2.254334755E0
1.284578900E1,-3.340388587E-1,-2.244181833E0,-1.728011854E0,2.852009647E0
1.285581900E1,1.918353049E-1,-2.653452430E0,-3.591208996E0,4.469272047E0
1.286584800E1,4.718070070E-1,-3.171288280E0,-5.058887606E0,5.989325089E0
1.287587800E1,5.346623826E-1,-3.598615664E0,-6.543426079E0,7.486809962E0
1.288590800E1,6.812323447E-1,-3.945874785E0,-8.043986506E0,8.985528601E0
1.289593800E1,8.230907665E-1,-4.349044397E0,-9.367079262E0,1.036020461E1
1.290596800E1,6.300237456E-1,-4.914674803E0,-1.045508120E1,1.156977447E1
1.291599800E1,-6.908075988E-2,-5.373501137E0,-1.112786417E1,1.235753405E1
1.292602800E1,-1.158861132E0,-5.662108008E0,-1.185192957E1,1.318600245E1
1.293605800E1,-1.925497470E0,-5.702187747E0,-1.255301891E1,1.392123448E1
1.294608800E1,-1.795178820E0,-5.647508680E0,-1.237094363E1,1.371704296E1
1.295611800E1,-1.160793637E0,-5.757285476E0,-1.071258907E1,1.221692852E1
1.296614813E1,-2.386598810E-1,-5.753975952E0,-8.284711697E0,1.008968016E1
1.297617813E1,3.761503597E-1,-5.829508529E0,-6.233418399E0,8.542842836E0
1.298620813E1,7.231761036E-1,-5.943010587E0,-5.116950458E0,7.875629530E0
1.299623813E1,9.895666972E-1,-5.885428376E0,-5.006462055E0,7.789876233E0
1.300626813E1,8.329596240E-1,-5.812166272E0,-5.544513484E0,8.075687481E0
1.301629813E1,-7.572414704E-2,-5.616374010E0,-6.363164606E0,8.487594181E0
1.302632813E1,-8.899214447E-1,-5.441752177E0,-6.799404901E0,8.754229489E0
1.303635813E1,-1.183836563E0,-5.384581026E0,-6.858376409E0,8.799574354E0
1.304638713E1,-1.389870297E0,-5.436423610E0,-6.466881933E0,8.561950890E0
1.305641713E1,-1.297905581E0,-5.387292965E0,-4.971147212E0,7.444446856E0
1.306644713E1,-6.322611096E-1,-5.457976447E0,-2.718547143E0,6.130233240E0
1.307647713E1,8.227869306E-1,-5.292307870E0,-5.757069129E-1,5.386737359E0
1.308650713E1,2.624173374E0,-4.911871063E0,1.207748825E0,5.698369983E0
1.309653713E1,4.894858004E0,-5.199731244E0,2.488591939E0,7.562402378E0
1.310656713E1,4.458036789E0,-3.759191900E0,3.209803305E0,6.656459495E0
1.311659713E1,3.587519403E0,-1.999838970E0,3.444887686E0,5.360681164E0
1.312662713E1,3.023427984E0,-1.144835708E0,3.663025083E0,4.885644106E0
1.313665713E1,2.273794472E0,-6.564277250E-1,4.009045179E0,4.655478698E0
1.314668713E1,6.963551447E-1,6.172034329E-1,4.716441913E0,4.807356330E0
1.315671713E1,-3.620342309E-1,2.246855764E0,5.745518539E0,6.179839229E0
1.316674713E1,-7.162678376E-2,3.675849781E0,6.160890706E0,7.174508784E0
1.317677713E1,3.938892771E-1,5.755446526E0,6.076116604E0,8.378514574E0
1.318680713E1,-1.456794311E-1,8.352982618E0,6.003958454E0,1.028790835E1
1.319683713E1,-1.471363818E0,1.070909244E1,5.378741412E0,1.207395675E1
1.320686713E1,-3.120185077E0,1.264648080E1,4.406693265E0,1.375092641E1
1.321689712E1,-3.768079668E0,1.405047330E1,3.847712898E0,1.504722960E1
1.322692713E1,-3.067180359E0,1.471117826E1,3.938628330E0,1.553509428E1
1.323695713E1,-2.352770182E0,1.479716975E1,3.916117135E0,1.548637251E1
1.324698613E1,-1.486925452E0,1.382273945E1,4.311205895E0,1.455560268E1
1.325701613E1,-6.962700677E-1,1.232245033E1,5.336684729E0,1.344647828E1
1.326704613E1,-4.086133701E-1,1.055325712E1,5.677294396E0,1.199040752E1
1.327707612E1,1.420317918E-1,8.145247418E0,5.405387759E0,9.776678646E0
1.328710613E1,4.012540644E-1,5.801569948E0,5.168761466E0,7.780444318E0
1.329713613E1,4.975235000E-1,3.417347301E0,4.514741040E0,5.684072384E0
1.330716612E1,7.637361190E-1,9.593041402E-1,3.286375517E0,3.507680335E0
1.331719613E1,1.054191002E0,-1.062729106E0,1.726635127E0,2.285165351E0
1.332722613E1,1.037932819E0,-2.797152432E0,7.262183368E-2,2.984399470E0
1.333725612E1,7.642193913E-1,-4.307723293E0,-1.368468318E0,4.584017538E0
1.334728613E1,3.665692583E-1,-5.468286257E0,-2.417601478E0,5.990102213E0
1.335731613E1,6.021842748E-2,-6.211982507E0,-2.931641023E0,6.869270122E0
1.336734613E1,-3.418241340E-1,-6.322144049E0,-3.079453665E0,7.040552819E0
1.337737613E1,-1.165615251E0,-5.864122877E0,-3.136237730E0,6.751487475E0
1.338740613E1,-2.301712880E0,-5.403917184E0,-3.341569140E0,6.757683585E0
1.339743613E1,-3.549899879E0,-5.284134048E0,-3.871157894E0,7.450484898E0
1.340746613E1,-4.789462819E0,-5.209195547E0,-4.489750917E0,8.380485406E0
1.341749613E1,-5.537799711E0,-5.191758565E0,-5.326732768E0,9.273384745E0
1.342752613E1,-5.968314997E0,-5.502932180E0,-6.524099861E0,1.041474558E1
1.343755613E1,-6.396785511E0,-5.826484349E0,-7.507081717E0,1.145526345E1
1.344758513E1,-6.646709542E0,-6.001886786E0,-7.847268630E0,1.190718345E1
1.345761513E1,-6.500736142E0,-5.981849547E0,-7.292277818E0,1.145510411E1
1.346764513E1,-5.672185099E0,-5.907760062E0,-6.253825766E0,1.030464213E1
1.347767513E1,-4.315773155E0,-5.723324847E0,-4.985896229E0,8.731638245E0
1.348770513E1,-3.274018596E0,-5.229742663E0,-3.504342175E0,7.095760718E0
1.349773513E1,-2.296209188E0,-4.729722109E0,-1.960477268E0,5.611267146E0
1.350776513E1,-1.306080866E0,-4.163274847E0,-4.943724355E-1,4.391253669E0
1.351779513E1,-4.433803296E-1,-3.584127433E0,6.983703876E-1,3.678352453E0
1.352782513E1,-2.056658703E-1,-3.171101754E0,1.469125212E0,3.500930401E0
1.353785513E1,-1.045102090E-1,-2.864380794E0,1.688045551E0,3.326424131E0
1.354788513E1,1.011264253E-1,-2.434655467E0,1.626365612E0,2.929648255E0
1.355791513E1,5.006894749E-1,-1.344624542E0,1.179789779E0,1.857581500E0
1.356794513E1,9.852184153E-1,-1.215949545E0,1.337632442E-1,1.570694505E0
1.357797513E1,1.157170410E0,-1.046530564E0,-5.613213006E-1,1.658116758E0
1.358800513E1,1.229730847E0,-3.512574470E-1,-7.636355469E-1,1.489549932E0
1.359803513E1,1.647973997E0,2.235992807E-1,-7.404925597E-1,1.820479103E0
1.360806513E1,2.413316054E0,9.079731882E-1,-1.911074728E-1,2.585542835E0
1.361809513E1,3.221855001E0,1.698382843E0,8.728097874E-1,3.745217064E0
1.362812513E1,5.137452550E0,2.680312784E0,2.464744070E0,6.297019823E0
1.363815413E1,7.342096680E0,3.629601814E0,4.460858948E0,9.326288411E0
1.364818413E1,7.402539348E0,4.628497451E0,5.287376913E0,1.020671015E1
1.365821413E1,5.057442759E0,5.588898529E0,4.846380786E0,8.961078102E0
1.366824413E1,2.318990233E0,6.484524736E0,4.301657977E0,8.119792984E0
1.367827413E1,1.270989971E0,7.751438028E0,3.832223623E0,8.739916756E0
1.368830413E1,2.445076375E0,9.242111399E0,4.182839046E0,1.043509291E1
1.369833413E1,4.087099953E0,9.995500578E0,5.846882361E0,1.228008352E1
1.370836413E1,3.671535121E0,1.018905862E1,7.688312657E0,1.328183862E1
1.371839413E1,2.134940642E0,1.072114823E1,9.036724441E0,1.418320766E1
1.372842413E1,1.335989666E0,1.200324147E1,9.840601988E0,1.557883570E1
1.373845412E1,2.206333390E0,1.332127873E1,1.034147565E1,1.700795380E1
1.374848413E1,3.180487997E0,1.406266123E1,1.030631751E1,1.772270085E1
1.375851413E1,4.174090150E0,1.361858392E1,9.409138284E0,1.707104975E1
1.376854412E1,5.949123266E0,1.249644008E1,8.110011511E0,1.604136431E1
1.377857413E1,7.631463103E0,1.100824651E1,7.209098836E0,1.521156884E1
1.378860413E1,7.899864920E0,9.114359677E0,6.836403742E0,1.386419252E1
1.379863412E1,6.528939017E0,6.708159100E0,6.502682680E0,1.139786494E1
1.380866413E1,4.404766316E0,3.908846707E0,5.881882625E0,8.323316171E0
1.381869313E1,2.293041459E0,1.088434051E0,4.902861089E0,5.520939655E0
1.382872312E1,6.545934534E-1,-1.757575377E0,3.653902549E0,4.107136184E0
1.383875313E1,-5.820546502E-1,-4.103774750E0,2.424477073E0,4.801858379E0
1.384878313E1,-1.713470414E0,-5.926658263E0,9.403629622E-1,6.240636308E0
1.385881312E1,-2.807661925E0,-7.684697324E0,-9.056003881E-1,8.231503539E0
1.386884313E1,-3.979666136E0,-9.320222014E0,-2.887218264E0,1.053756662E1
1.387887313E1,-5.136720479E0,-1.062325882E1,-4.751187823E0,1.272058611E1
1.388890313E1,-6.492217918E0,-1.138486451E1,-6.077262658E0,1.444635437E1
1.389893313E1,-8.273973286E0,-1.178357094E1,-6.739965615E0,1.589774558E1
1.390896313E1,-1.007232247E1,-1.202817166E1,-7.119185032E0,1.722821491E1
1.391899313E1,-1.154505132E1,-1.220229941E1,-7.097246863E0,1.823609700E1
1.392902313E1,-1.271552122E1,-1.216273481E1,-6.737664151E0,1.884178113E1
1.393905313E1,-1.320853271E1,-1.189341439E1,-6.364413571E0,1.887920556E1
1.394908313E1,-1.253026038E1,-1.173210842E1,-6.165077897E0,1.823891386E1
1.395911313E1,-1.088817745E1,-1.151491945E1,-5.611650630E0,1.681179350E1
1.396914325E1,-8.593311367E0,-1.101847213E1,-4.554299208E0,1.469671288E1
1.397917325E1,-6.019094557E0,-1.023454294E1,-3.387867978E0,1.234718664E1
1.398920325E1,-3.538321807E0,-9.232934779E0,-2.116724664E0,1.011174214E1
1.399923225E1,-1.277388871E0,-8.126393071E0,-1.076656004E0,8.296335023E0
1.400926225E1,2.250505596E-1,-7.090382232E0,-6.960858804E-1,7.128022412E0
1.401929225E1,7.276813102E-1,-6.390101559E0,-8.289720422E-1,6.484605822E0
1.402932225E1,2.520962709E-1,-5.975873693E0,-1.096316097E0,6.080832830E0
1.403935225E1,-4.579036438E-1,-5.687376165E0,-1.284130564E0,5.848496790E0
1.404938225E1,-7.402899536E-1,-5.609367292E0,-1.297265311E0,5.804819370E0
1.405941225E1,-5.534816462E-1,-5.459981457E0,-1.193068805E0,5.616151050E0
1.406944225E1,-1.893445373E-2,-5.023722451E0,-1.239611180E0,5.174435395E0
1.407947225E1,1.046302231E0,-4.341235440E0,-1.120059594E0,4.603868699E0
1.408950225E1,2.330092341E0,-3.544569265E0,-7.334788245E-1,4.304798808E0
1.409953225E1,4.060180542E0,-2.436292103E0,-4.607892448E-1,4.757406013E0
1.410956225E1,5.847759444E0,-1.007592786E0,-5.538184458E-1,5.959718836E0
1.411959225E1,6.693488436E0,5.218616581E-1,-6.014460638E-1,6.740687235E0
1.412962225E1,7.494479213E0,1.616669174E0,-1.926517224E-1,7.669286315E0
1.413965225E1,7.551869050E0,2.299427496E0,4.139702967E-1,7.905027790E0
1.414968225E1,4.993956031E0,3.841945204E0,1.619979867E0,6.505726290E0
1.415971225E1,2.891465389E0,4.756456164E0,2.989624060E0,6.318409560E0
1.416974225E1,1.200936673E0,5.471549588E0,3.662656708E0,6.692918493E0
1.417977225E1,-2.853480707E-1,7.328962079E0,3.899851350E0,8.306861576E0
1.418980125E1,-8.132177429E-1,9.525513078E0,4.113489607E0,1.040757029E1
1.419983125E1,-1.422741297E0,1.195207366E1,4.017652280E0,1.268927844E1
1.420986125E1,-2.614045120E0,1.400415399E1,4.234464698E0,1.486204065E1
1.421989125E1,-3.666567911E0,1.511113483E1,5.095494100E0,1.636319578E1
1.422992125E1,-2.975859130E0,1.555451750E1,6.645628976E0,1.717449087E1
1.423995125E1,-3.696562958E-1,1.556993777E1,8.548425216E0,1.776612455E1
1.424998125E1,2.271158108E0,1.521718929E1,1.024890253E1,1.848677938E1
1.426001125E1,3.630294124E0,1.434261305E1,1.069033340E1,1.825302202E1
1.427004125E1,3.535573323E0,1.288561789E1,1.000168693E1,1.669051134E1
1.428007125E1,2.640210533E0,1.109629389E1,8.997159841E0,1.452746829E1
1.429010125E1,2.194407263E0,9.084564605E0,7.837638851E0,1.219726691E1
1.430013125E1,2.121720379E0,7.108564149E0,6.672278831E0,9.977609254E0
1.431016125E1,2.087448240E0,4.712467561E0,5.166320254E0,7.297647267E0
1.432019125E1,1.636914866E0,1.873491164E0,3.495846171E0,4.290734188E0
1.433022125E1,1.219347070E0,-7.382138997E-1,1.826180173E0,2.316614138E0
1.434025125E1,1.117663405E0,-2.984620013E0,-6.995024085E-3,3.187032639E0
1.435028125E1,1.058727856E0,-5.264419575E0,-1.857124223E0,5.681894800E0
1.436031125E1,6.513555577E-1,-7.379971434E0,-2.949014855E0,7.974015993E0
1.437034025E1,-2.201263270E-1,-9.046382872E0,-3.193148388E0,9.595920763E0
1.438037025E1,-1.438231156E0,-1.022480382E1,-2.969283936E0,1.074391777E1
1.439040025E1,-3.256459408E0,-1.099719995E1,-2.970144939E0,1.184756075E1
1.440043025E1,-5.471316869E0,-1.143881910E1,-3.621967396E0,1.318713534E1
1.441046025E1,-7.561005324E0,-1.161133068E1,-4.727044669E0,1.464024429E1
1.442049025E1,-9.272366062E0,-1.162560139E1,-6.102592796E0,1.607398578E1
1.443052025E1,-1.011031417E1,-1.153754583E1,-7.415069346E0,1.703868157E1
1.444055025E1,-9.850617099E0,-1.133818852E1,-8.269689615E0,1.714575582E1
1.445058025E1,-8.256683654E0,-1.080029380E1,-8.460751480E0,1.601260399E1
1.446061025E1,-6.059552611E0,-9.867474622E0,-7.971507930E0,1.405809987E1
1.447064025E1,-4.036081242E0,-9.001019588E0,-6.919786207E0,1.204955379E1
1.448067025E1,-1.962117412E0,-8.432605323E0,-5.465897085E0,1.023888511E1
1.449070025E1,5.561403751E-1,-7.614607919E0,-3.695084197E0,8.482051232E0
1.450073025E1,2.288534425E0,-6.507944005E0,-2.023931545E0,7.189368810E0
1.451076025E1,2.568791179E0,-5.633898116E0,-6.545399514E-1,6.226388893E0
1.452079025E1,2.005394409E0,-5.320380937E0,2.825897929E-1,5.692795188E0
1.453082025E1,1.029308175E0,-5.388978133E0,7.439368621E-1,5.536605701E0
1.454084925E1,4.148979574E-2,-5.244402802E0,9.407336757E-1,5.328270076E0
1.455087925E1,-7.096651617E-1,-4.832471722E0,7.832915470E-1,4.946711355E0
1.456090925E1,-8.965848586E-1,-4.227764958E0,8.391222239E-2,4.322603638E0
1.457093925E1,-3.765805686E-1,-3.476308869E0,-9.294576126E-1,3.618069614E0
1.458096925E1,8.321614060E-1,-2.780475588E0,-1.832231457E0,3.432289209E0
1.459099925E1,2.098370985E0,-1.984584169E0,-2.223433573E0,3.644913163E0
1.460102925E1,2.555812699E0,-1.204017717E0,-2.160336853E0,3.556528157E0
1.461105925E1,2.528396274E0,-5.255956900E-1,-1.900359705E0,3.206307153E0
1.462108925E1,1.932853560E0,2.224842167E-1,-9.232151252E-1,2.153543191E0
1.463111925E1,1.463185610E0,1.392508560E0,6.214198601E-1,2.113327912E0
1.464114925E1,1.202064747E0,3.219390984E0,1.830632828E0,3.893668516E0
1.465117925E1,8.363775408E-1,6.145204965E0,2.898619750E0,6.845806593E0
1.466120925E1,6.279960774E-1,9.106696317E0,4.028575464E0,9.977761129E0
1.467123925E1,5.848374863E-1,1.127413344E1,4.771398724E0,1.225619703E1
1.468126925E1,1.356378615E-2,1.281675172E1,5.316475582E0,1.387567012E1
1.469129925E1,-3.299860074E-1,1.408381646E1,6.328747895E0,1.544395761E1
1.470132925E1,-9.992912015E-1,1.521506324E1,8.151186435E0,1.728984015E1
1.471135925E1,-1.873998849E0,1.575104826E1,9.777143326E0,1.863330150E1
1.472138825E1,-2.024681012E0,1.586450413E1,1.057904451E1,1.917545325E1
1.473141825E1,-1.385681644E0,1.580446491E1,1.073398637E1,1.915514783E1
1.474144825E1,-1.099092355E-1,1.516764817E1,1.076278508E1,1.859857988E1
1.475147825E1,1.516701667E0,1.399245255E1,1.123450102E1,1.800841818E1
1.476150825E1,2.969391525E0,1.224828425E1,1.186869821E1,1.731195397E1
1.477153825E1,3.728220953E0,1.023664911E1,1.198461458E1,1.619628362E1
1.478156825E1,3.406595148E0,8.164308171E0,1.109953792E1,1.419368030E1
1.479159825E1,2.220516104E0,5.922773958E0,8.975781251E0,1.098064626E1
1.480162825E1,7.954305129E-1,3.635596964E0,6.267374350E0,7.289050434E0
1.481165825E1,-2.495191106E-1,1.562236274E0,3.897460424E0,4.206309513E0
1.482168825E1,-6.116459468E-1,-5.800361913E-1,2.160079283E0,2.318727077E0
1.483171825E1,-6.719631922E-1,-2.797488647E0,8.778723067E-1,3.008012142E0
1.484174825E1,-6.060469455E-1,-4.772788022E0,-3.809671497E-1,4.826171814E0
1.485177825E1,-4.783490181E-1,-6.330936508E0,-1.850643169E0,6.613203081E0
1.486180825E1,-5.226840690E-1,-7.666772100E0,-3.579000886E0,8.477136333E0
1.487183825E1,-1.210335048E0,-8.970348018E0,-5.213368705E0,1.044563391E1
1.488186825E1,-2.576900975E0,-1.000298151E1,-6.430247957E0,1.216750371E1
1.489189725E1,-4.331861769E0,-1.057694419E1,-7.209864821E0,1.351365700E1
1.490192725E1,-5.935905050E0,-1.081706361E1,-7.742854900E0,1.456693640E1
1.491195725E1,-7.233855947E0,-1.081074628E1,-8.351478129E0,1.545794598E1
1.492198725E1,-8.035203989E0,-1.046163476E1,-8.630698464E0,1.576385933E1
1.493201725E1,-8.024428740E0,-1.016587090E1,-8.704426006E0,1.560459611E1
1.494204725E1,-7.370726402E0,-9.883749762E0,-8.559195203E0,1.500919517E1
1.495207725E1,-6.035889514E0,-9.437522423E0,-7.843273813E0,1.367536968E1
1.496210725E1,-4.351915672E0,-8.706659642E0,-6.420564968E0,1.166056374E1
1.497213775E1,-2.472936603E0,-8.140321723E0,-4.765075252E0,9.751215071E0
1.498216775E1,-6.241057786E-1,-7.711426701E0,-3.112143401E0,8.339127433E0
1.499219775E1,4.679851207E-1,-7.238051909E0,-1.665662409E0,7.441964578E0
1.500222775E1,8.636340442E-1,-6.921962541E0,-7.530032623E-1,7.016155863E0
1.501225775E1,8.660077214E-1,-6.785425377E0,-5.035128030E-1,6.858971648E0
1.502228775E1,2.954677007E-1,-6.709194058E0,-7.582049453E-1,6.758362287E0
1.503231775E1,-5.746205002E-1,-6.727997534E0,-1.394775234E0,6.895037163E0
1.504234775E1,-1.199418589E0,-6.826772794E0,-2.225428058E0,7.279832537E0
1.505237775E1,-1.600097872E0,-6.699341499E0,-2.975358901E0,7.502949441E0
1.506240675E1,-1.537828826E0,-6.278562412E0,-3.448590436E0,7.326529837E0
1.507243675E1,-6.517408893E-1,-5.945344795E0,-3.429076815E0,6.894233730E0
1.508246675E1,5.043203035E-1,-5.544739187E0,-2.624917725E0,6.155376892E0
1.509249675E1,1.195818458E0,-5.064998531E0,-1.597286239E0,5.443851140E0
1.510252675E1,1.447812696E0,-4.629674495E0,-1.098395952E0,4.973582331E0
1.511255675E1,1.263208788E0,-3.923711498E0,-1.104557455E0,4.267464767E0
1.512258675E1,1.139303950E0,-2.627612999E0,-1.561498063E0,3.261999351E0
1.513261675E1,1.265163951E0,-5.704321396E-1,-1.979883007E0,2.417843951E0
1.514264675E1,1.556516674E0,2.107518370E0,-1.690338829E0,3.117951762E0
1.515267675E1,2.150290021E0,4.898372181E0,-2.090233415E-1,5.353642494E0
1.516270675E1,3.037430896E0,7.044696767E0,2.351141148E0,8.023814783E0
1.517273675E1,2.629166604E0,8.768058330E0,4.811728724E0,1.034137792E1
1.518276675E1,1.372276610E0,9.841324704E0,5.901214104E0,1.155677909E1
1.519279675E1,5.293019477E-1,1.126109298E1,6.179636294E0,1.285613785E1
1.520282675E1,-7.754723579E-2,1.313257037E1,5.897815118E0,1.439634124E1
1.521285675E1,-1.084874120E0,1.483809675E1,5.179172434E0,1.575340897E1
1.522288675E1,-2.232177645E0,1.629934986E1,4.405481430E0,1.703113882E1
1.523291675E1,-2.492039457E0,1.702104830E1,4.243151906E0,1.771808917E1
1.524294575E1,-1.815705032E0,1.722131193E1,5.459283299E0,1.815693100E1
1.525297575E1,-5.635198537E-1,1.712790850E1,7.152303076E0,1.856982077E1
1.526300575E1,7.800130132E-1,1.651319423E1,8.195362734E0,1.845150331E1
1.527303575E1,1.875626860E0,1.546658824E1,8.420876977E0,1.771001120E1
1.528306575E1,2.881385374E0,1.399069370E1,8.044287638E0,1.639367120E1
1.529309575E1,3.646762807E0,1.198622959E1,7.698504354E0,1.470494978E1
1.530312575E1,3.719307750E0,9.412172404E0,7.566194143E0,1.263604105E1
1.531315575E1,3.092085697E0,6.707807683E0,7.424268186E0,1.047260407E1
1.532318575E1,2.552272795E0,3.926968982E0,6.995860822E0,8.418862776E0
1.533321575E1,2.304168126E0,9.394627833E-1,6.128725172E0,6.614609082E0
1.534324575E1,2.031841073E0,-1.728282580E0,5.228366228E0,5.869510392E0
1.535327575E1,1.526985750E0,-4.042378986E0,4.281161439E0,6.082832943E0
1.536330575E1,7.063579765E-1,-6.009030914E0,3.124121715E0,6.809370793E0
1.537333575E1,-4.478990579E-1,-7.604471186E0,1.730733148E0,7.811788068E0
1.538336575E1,-1.561703008E0,-8.895196679E0,1.256069630E-1,9.032121421E0
1.539339575E1,-2.845485224E0,-9.800903487E0,-1.440728501E0,1.030680328E1
1.540342475E1,-4.490390603E0,-1.040130085E1,-3.050276936E0,1.173264065E1
1.541345475E1,-6.085796084E0,-1.083685293E1,-4.904399783E0,1.336141582E1
1.542348475E1,-7.463141645E0,-1.105333439E1,-6.797871176E0,1.496949354E1
1.543351475E1,-8.629389857E0,-1.118355306E1,-8.480881104E0,1.647615163E1
1.544354475E1,-9.263998112E0,-1.132800969E1,-9.623456864E0,1.751446221E1
1.545357475E1,-9.162261822E0,-1.134881408E1,-1.012378732E1,1.775482167E1
1.546360475E1,-8.451888270E0,-1.116997816E1,-9.912769493E0,1.716000660E1
1.547363475E1,-7.283710477E0,-1.095801542E1,-8.950208454E0,1.591341484E1
1.548366475E1,-5.769365823E0,-1.068748581E1,-7.497005795E0,1.427280739E1
1.549369475E1,-4.118571422E0,-1.021980913E1,-6.081832257E0,1.258553983E1
1.550372475E1,-2.517601730E0,-9.704233224E0,-4.563458871E0,1.101524479E1
1.551375475E1,-1.204073558E0,-9.003615752E0,-2.919021270E0,9.541256464E0
1.552378475E1,-2.201403603E-1,-8.295744808E0,-1.361884938E0,8.409671473E0
1.553381475E1,7.940770286E-1,-7.770439725E0,-2.637123495E-1,7.815358984E0
1.554384475E1,2.099254207E0,-7.150103939E0,4.633465245E-1,7.466293897E0
1.555387475E1,3.039043558E0,-6.398729711E0,6.088325590E-1,7.109866717E0
1.556390475E1,3.407529241E0,-5.802696707E0,5.698880562E-1,6.753318961E0
1.557393375E1,3.560157064E0,-5.029373785E0,2.847269502E-1,6.168499691E0
1.558396375E1,3.898831011E0,-4.324670278E0,-2.182321215E-1,5.826772823E0
1.559399375E1,4.547995617E0,-3.739714825E0,-8.804053205E-1,5.953557309E0
1.560402375E1,4.996492553E0,-3.027085417E0,-1.722988511E0,6.090720266E0
1.561405375E1,4.564329814E0,-2.660287240E0,-2.717927046E0,5.941158328E0
1.562408375E1,3.725668643E0,-2.988551681E0,-3.198840945E0,5.748445997E0
1.563411375E1,3.112297475E0,-2.945347189E0,-2.497041165E0,4.959504030E0
1.564414375E1,3.152940887E0,-2.799332859E0,-1.180699021E0,4.378510120E0
1.565417375E1,3.154449761E0,-2.587471864E0,6.892718276E-1,4.137711879E0
1.566420375E1,2.667098954E0,-1.341214446E0,2.308740356E0,3.773930981E0
1.567423375E1,2.180339886E0,2.391271466E-1,2.848795626E0,3.595372071E0
1.568426375E1,6.048663195E-1,2.213479273E0,1.840035151E0,2.941272363E0
1.569429375E1,-2.067420796E0,4.556693058E0,-4.993463695E-1,5.028620802E0
1.570432375E1,-5.183932652E0,7.487540907E0,-3.088353712E0,9.616358730E0
1.571435375E1,-7.770077198E0,1.077495664E1,-5.271587092E0,1.429207545E1
1.572438375E1,-9.132361500E0,1.375381130E1,-5.744363714E0,1.748041951E1
1.573441275E1,-8.702150854E0,1.612026368E1,-3.521164322E0,1.865446136E1
1.574444275E1,-7.168801580E0,1.700099703E1,9.129740193E-1,1.847320052E1
1.575447275E1,-5.386159775E0,1.714499056E1,6.023726721E0,1.895380442E1
1.576450275E1,-2.627962663E0,1.759008997E1,1.173028175E1,2.130532710E1
1.577453275E1,1.483381308E0,1.765395794E1,1.647718474E1,2.419421972E1
1.578456275E1,6.344195069E0,1.695297150E1,1.939058215E1,2.652634031E1
1.579459275E1,9.281788850E0,1.576990553E1,1.947233909E1,2.672103131E1
1.580462275E1,9.056987382E0,1.407403290E1,1.627522191E1,2.334502668E1
1.581465275E1,7.227953768E0,1.125094806E1,1.078420928E1,1.717924090E1
1.582468275E1,4.676719146E0,8.320344045E0,5.503568357E0,1.101767179E1
1.583471275E1,2.150928245E0,5.441565651E0,1.760027407E0,6.110223034E0
1.584474275E1,4.550645283E-1,2.200289708E0,-7.405951783E-1,2.365764093E0
1.585477275E1,-5.702181315E-1,-8.625151795E-1,-1.882107329E0,2.147419184E0
1.586480275E1,-1.119795299E0,-3.523834453E0,-1.926079268E0,4.169068495E0
1.587483275E1,-1.176170937E0,-6.037866458E0,-1.558014877E0,6.345598458E0
1.588486275E1,-1.069435570E0,-8.160520930E0,-1.244141895E0,8.323802216E0
1.589489275E1,-1.341071481E0,-9.639160146E0,-1.270125460E0,9.814535125E0
1.590492175E1,-2.093135681E0,-1.068396344E1,-2.065797024E0,1.108132705E1
1.591495175E1,-3.378371223E0,-1.133682963E1,-3.496664781E0,1.233546767E1
1.592498175E1,-4.806510377E0,-1.161483316E1,-5.383447836E0,1.367437026E1
1.593501175E1,-6.330955803E0,-1.190443289E1,-7.295841696E0,1.533055217E1
1.594504175E1,-7.581199268E0,-1.205829301E1,-8.742349877E0,1.671244129E1
1.595507175E1,-8.244888650E0,-1.196262087E1,-9.535860896E0,1.737858251E1
1.596510175E1,-8.119525516E0,-1.185659214E1,-9.868647573E0,1.743260384E1
1.597513150E1,-7.114287404E0,-1.175307420E1,-9.486208094E0,1.669538806E1
1.598516150E1,-5.898560638E0,-1.147150270E1,-8.141879421E0,1.525380583E1
1.599519150E1,-4.869053365E0,-1.102395447E1,-6.359780822E0,1.362652065E1
1.600522150E1,-3.889371093E0,-1.054966810E1,-4.657181552E0,1.217012919E1
1.601525150E1,-2.976991443E0,-1.001786618E1,-3.037421248E0,1.088329218E1
1.602528150E1,-2.063374230E0,-9.272360215E0,-1.692101472E0,9.648698594E0
1.603531150E1,-1.145713083E0,-8.262443746E0,-9.081746247E-1,8.390793542E0
1.604534150E1,-8.356086320E-1,-7.487231589E0,-9.369663146E-1,7.591757670E0
1.605537150E1,-8.365754691E-1,-6.912363167E0,-1.732715939E0,7.175160458E0
1.606540050E1,-1.039915902E0,-6.022343270E0,-2.642247118E0,6.658191449E0
1.607543050E1,-7.088667244E-1,-5.094947385E0,-3.132450781E0,6.022726026E0
1.608546050E1,-6.252339989E-2,-3.905374045E0,-2.974142972E0,4.909315841E0
1.609549050E1,1.044625542E0,-2.353489097E0,-2.330951005E0,3.473252948E0
1.610552050E1,2.795771320E0,-9.750495225E-1,-1.525236555E0,3.330676417E0
1.611555050E1,4.511816555E0,4.188231933E-1,-4.227054521E-1,4.550887978E0
1.612558050E1,5.499429113E0,1.696610552E0,6.321863383E-1,5.789807207E0
1.613561050E1,5.868522906E0,2.690227908E0,1.816860004E0,6.706554076E0
1.614564050E1,6.116773463E0,3.891762897E0,3.092682406E0,7.881968061E0
1.615567050E1,6.170294198E0,5.473716567E0,4.404199428E0,9.350458606E0
1.616570050E1,5.911611038E0,7.047092371E0,5.551531897E0,1.074374992E1
1.617573050E1,4.825159194E0,8.643236648E0,6.614829937E0,1.190561532E1
1.618576050E1,3.270506759E0,1.009653345E1,7.200197035E0,1.282493819E1
1.619579050E1,2.092212113E0,1.128522912E1,7.056725074E0,1.347334838E1
1.620582050E1,1.257173292E0,1.257019569E1,7.194155107E0,1.453774990E1
1.621585050E1,7.506389406E-1,1.396408185E1,7.947568259E0,1.608486500E1
1.622587950E1,-2.627159840E-1,1.541065728E1,9.037636022E0,1.786718339E1
1.623590950E1,-1.289649605E0,1.636779152E1,1.024940539E1,1.935505376E1
1.624593950E1,-9.074133173E-1,1.693291906E1,1.162799524E1,2.056106564E1
1.625596950E1,1.312478012E0,1.734803512E1,1.316491716E1,2.181724009E1
1.626599950E1,4.304117315E0,1.629515857E1,1.476437272E1,2.240634554E1
1.627602950E1,6.724216139E0,1.440140447E1,1.586507715E1,2.245698569E1
1.628605950E1,8.360275265E0,1.252091770E1,1.577073701E1,2.180329627E1
1.629608950E1,7.964703525E0,1.047368470E1,1.428693704E1,1.942295403E1
1.630611950E1,5.692340451E0,7.599268334E0,1.148694403E1,1.490307022E1
1.631614950E1,3.298248289E0,4.292548599E0,8.315001444E0,9.921878061E0
1.632617950E1,1.621279996E0,1.109949465E0,5.447605240E0,5.791108659E0
1.633620950E1,3.954691216E-1,-2.032648281E0,2.926673521E0,3.585174021E0
1.634623950E1,-2.204523093E-1,-4.924362470E0,8.878043872E-1,5.008606751E0
1.635626950E1,-4.981055903E-1,-7.385085409E0,-9.313293064E-1,7.460225865E0
1.636629950E1,-1.024553512E0,-9.558292569E0,-2.593520223E0,9.956757197E0
1.637632850E1,-2.032205940E0,-1.139831193E1,-3.987724184E0,1.224554286E1
1.638635850E1,-3.693780268E0,-1.280445620E1,-5.051815399E0,1.425198057E1
1.639638850E1,-5.593006783E0,-1.366009447E1,-6.059153831E0,1.595597853E1
1.640641850E1,-7.310930436E0,-1.396504665E1,-7.259565570E0,1.735435173E1
1.641644850E1,-8.971830872E0,-1.385433429E1,-8.449809000E0,1.854280454E1
1.642647850E1,-1.048119019E1,-1.333207970E1,-9.597273617E0,1.948608113E1
1.643650850E1,-1.129920630E1,-1.279490653E1,-1.085293628E1,2.022789960E1
1.644653850E1,-1.132351201E1,-1.230692247E1,-1.180852335E1,2.047250567E1
1.645656850E1,-1.031389199E1,-1.176903125E1,-1.188487278E1,1.965036045E1
1.646659850E1,-8.677275045E0,-1.108127122E1,-1.055760511E1,1.759410980E1
1.647662850E1,-6.667932011E0,-1.028106105E1,-8.451787698E0,1.488604208E1
1.648665850E1,-4.324973164E0,-9.509794593E0,-6.371691016E0,1.223683098E1
1.649668850E1,-2.209366341E0,-8.896687719E0,-4.297262625E0,1.012416999E1
1.650671850E1,-5.208126676E-1,-8.213049976E0,-2.242481462E0,8.529604848E0
1.651674850E1,6.854652902E-1,-7.400324423E0,-4.124406651E-1,7.443438152E0
1.652677850E1,1.328426585E0,-6.511443563E0,1.038509062E0,6.726225951E0
1.653680750E1,1.497999932E0,-5.829966366E0,1.460823920E0,6.194071210E0
1.654683750E1,1.332594773E0,-5.346069510E0,7.017307824E-1,5.554160074E0
1.655686750E1,7.952178204E-1,-5.069034864E0,-6.926190662E-1,5.177567673E0
1.656689750E1,1.210803410E-1,-5.004597963E0,-2.283854021E0,5.502422231E0
1.657692750E1,-4.476487970E-1,-4.816274350E0,-3.301929696E0,5.856588407E0
1.658695750E1,-4.190465569E-1,-4.507785192E0,-3.547084152E0,5.751307098E0
1.659698750E1,2.896640468E-1,-4.048853608E0,-2.777847850E0,4.918694895E0
1.660701750E1,1.071888477E0,-3.616712211E0,-1.657599099E0,4.120338202E0
1.661704750E1,1.961511641E0,-3.020674530E0,-1.051655064E0,3.752063553E0
