"Time (s)","Linear Acceleration x (m/s^2)","Linear Acceleration y (m/s^2)","Linear Acceleration z (m/s^2)","Absolute acceleration (m/s^2)"
5.903166661E-3,3.584781736E-3,-5.232989037E-1,8.859701157E-3,5.233861744E-1
1.595116666E-2,-7.206981998E-2,-3.709479457E-1,-6.915662751E-2,3.841602224E-1
2.600016666E-2,-6.315120813E-2,-1.370230669E-1,-3.278090890E-1,3.608631247E-1
3.604816666E-2,-1.678279166E-1,1.164771205E-1,-3.690325440E-1,4.218034468E-1
4.609716666E-2,-4.454697956E-1,2.566927671E-1,1.272953466E-2,5.142922871E-1
5.614516666E-2,-4.353525776E-1,2.780736959E-1,8.757426046E-2,5.239523817E-1
6.619416666E-2,-4.466091621E-1,2.181660479E-1,5.983996645E-2,5.006365845E-1
7.624316667E-2,-3.091910062E-1,8.372452676E-2,4.151289225E-2,3.230049456E-1
8.629116666E-2,-1.598743146E-1,-1.009936935E-1,4.405950084E-2,1.941668411E-1
9.634016667E-2,-1.190069915E-1,-2.150535750E-1,1.604271322E-1,2.935090610E-1
1.063881667E-1,-1.760939426E-1,-2.239980608E-1,1.758398080E-1,3.348191242E-1
1.164371667E-1,-2.291060057E-1,-7.252067685E-2,7.046472274E-2,2.504278091E-1
1.264851667E-1,-2.579142505E-1,6.112094522E-3,-2.859405398E-2,2.595664428E-1
1.365341667E-1,-2.823871503E-1,6.381475747E-2,4.005576611E-2,2.922657872E-1
1.465821667E-1,-2.902209210E-1,1.363459593E-1,1.260811722E-1,3.445502366E-1
1.566311667E-1,-3.480432326E-1,1.059521323E-1,1.029764843E-1,3.781059407E-1
1.666801667E-1,-3.175415610E-1,-1.917886734E-4,1.956758293E-1,3.729902276E-1
1.767281667E-1,-2.610352384E-1,-6.090576768E-2,2.887249108E-1,3.939682504E-1
1.867771667E-1,-3.217634700E-1,-5.944747210E-2,2.601356077E-1,4.180146731E-1
1.968251667E-1,-4.981738200E-1,-5.421187520E-2,3.629336789E-1,6.187381818E-1
2.068741667E-1,-7.314005779E-1,6.403870583E-2,2.948534507E-1,7.911929717E-1
2.169221667E-1,-7.483181076E-1,1.707673484E-1,2.511168623E-1,8.075897201E-1
2.269716250E-1,-7.179160215E-1,2.194226146E-1,2.660793024E-1,7.964595990E-1
2.370196250E-1,-7.243087824E-1,2.690537810E-1,2.226723509E-1,8.041120103E-1
2.470686250E-1,-6.848681433E-1,2.006203079E-1,2.449737044E-1,7.545230266E-1
2.571176250E-1,-5.894457500E-1,5.203963459E-2,3.078050333E-1,6.670070122E-1
2.671656250E-1,-4.601464896E-1,-5.313364863E-2,2.643678224E-1,5.333369686E-1
2.772146250E-1,-3.294511699E-1,-1.693610930E-1,2.012382855E-1,4.215662471E-1
2.872626250E-1,-2.077133460E-1,-2.789466852E-1,1.739694299E-1,3.888720224E-1
2.973116250E-1,-7.051851712E-2,-3.302875775E-1,2.169479998E-1,4.014089931E-1
3.073596250E-1,1.362203903E-2,-3.589260703E-1,2.582748775E-1,4.424018493E-1
3.174086250E-1,1.613579359E-1,-3.497769320E-1,3.575747057E-1,5.255853459E-1
3.274566250E-1,2.589609021E-1,-3.544669837E-1,4.026006782E-1,5.956466213E-1
3.375056250E-1,4.273579720E-1,-3.360277891E-1,3.473807430E-1,6.451533864E-1
3.475546250E-1,5.581139931E-1,-3.517041743E-1,2.372379112E-1,7.010484164E-1
3.576026250E-1,6.192172140E-1,-3.577601355E-1,1.739232369E-1,7.359833999E-1
3.676516250E-1,6.982584865E-1,-3.246368283E-1,1.547436386E-1,7.854295499E-1
3.776996250E-1,6.878656454E-1,-3.818418932E-1,1.543360877E-1,8.017368680E-1
3.877486250E-1,6.566655605E-1,-5.188836712E-1,1.270833850E-1,8.465223619E-1
3.977966250E-1,7.175727899E-1,-5.792953491E-1,1.320190928E-1,9.316237713E-1
4.078456250E-1,8.392746900E-1,-5.699819040E-1,2.019300842E-1,1.034425993E0
4.178936250E-1,8.913473614E-1,-5.398126101E-1,1.484280610E-1,1.052581903E0
4.279426250E-1,8.901827422E-1,-5.616051829E-1,5.544329882E-2,1.053992246E0
4.379916250E-1,7.782170409E-1,-6.433422410E-1,6.504508473E-2,1.011801297E0
4.480396250E-1,6.913173299E-1,-6.840657592E-1,8.761124410E-2,9.764944155E-1
4.580886250E-1,7.600659679E-1,-7.388927615E-1,1.390690807E-1,1.069113183E0
4.681366250E-1,7.972493624E-1,-8.057849085E-1,1.660404593E-1,1.145628779E0
4.781856250E-1,7.725559129E-1,-8.743265551E-1,2.068896925E-1,1.184944264E0
4.882336250E-1,7.523679623E-1,-9.112651706E-1,1.486759830E-1,1.191035814E0
4.982826250E-1,6.917172063E-1,-8.405887055E-1,1.219419283E-1,1.095414031E0
5.083306250E-1,5.058697060E-1,-8.740622610E-1,2.532235958E-1,1.041158578E0
5.183796250E-1,3.626457400E-1,-9.788186377E-1,3.863074118E-1,1.113027976E0
5.284286250E-1,3.442932304E-1,-1.162794262E0,3.910126662E-1,1.274173940E0
5.384766250E-1,3.368860142E-1,-1.336925513E0,4.038677698E-1,1.436652773E0
5.485256250E-1,3.084083929E-1,-1.425113220E0,3.531297255E-1,1.500254655E0
5.585736250E-1,1.585539402E-1,-1.449180944E0,2.385547042E-1,1.477218030E0
5.686226250E-1,-2.348556277E-1,-1.615887986E0,2.477734061E-1,1.651557692E0
5.786706250E-1,-5.672911250E-1,-1.959500783E0,2.320046532E-1,2.053116825E0
5.887196250E-1,-6.372745123E-1,-2.280184894E0,2.333015656E-1,2.379031646E0
5.987676250E-1,-6.113102070E-1,-2.440311479E0,3.629308283E-1,2.541759050E0
6.088166250E-1,-7.201280232E-1,-2.606419766E0,4.250247868E-1,2.737271349E0
6.188656250E-1,-8.835040525E-1,-2.766533487E0,3.450371424E-1,2.924608961E0
6.289136250E-1,-1.035492995E0,-2.780404252E0,2.427331245E-1,2.976879729E0
6.389626250E-1,-1.094808539E0,-2.543807781E0,2.408339489E-1,2.779849772E0
6.490106250E-1,-1.028381319E0,-2.075423003E0,3.109280312E-1,2.337011985E0
6.590596250E-1,-9.944209094E-1,-1.471689216E0,2.398598027E-1,1.792282014E0
6.691076250E-1,-1.090784778E0,-8.698586977E-1,2.116048142E-1,1.411113809E0
6.791566250E-1,-1.244265564E0,-3.809671497E-1,1.545805013E-1,1.310430423E0
6.892046250E-1,-1.433770022E0,8.799767196E-2,3.338526249E-2,1.436855818E0
6.992536250E-1,-1.644758321E0,4.003892612E-1,1.104643556E-1,1.696391425E0
7.093026250E-1,-1.855794712E0,4.502788746E-1,3.651082584E-1,1.944229698E0
7.193506250E-1,-1.793430942E0,2.731848389E-1,4.960158686E-1,1.880706314E0
7.293996250E-1,-1.828596389E0,8.066292465E-2,6.074299581E-1,1.928533747E0
7.394476250E-1,-2.018705011E0,-5.078306794E-3,8.192452721E-1,2.178613900E0
7.494966250E-1,-2.095542102E0,-2.536054373E-2,8.995017421E-1,2.280579585E0
7.595446250E-1,-2.051160566E0,1.971505702E-2,8.385924661E-1,2.216051822E0
7.695936250E-1,-1.919078104E0,1.940082765E-1,7.018542317E-1,2.052583578E0
7.796416250E-1,-1.662288858E0,4.780718601E-1,4.925308549E-1,1.798428090E0
7.896906250E-1,-1.518378941E0,7.691123414E-1,4.548057890E-1,1.761776577E0
7.997396250E-1,-1.449529292E0,1.266632625E0,3.611765175E-1,1.958556063E0
8.097876250E-1,-1.257676153E0,1.626966705E0,1.859904282E-1,2.064791129E0
8.198366250E-1,-9.426594561E-1,1.592778035E0,1.698038734E-2,1.850901687E0
8.298846250E-1,-6.164929231E-1,1.430452312E0,-6.178993978E-2,1.558869891E0
8.399336250E-1,-2.017746397E-1,1.330187767E0,-1.755391880E-1,1.356807468E0
8.499816250E-1,9.279478250E-2,1.447030923E0,-4.188558646E-1,1.509287779E0
8.600306250E-1,2.198645910E-1,1.624685706E0,-7.607507499E-1,1.807397518E0
8.700786250E-1,2.618394315E-1,2.094146372E0,-1.019823334E0,2.343938683E0
8.801276250E-1,3.131197504E-1,3.004300572E0,-1.212741835E0,3.254936046E0
8.901766250E-1,6.466188745E-1,4.538977164E0,-1.778021336E0,4.917498300E0
9.002246250E-1,8.904034015E-1,6.353231356E0,-2.116074600E0,6.755304478E0
9.102736250E-1,8.758976289E-1,7.928081828E0,-2.063593501E0,8.238937812E0
9.203216250E-1,7.232301904E-1,9.530498999E0,-1.841885794E0,9.733756539E0
9.303706250E-1,1.000093074E0,1.136435832E1,-1.828349490E0,1.155386031E1
9.404186250E-1,1.914689330E0,1.240083109E1,-1.747570206E0,1.266888506E1
9.504676250E-1,2.822120043E0,1.286616771E1,-1.514856870E0,1.325886211E1
9.605156250E-1,3.200122362E0,1.338367670E1,-9.533721399E-1,1.379392996E1
9.705646250E-1,2.900969161E0,1.363190387E1,-6.299252200E-1,1.395138814E1
9.806136250E-1,2.311032611E0,1.337838965E1,-6.350380254E-1,1.359137428E1
9.906616250E-1,2.117060148E0,1.341287419E1,-9.290184867E-1,1.361066542E1
1.000710625E0,2.045245523E0,1.379990139E1,-1.120877327E0,1.399559480E1
1.010758625E0,1.608226233E0,1.395431116E1,-7.462275088E-1,1.406648666E1
1.020807625E0,2.101446913E0,1.403030274E1,-1.097856619E0,1.422922216E1
1.030855625E0,1.439205009E0,1.341557093E1,-8.371834333E-1,1.351849586E1
1.040904625E0,2.295431947E-1,1.284520428E1,-6.610943878E-1,1.286425314E1
1.050952625E0,-8.349794716E-1,1.191980872E1,-7.064803295E-1,1.196988493E1
1.061001625E0,-1.448873965E0,9.714920765E0,1.480316198E-1,9.823483832E0
1.071050625E0,-1.956556710E0,6.213391685E0,8.888587864E-1,6.574528146E0
1.081098625E0,-2.330166454E0,1.931381523E0,1.583582704E0,3.415793389E0
1.091147625E0,-2.726310199E0,-1.849553833E0,2.441252442E0,4.100406098E0
1.101195625E0,-2.614597974E0,-4.885523509E0,2.641996565E0,6.138779062E0
1.111244625E0,-1.939963920E0,-6.978733742E0,2.332033470E0,7.609504896E0
1.121292625E0,-1.042908653E0,-7.937556657E0,1.339881573E0,8.117126755E0
1.131341625E0,-4.048937369E-1,-8.308072493E0,2.550296728E-1,8.321841600E0
1.141390625E0,-7.826657487E-1,-8.385131194E0,-3.798292816E-1,8.430140040E0
1.151438625E0,-1.464556782E0,-8.480641953E0,-7.905494034E-1,8.642406081E0
1.161487625E0,-1.704831006E0,-8.943841420E0,-1.246870791E0,9.189854998E0
1.171535625E0,-1.456143662E0,-9.582108863E0,-1.306611939E0,9.779795468E0
1.181584625E0,-1.014679246E0,-1.035656497E1,-1.195706411E0,1.047462295E1
1.191632625E0,-6.682909946E-1,-1.106031948E1,-9.185860308E-1,1.111850170E1
1.201681625E0,-8.193907946E-1,-1.157931717E1,-5.029611913E-1,1.161916337E1
1.211729625E0,-1.380212597E0,-1.183322666E1,-1.143072188E-1,1.191399623E1
1.221777917E0,-1.760241999E0,-1.196272027E1,4.423289271E-1,1.209961913E1
1.231826917E0,-2.078351581E0,-1.185159745E1,1.141729667E0,1.208649883E1
1.241874917E0,-2.311682675E0,-1.148160201E1,1.502682967E0,1.180801074E1
1.251923917E0,-2.461529855E0,-1.122033438E1,1.400046791E0,1.157217196E1
1.261971917E0,-2.755942426E0,-1.089043214E1,1.315641063E0,1.131051025E1
1.272020917E0,-2.869852034E0,-1.062164265E1,1.212251839E0,1.106909652E1
1.282068917E0,-2.848628395E0,-1.054089962E1,1.103812813E0,1.097468228E1
1.292117917E0,-3.026574955E0,-1.052090448E1,1.057763650E0,1.099856586E1
1.302165917E0,-3.301090035E0,-1.063306577E1,9.372326553E-1,1.117307872E1
1.312214917E0,-3.302417938E0,-1.079178961E1,7.388448143E-1,1.130993275E1
1.322263917E0,-3.422150204E0,-1.092060026E1,7.169165862E-1,1.146667308E1
1.332311917E0,-3.778077822E0,-1.098997514E1,7.645457391E-1,1.164637092E1
1.342360917E0,-4.178368265E0,-1.110671246E1,6.579672968E-1,1.188489562E1
1.352408917E0,-4.334182821E0,-1.123892151E1,6.354484999E-1,1.206243310E1
1.362457917E0,-4.379738771E0,-1.125199822E1,8.488040435E-1,1.210413335E1
1.372505917E0,-4.532146447E0,-1.116326790E1,1.372598791E0,1.212612588E1
1.382554917E0,-4.392670180E0,-1.100025454E1,1.881187270E0,1.199333218E1
1.392602917E0,-3.868320532E0,-1.083777913E1,2.197632734E0,1.171541505E1
1.402651917E0,-3.358243060E0,-1.064185764E1,2.427610742E0,1.142016744E1
1.412700917E0,-2.958919162E0,-1.035678600E1,2.656864865E0,1.109401414E1
1.422748917E0,-2.430683746E0,-1.017833833E1,2.907090611E0,1.086084576E1
1.432797917E0,-1.985788695E0,-1.023915990E1,2.920642118E0,1.083115426E1
1.442845917E0,-1.628967476E0,-1.046409293E1,2.647866000E0,1.091613349E1
1.452894917E0,-9.124031849E-1,-1.069399960E1,2.453656579E0,1.100974740E1
1.462942917E0,-6.619137289E-1,-1.047511026E1,2.463126730E0,1.078114363E1
1.472991917E0,-1.224074836E0,-9.261380898E0,2.544939802E0,9.682368199E0
1.483039917E0,-1.355442622E0,-6.906756272E0,2.294139858E0,7.402944319E0
1.493088917E0,-9.365940662E-1,-3.902947451E0,1.765975925E0,4.385074483E0
1.503137917E0,-3.283468866E-1,-1.500646967E-1,1.125014963E0,1.181520105E0
1.513185917E0,-1.368654844E-1,4.833986151E0,-1.912086296E-1,4.839701954E0
1.523234917E0,-2.842040264E-1,1.003073239E1,-1.253623155E0,1.011276101E1
1.533282917E0,-3.179415106E-1,1.386373662E1,-1.254499068E0,1.392400976E1
1.543331917E0,-1.325671085E0,1.572309506E1,-6.851800923E-1,1.579375174E1
1.553379917E0,-2.978908745E0,1.679025636E1,-2.343702905E-1,1.705407679E1
1.563428917E0,-3.707636999E0,1.820353891E1,6.452344000E-1,1.858848375E1
1.573477917E0,-4.733703771E0,1.938142892E1,1.890185842E0,2.004047258E1
1.583525917E0,-5.331520468E0,2.010613985E1,1.929295529E0,2.089028845E1
1.593574917E0,-4.280065963E0,2.014306151E1,8.767549038E-1,2.061141894E1
1.603622917E0,-2.676108052E0,1.934089602E1,-8.415172434E-1,1.954328439E1
1.613671917E0,-1.446456580E0,1.857775720E1,-3.102472399E0,1.889049057E1
1.623719917E0,-9.298388511E-3,1.665239305E1,-5.023203803E0,1.739352917E1
1.633768917E0,1.421582817E0,1.337298215E1,-5.994900532E0,1.472400698E1
1.643816917E0,2.132743258E0,1.001628275E1,-6.371520277E0,1.206112700E1
1.653865917E0,2.311388121E0,7.192469355E0,-6.621241994E0,1.004564463E1
1.663914917E0,2.274952367E0,5.752899479E0,-6.638990632E0,9.074549978E0
1.673962917E0,2.164679434E0,5.453989815E0,-6.306534323E0,8.614186968E0
1.684011917E0,2.537282580E0,6.480629906E0,-6.175285381E0,9.304327832E0
1.694059917E0,2.000993795E0,8.139940485E0,-5.234979429E0,9.882692795E0
1.704108917E0,7.371916603E-1,8.881241714E0,-3.575298722E0,9.602221976E0
1.714156917E0,1.136498456E-1,8.387413362E0,-2.830481561E0,8.852866489E0
1.724205917E0,3.790355220E-1,7.288057882E0,-2.383422456E0,7.677249392E0
1.734253917E0,1.111145806E0,6.060596924E0,-1.754927173E0,6.406656652E0
1.744302917E0,1.565053901E0,5.265995400E0,-1.100332404E0,5.602752240E0
1.754351917E0,1.942458050E0,4.465450766E0,-8.289050916E-1,4.939683944E0
1.764399917E0,2.008950247E0,3.518199492E0,-7.503018486E-1,4.120262324E0
1.774448917E0,1.847772625E0,2.831452784E0,-7.917445743E-1,3.472498814E0
1.784496917E0,2.003239126E0,2.096884623E0,-1.035457692E0,3.079296145E0
1.794545917E0,2.128857198E0,9.894272411E-1,-1.167969486E0,2.622051097E0
1.804593917E0,2.086231289E0,-7.235403121E-2,-1.211973438E0,2.413809377E0
1.814642917E0,1.712202591E0,-1.004737006E0,-1.023478063E0,2.233526698E0
1.824691917E0,1.392506075E0,-1.831800517E0,-9.303865890E-1,2.481972101E0
1.834739917E0,1.225674926E0,-2.555095831E0,-8.374836878E-1,2.955024984E0
1.844788917E0,1.047035764E0,-3.273584148E0,-6.259608078E-1,3.493488801E0
1.854836917E0,7.742573065E-1,-3.916063340E0,-4.664594360E-1,4.019031086E0
1.864885917E0,6.980570499E-1,-4.270046175E0,-4.443300636E-1,4.349483554E0
1.874933917E0,8.534054368E-1,-4.458886682E0,-5.303237486E-1,4.570690819E0
1.884982917E0,8.434254091E-1,-4.826160237E0,-3.792993046E-1,4.913965508E0
1.895030917E0,8.354367238E-1,-5.294856672E0,-2.096774257E-1,5.364459555E0
1.905079917E0,1.086907270E0,-5.569650664E0,-1.699760740E-1,5.677258828E0
1.915128917E0,1.128775526E0,-5.561309026E0,-2.084635437E-1,5.678534082E0
1.925176917E0,1.201993337E0,-5.473711889E0,-2.283337712E-1,5.608782946E0
1.935225917E0,1.233062006E0,-5.562677860E0,4.587798491E-3,5.697705497E0
1.945273917E0,1.155454910E0,-5.621879164E0,3.109783173E-1,5.747809052E0
1.955322917E0,1.058036350E0,-5.652023315E0,5.241606371E-1,5.774041292E0
1.965370917E0,9.517447136E-1,-5.603523000E0,6.025975268E-1,5.715628731E0
1.975419917E0,8.823530281E-1,-5.442662589E0,6.714205706E-1,5.554451234E0
1.985467917E0,7.976682423E-1,-5.361640645E0,8.404578010E-1,5.485420162E0
1.995516917E0,7.059277676E-1,-5.231637745E0,1.049726214E0,5.382405841E0
2.005565917E0,7.245944189E-1,-5.012858909E0,1.084207098E0,5.179700430E0
2.015613917E0,7.712321033E-1,-4.729447875E0,8.567398846E-1,4.867902977E0
2.025662917E0,5.994488377E-1,-4.445891245E0,8.631846857E-1,4.568410629E0
2.035710917E0,3.348846585E-1,-4.329809981E0,9.343548019E-1,4.442118988E0
2.045759917E0,2.832430731E-1,-4.363432056E0,8.095857449E-1,4.446930967E0
2.055807917E0,2.846940231E-1,-4.306663778E0,7.646380520E-1,4.383272172E0
2.065856917E0,-3.058561563E-2,-4.141196346E0,1.026848252E0,4.266715363E0
2.075905917E0,-3.631625973E-1,-4.068390909E0,1.226569404E0,4.264758395E0
2.085953917E0,-3.170368732E-1,-4.065295393E0,1.210467342E0,4.253512690E0
2.096002917E0,-1.508274294E-1,-4.161797256E0,1.099745636E0,4.307289841E0
2.106050917E0,-4.686638363E-2,-4.264711175E0,9.025868793E-1,4.359428969E0
2.116099917E0,-1.389276329E-1,-4.404887061E0,8.305819269E-1,4.484662444E0
2.126147917E0,-1.788674049E-1,-4.618073035E0,7.244865377E-1,4.677977431E0
2.136196917E0,-5.434912032E-2,-4.849180725E0,7.574882229E-1,4.908288494E0
2.146244917E0,-1.431254587E-1,-4.762195791E0,8.266900201E-1,4.835536169E0
2.156293917E0,-3.049025851E-1,-4.048712690E0,6.437704034E-1,4.110897756E0
2.166342917E0,-3.565996459E-1,-3.138340974E0,3.132423592E-1,3.174030269E0
2.176390917E0,-4.228747656E-1,-2.208928970E0,1.175606096E-1,2.252112510E0
2.186439917E0,-4.392135306E-1,-8.914039332E-1,-8.956063271E-2,9.977627997E-1
2.196487917E0,-5.946208648E-1,5.610567141E-1,-1.407435040E-1,8.295585231E-1
2.206536917E0,-7.725394676E-1,1.931413098E0,-4.468966989E-1,2.127649041E0
2.216584917E0,-1.219397721E0,3.107644261E0,-1.046686539E0,3.498562043E0
2.226633750E0,-1.826471364E0,4.390618685E0,-1.696988282E0,5.049088959E0
2.236681750E0,-2.396847225E0,6.125962948E0,-2.097974106E0,6.904621206E0
2.246730750E0,-2.978426350E0,8.054436650E0,-2.300657165E0,8.890331640E0
2.256779750E0,-3.627052428E0,9.946730121E0,-2.301324771E0,1.083462252E1
2.266827750E0,-4.200985003E0,1.213082304E1,-2.209820670E0,1.302645194E1
2.276876750E0,-4.518833798E0,1.461868934E1,-2.200273336E0,1.545856202E1
2.286924750E0,-5.126574390E0,1.695323931E1,-2.326398947E0,1.786354444E1
2.296973750E0,-5.258138496E0,1.916564328E1,-2.208159914E0,1.999614645E1
2.307021750E0,-4.828004157E0,2.087202920E1,-1.502829001E0,2.147579387E1
2.317070750E0,-3.951593654E0,2.192077645E1,-1.112733325E0,2.230187678E1
2.327119750E0,-3.005027381E0,2.249262946E1,-1.028545114E0,2.271577590E1
2.337167750E0,-2.000554669E0,2.258057392E1,-9.056211457E-1,2.268710399E1
2.347216750E0,-1.051273387E0,2.212156983E1,-1.251606889E0,2.218187430E1
2.357264750E0,-9.139057001E-1,2.098241060E1,-1.554252778E0,2.105973599E1
2.367313750E0,-8.738801202E-1,1.921169361E1,-1.381455861E0,1.928111143E1
2.377361750E0,-9.687263435E-1,1.679023180E1,-8.960928154E-1,1.684200988E1
2.387410750E0,-1.445301609E0,1.387932997E1,-9.383073735E-1,1.398588996E1
2.397458750E0,-2.308234864E0,1.065794216E1,-5.876214918E-1,1.092085063E1
2.407507750E0,-3.190594617E0,7.099202172E0,1.031767514E-1,7.783907176E0
2.417556750E0,-3.434110098E0,3.494694854E0,7.915595099E-1,4.963121069E0
2.427604750E0,-3.302984826E0,1.038757861E-2,1.442637617E0,3.604305752E0
2.437653750E0,-3.546827752E0,-2.909580356E0,2.118233538E0,5.052975190E0
2.447701750E0,-3.473072143E0,-5.219870224E0,2.206553538E0,6.646664862E0
2.457750750E0,-3.004178073E0,-6.851723447E0,1.586389221E0,7.647733707E0
2.467798750E0,-2.266071762E0,-7.939798479E0,5.471847796E-1,8.274955728E0
2.477847750E0,-1.517719375E0,-8.676390946E0,-2.717572412E-1,8.812325683E0
2.487896750E0,-7.944552704E-1,-9.186763995E0,-4.923729801E-1,9.234187729E0
2.497944750E0,-5.807295980E-1,-9.461928116E0,-4.094558077E-1,9.488571262E0
2.507993750E0,-1.855911364E-1,-9.403768786E0,-1.653579430E-1,9.407053454E0
2.518041750E0,7.763414734E-1,-9.188464950E0,-3.224140093E-2,9.221259877E0
2.528090750E0,1.739536716E0,-9.122793701E0,2.327997284E-1,9.290077966E0
2.538138750E0,2.369867879E0,-9.143248431E0,4.869349234E-1,9.457926372E0
2.548187750E0,2.662051345E0,-9.097617930E0,5.348611879E-1,9.494169045E0
2.558236750E0,2.410066464E0,-9.289710658E0,8.979753265E-1,9.639165117E0
2.568284750E0,2.020817464E0,-9.774590431E0,1.469398423E0,1.008887769E1
2.578333750E0,1.770635718E0,-1.041408520E1,1.741693608E0,1.070615795E1
2.588381750E0,1.305840545E0,-1.109649737E1,1.683675342E0,1.129921396E1
2.598430750E0,8.535764679E-1,-1.155910802E1,1.442583969E0,1.168000940E1
2.608478750E0,3.594299541E-1,-1.170401372E1,1.154402995E0,1.176629820E1
2.618527750E0,-5.198576711E-2,-1.178620219E1,6.566423178E-1,1.180459417E1
2.628575750E0,-2.202726535E-1,-1.204527945E1,8.303974472E-2,1.204757953E1
2.638624750E0,-3.000560839E-1,-1.244246093E1,-1.129881600E-1,1.244659125E1
2.648673750E0,-1.299274250E-1,-1.272804011E1,1.510756072E-1,1.272959976E1
2.658721750E0,1.169141359E-1,-1.280503624E1,4.688963362E-1,1.281415178E1
2.668770750E0,2.745751606E-1,-1.262272825E1,6.971423992E-1,1.264494632E1
2.678818750E0,1.969639892E-1,-1.229739267E1,8.100499407E-1,1.232561732E1
2.688867750E0,-1.607799569E-1,-1.194309234E1,9.928198687E-1,1.198536591E1
2.698915750E0,-5.943384077E-1,-1.164201102E1,1.316529986E0,1.173127912E1
2.708964750E0,-9.919777235E-1,-1.140514850E1,1.434347727E0,1.153771145E1
2.719013750E0,-1.259439965E0,-1.129979687E1,1.472569807E0,1.146473115E1
2.729061750E0,-1.427667283E0,-1.123611485E1,1.529174216E0,1.142921189E1
2.739110750E0,-1.392708681E0,-1.113524687E1,1.583803875E0,1.133321645E1
2.749158750E0,-1.209320264E0,-1.116758782E1,1.591952409E0,1.134512167E1
2.759207750E0,-1.197216235E0,-1.117684279E1,1.609292911E0,1.135539366E1
2.769255750E0,-1.133211590E0,-1.106674440E1,1.520280747E0,1.122801201E1
2.779304750E0,-8.731812318E-1,-1.095605076E1,1.405715082E0,1.108032168E1
2.789352750E0,-5.343820086E-1,-1.100770389E1,1.561144599E0,1.113069098E1
2.799401750E0,-2.388040879E-1,-1.102976661E1,1.716523976E0,1.116508994E1
2.809450750E0,1.710311675E-1,-1.066765088E1,1.464926472E0,1.076912422E1
2.819498750E0,5.860724182E-1,-9.973403950E0,1.020937886E0,1.004263817E1
2.829547750E0,3.620605068E-1,-9.406081359E0,8.238878882E-1,9.449034109E0
2.839595750E0,2.811999463E-1,-8.822318153E0,8.583759356E-1,8.868437306E0
2.849644750E0,5.618087391E-1,-7.823753468E0,3.440268532E-1,7.851439477E0
2.859692750E0,5.034785603E-1,-6.266145265E0,-2.329214235E-1,6.290653347E0
2.869741750E0,-6.282765976E-1,-3.224773931E0,-9.963195004E-2,3.286917236E0
2.879790750E0,-1.788140088E0,1.116467357E0,-3.483350086E-1,2.136651963E0
2.889838750E0,-2.977270063E0,5.702918649E0,-8.443941466E-1,6.488483615E0
2.899887750E0,-3.255326802E0,9.531346845E0,-7.705215204E-1,1.010135776E1
2.909935750E0,-3.033879882E0,1.241495562E1,5.301226044E-1,1.279126969E1
2.919984750E0,-3.368656074E0,1.391363208E1,2.750446043E0,1.457744679E1
2.930032750E0,-3.111862735E0,1.487258948E1,3.674005569E0,1.563252777E1
2.940081750E0,-2.048305956E0,1.662612034E1,3.196288050E0,1.705402275E1
2.950130750E0,-8.049209093E-1,1.874895198E1,2.003164866E0,1.887283146E1
2.960178750E0,3.954381314E-1,1.972266541E1,8.144832996E-1,1.974343651E1
2.970227750E0,1.754264245E0,1.936645537E1,-1.548868223E-1,1.944636281E1
2.980275750E0,3.192475081E0,1.861506127E1,-1.328682693E0,1.893351000E1
2.990324750E0,3.673987443E0,1.710210474E1,-2.667768753E0,1.769455171E1
3.000372750E0,3.684827596E0,1.585228578E1,-3.818383849E0,1.671684702E1
3.010421750E0,3.550166219E0,1.497769435E1,-4.448749949E0,1.602268343E1
3.020469750E0,2.600138687E0,1.339194584E1,-4.325997012E0,1.431150532E1
3.030518750E0,1.495799040E0,1.176765014E1,-4.213298947E0,1.258836338E1
3.040567750E0,9.593481405E-1,1.044943747E1,-4.183985685E0,1.129676186E1
3.050615750E0,4.752517480E-1,9.276860232E0,-3.589106337E0,9.958297259E0
3.060664750E0,-2.692201343E-1,8.499647743E0,-2.796405158E0,8.951892149E0
3.070712750E0,-8.401862709E-1,8.097169272E0,-2.237260484E0,8.442475801E0
3.080761750E0,-1.129034631E0,7.824808890E0,-1.720350248E0,8.090856465E0
3.090809750E0,-6.820617722E-1,7.582779770E0,-1.564434242E0,7.772464976E0
3.100858750E0,1.218743929E-1,7.258116045E0,-1.619441339E0,7.437586446E0
3.110907750E0,1.030086732E0,6.900906717E0,-1.778360474E0,7.200427638E0
3.120955750E0,1.921948356E0,6.497045964E0,-1.703869286E0,6.986319652E0
3.131004750E0,2.569115992E0,5.950425441E0,-1.622128134E0,6.681258833E0
3.141052750E0,2.939490618E0,5.252231639E0,-1.447189382E0,6.190387661E0
3.151101750E0,3.026267684E0,4.413879493E0,-1.054951140E0,5.454681492E0
3.161149750E0,3.023944293E0,3.448463843E0,-6.921132821E-1,4.638444002E0
3.171198750E0,2.816055311E0,2.481346069E0,-3.902121824E-1,3.773527710E0
3.181247750E0,2.511660666E0,1.725808039E0,-1.234651462E-1,3.049933824E0
3.191295750E0,2.236221433E0,1.050005565E0,1.012684943E-1,2.472539846E0
3.201344750E0,1.951407652E0,3.866816336E-1,1.212473156E-1,1.993041751E0
3.211392750E0,1.675624457E0,-2.830666333E-1,-1.007475257E-3,1.699366074E0
3.221441750E0,1.507993993E0,-9.674124742E-1,-2.875488896E-2,1.791859264E0
3.231489917E0,1.519835043E0,-1.634341798E0,-1.020748802E-1,2.234142107E0
3.241538917E0,1.575400841E0,-2.283655801E0,-3.118437417E-1,2.791812699E0
3.251586917E0,1.654190172E0,-2.914992539E0,-4.552647954E-1,3.382424080E0
3.261635917E0,1.783902027E0,-3.446804404E0,-4.777075785E-1,3.910367191E0
3.271684917E0,1.938627685E0,-3.916973167E0,-5.443103250E-1,4.404228630E0
3.281732917E0,1.982064604E0,-4.388998421E0,-7.144356126E-1,4.868501359E0
3.291781917E0,1.965100808E0,-4.799416827E0,-8.549277594E-1,5.256132089E0
3.301829917E0,1.951969569E0,-5.191568531E0,-8.854771223E-1,5.616639453E0
3.311878917E0,1.863260437E0,-5.556528343E0,-7.471349967E-1,5.908041756E0
3.321926917E0,1.691179512E0,-5.844287952E0,-5.843672240E-1,6.112059788E0
3.331975917E0,1.577141996E0,-6.004444358E0,-5.049450785E-1,6.228619306E0
3.342024917E0,1.495855758E0,-5.986194613E0,-3.119057222E-1,6.178138520E0
3.352072917E0,1.391651066E0,-5.957013499E0,-9.395192821E-2,6.118131208E0
3.362121917E0,1.374830966E0,-5.858747531E0,-3.830510974E-3,6.017898096E0
3.372169917E0,1.401310520E0,-5.616346529E0,2.706851542E-2,5.788588101E0
3.382218917E0,1.330746907E0,-5.264620720E0,2.525997162E-3,5.430204879E0
3.392266917E0,1.263826839E0,-4.990867531E0,9.849671312E-3,5.148408881E0
3.402315917E0,1.134279437E0,-4.756487739E0,1.002107513E-1,4.890890272E0
3.412364917E0,9.545021144E-1,-4.540244840E0,2.479319205E-1,4.646113186E0
3.422412917E0,7.978110605E-1,-4.431707069E0,3.090458125E-1,4.513539559E0
3.432461917E0,6.273813888E-1,-4.344552566E0,3.338532096E-1,4.402295125E0
3.442509917E0,5.099995579E-1,-4.259955634E0,4.386107558E-1,4.312737060E0
3.452558917E0,3.620641248E-1,-4.168997517E0,5.920715153E-1,4.226367164E0
3.462606917E0,2.260090645E-1,-3.993513805E0,6.711346418E-1,4.055817342E0
3.472655917E0,1.890856518E-1,-3.745532804E0,6.431691635E-1,3.805054000E0
3.482704917E0,2.823734459E-1,-3.548069993E0,5.918633544E-1,3.608162644E0
3.492752917E0,2.673320684E-1,-3.494815891E0,7.116915143E-1,3.576549924E0
3.502801917E0,3.746252596E-1,-3.413575262E0,8.694178176E-1,3.542418312E0
3.512849917E0,5.339268029E-1,-3.244868472E0,8.565083349E-1,3.398213613E0
3.522898917E0,6.574289145E-1,-3.102920880E0,8.322447288E-1,3.279170940E0
3.532946917E0,7.860198578E-1,-3.056022118E0,7.556672537E-1,3.244708215E0
3.542995917E0,8.293309151E-1,-3.121913221E0,7.963393164E-1,3.326903701E0
3.553043917E0,8.836000930E-1,-3.183152865E0,9.164890730E-1,3.428288714E0
3.563092917E0,9.589214399E-1,-3.160907133E0,8.754100442E-1,3.417192851E0
3.573141917E0,1.002004602E0,-3.037223319E0,8.047886161E-1,3.297942303E0
3.583189917E0,9.120298402E-1,-2.907528568E0,7.101946270E-1,3.128881144E0
3.593238917E0,8.716527696E-1,-2.792978690E0,5.084306037E-1,2.969681833E0
3.603286917E0,8.543793637E-1,-2.572062696E0,3.225663658E-1,2.729380822E0
3.613335917E0,8.202482888E-1,-2.239194742E0,1.313237858E-1,2.388314528E0
3.623384917E0,7.919074193E-1,-1.948527898E0,-5.179814458E-2,2.103939490E0
3.633432917E0,6.296078624E-1,-1.644161028E0,-1.398958039E-1,1.766137702E0
3.643481917E0,3.031829555E-1,-1.042824014E0,-1.259759223E-1,1.093284850E0
3.653529917E0,4.460519224E-2,-1.691769058E-1,-2.171937291E-1,2.788970501E-1
3.663578917E0,-4.815006673E-1,8.660492367E-1,-4.953362759E-1,1.107809640E0
3.673626917E0,-1.057111394E0,2.133463635E0,-7.870830278E-1,2.507718340E0
3.683675917E0,-1.571116733E0,3.464504510E0,-1.181939727E0,3.983488522E0
3.693723917E0,-2.024757902E0,4.783932815E0,-1.492028171E0,5.404794705E0
3.703772917E0,-2.411792123E0,6.060849524E0,-1.605735465E0,6.717813973E0
3.713821917E0,-2.400057346E0,7.533892955E0,-1.666346533E0,8.080626775E0
3.723869917E0,-2.535807620E0,9.026361421E0,-1.572837714E0,9.506804892E0
3.733918917E0,-2.563380750E0,1.041126685E1,-1.553963048E0,1.083421429E1
3.743966917E0,-2.457227474E0,1.169094169E1,-1.625088580E0,1.205640897E1
3.754015917E0,-2.544322336E0,1.286785171E1,-1.574117231E0,1.321109492E1
3.764063917E0,-2.731539364E0,1.406766177E1,-1.806079785E0,1.444376472E1
3.774112917E0,-2.812616271E0,1.532246957E1,-1.734905283E0,1.567478167E1
3.784161917E0,-2.120588505E0,1.667563222E1,-1.698203480E0,1.689548758E1
3.794209917E0,-1.658591664E0,1.767448868E1,-1.724008412E0,1.783565758E1
3.804258917E0,-1.750440312E0,1.867757969E1,-1.965077273E0,1.886206652E1
3.814306917E0,-1.804583336E0,1.961800961E1,-2.307154591E0,1.983546784E1
3.824355917E0,-2.014276038E0,1.986033927E1,-2.404538945E0,2.010652112E1
3.834403917E0,-2.558704732E0,1.926912496E1,-2.094882098E0,1.955082294E1
3.844452917E0,-2.863935821E0,1.795898262E1,-1.829605326E0,1.827770885E1
3.854501917E0,-3.398619254E0,1.606626581E1,-1.210555781E0,1.646635829E1
3.864549917E0,-3.635787583E0,1.368153855E1,-6.878817983E-1,1.417309528E1
3.874598917E0,-3.398107038E0,1.097988986E1,-2.889520021E-1,1.149733039E1
3.884646917E0,-3.153730845E0,8.193573486E0,1.415214761E-1,8.780700031E0
3.894695917E0,-2.873548644E0,5.508594623E0,3.070431411E-1,6.220624729E0
3.904743917E0,-2.527891075E0,2.930282423E0,2.724618307E-1,3.879564900E0
3.914792917E0,-2.238044887E0,3.214208597E-1,2.599800718E-1,2.275905518E0
3.924841917E0,-1.914575602E0,-2.338948241E0,2.934786241E-1,3.036841832E0
3.934889917E0,-1.367817084E0,-4.731834708E0,4.003151478E-1,4.941804883E0
3.944938917E0,-5.408173080E-1,-6.776456333E0,3.583347706E-1,6.807440606E0
3.954986917E0,1.179731306E-1,-8.473455725E0,1.839839561E-1,8.476273927E0
3.965035917E0,7.436408468E-1,-9.623865584E0,-1.719465856E-1,9.654084945E0
3.975083917E0,1.404373584E0,-1.026568872E1,-6.597259931E-1,1.038228628E1
3.985132917E0,2.064187139E0,-1.062311381E1,-1.166375681E0,1.088447738E1
3.995181917E0,2.436297219E0,-1.068436924E1,-1.410957695E0,1.104907651E1
4.005229917E0,2.537205105E0,-1.057753593E1,-1.528214250E0,1.098440326E1
4.015278917E0,2.422171954E0,-1.048218422E1,-1.363145013E0,1.084441180E1
4.025326917E0,1.880691718E0,-1.043313777E1,-8.926347721E-1,1.063880454E1
4.035375917E0,1.421197924E0,-1.034837420E1,-3.792528192E-1,1.045239134E1
4.045423917E0,9.126095916E-1,-1.031346749E1,1.283218253E-1,1.035456104E1
4.055472917E0,3.789526378E-1,-1.036126146E1,4.830490831E-1,1.037943546E1
4.065521917E0,6.293720003E-2,-1.047755556E1,8.426374968E-1,1.051157313E1
4.075569917E0,-4.293522745E-2,-1.048564811E1,1.077952990E0,1.054099817E1
4.085618917E0,-1.891820578E-1,-1.044847619E1,1.137153709E0,1.051187724E1
4.095666917E0,-3.838195312E-1,-1.043113919E1,1.134390242E0,1.049965826E1
4.105715917E0,-4.537880446E-1,-1.041807534E1,1.065943832E0,1.048229239E1
4.115763917E0,-6.224813490E-1,-1.048569255E1,9.939132249E-1,1.055107078E1
4.125812917E0,-7.798806468E-1,-1.056838738E1,9.797338732E-1,1.064231667E1
4.135860917E0,-8.726973747E-1,-1.063424457E1,9.783970535E-1,1.071475707E1
4.145909917E0,-1.017483205E0,-1.068373540E1,1.024726882E0,1.078088769E1
4.155958917E0,-1.207163080E0,-1.065332286E1,1.008809665E0,1.076885452E1
4.166006917E0,-1.406110938E0,-1.055479728E1,9.741576760E-1,1.069251499E1
4.176055917E0,-1.648380086E0,-1.050637298E1,9.672559150E-1,1.067879273E1
4.186103917E0,-2.017599449E0,-1.046178679E1,9.280630517E-1,1.069490493E1
4.196152917E0,-2.378563858E0,-1.038982628E1,1.039631288E0,1.070919648E1
4.206200917E0,-2.430859747E0,-1.027110675E1,9.761773042E-1,1.059988845E1
4.216249917E0,-2.498994720E0,-1.017705312E1,9.278828113E-1,1.052037790E1
4.226299792E0,-2.913135463E0,-1.035384251E1,1.153739702E0,1.081755648E1
4.236347792E0,-3.159799671E0,-1.045054610E1,1.250431745E0,1.098916864E1
4.246396792E0,-3.210474273E0,-1.027556467E1,1.265275194E0,1.083952469E1
4.256444792E0,-3.209529947E0,-1.011069306E1,1.213645888E0,1.067708448E1
4.266493792E0,-3.421606413E0,-9.978120314E0,1.144665043E0,1.061039742E1
4.276541792E0,-3.410554590E0,-9.800201236E0,1.169238478E0,1.044236302E1
4.286590792E0,-3.279577837E0,-9.784627762E0,1.366992773E0,1.040976659E1
4.296639792E0,-3.185761893E0,-9.774218549E0,1.490272983E0,1.038774955E1
4.306687792E0,-3.045181380E0,-9.527361968E0,1.468444011E0,1.010940570E1
4.316736792E0,-2.914848112E0,-8.927027752E0,1.514437186E0,9.512186078E0
4.326784792E0,-2.667522585E0,-8.109464212E0,1.540019778E0,8.674718869E0
4.336833792E0,-2.201371151E0,-6.860000181E0,1.471931437E0,7.353381507E0
4.346881792E0,-1.690137100E0,-4.740738848E0,1.557738157E0,5.268559235E0
4.356930792E0,-1.239973415E0,-1.762304020E0,1.749451840E0,2.775577646E0
4.366979792E0,-1.317029485E0,2.102261723E0,1.964992049E0,3.164690312E0
4.377027792E0,-1.554435211E0,6.513435709E0,2.010542883E0,6.991666200E0
4.387076792E0,-1.667145555E0,1.130424427E1,2.418505750E0,1.167966107E1
4.397124792E0,-1.893337930E0,1.618854395E1,3.097015193E0,1.659051497E1
4.407173792E0,-1.984022690E0,1.892152670E1,3.814957380E0,1.940397945E1
4.417221792E0,-1.928701890E0,2.047885307E1,4.751564676E0,2.111115063E1
4.427270792E0,-1.901987131E0,2.135419061E1,5.701180272E0,2.218383348E1
4.437319792E0,-1.274965492E0,2.087800740E1,5.578959432E0,2.164812967E1
4.447367792E0,-3.837805741E-1,1.954839967E1,4.824002907E0,2.013847614E1
4.457416792E0,5.696828920E-1,1.838145681E1,3.471727283E0,1.871511110E1
4.467464792E0,9.397142867E-1,1.768824835E1,1.457367046E0,1.777304451E1
4.477513792E0,1.150813463E0,1.669174715E1,-5.331035149E-1,1.673986242E1
4.487561792E0,1.165781750E0,1.473516120E1,-2.747507232E0,1.503438787E1
4.497610792E0,8.872021240E-1,1.211501334E1,-4.385618731E0,1.291488782E1
4.507659792E0,7.440763181E-1,9.730834547E0,-4.814790034E0,1.088232483E1
4.517707792E0,8.025693054E-1,7.995848719E0,-4.724972124E0,9.322181922E0
4.527756792E0,8.517900704E-1,6.922085332E0,-4.788618774E0,8.460004813E0
4.537804792E0,1.069590960E0,6.288128457E0,-4.728941506E0,7.940243830E0
4.547853792E0,1.247642185E0,5.843735974E0,-4.457566381E0,7.454915103E0
4.557901792E0,1.308851569E0,5.540025162E0,-4.004411845E0,6.959905563E0
4.567950792E0,1.540876687E0,5.341305199E0,-3.655867506E0,6.653511059E0
4.577999792E0,1.754809205E0,4.913259777E0,-3.443625273E0,6.251242436E0
4.588047792E0,1.938135203E0,4.210371246E0,-3.114194312E0,5.584066646E0
4.598096792E0,2.095865307E0,3.609907807E0,-2.685522069E0,4.963478069E0
4.608144792E0,2.237649031E0,3.055336239E0,-2.477825460E0,4.525679146E0
4.618193792E0,2.345936249E0,2.313121675E0,-2.376361066E0,4.062147299E0
4.628241792E0,2.395248450E0,1.490703776E0,-2.135576088E0,3.538375067E0
4.638290792E0,2.531301756E0,6.108089179E-1,-1.941509485E0,3.248081772E0
4.648339792E0,2.638573020E0,-3.118647552E-1,-1.837294414E0,3.230321652E0
4.658387792E0,2.737772203E0,-1.120277987E0,-1.787045928E0,3.456002395E0
4.668436792E0,2.743899500E0,-1.882249124E0,-1.710122298E0,3.741171542E0
4.678484792E0,2.771025903E0,-2.570109726E0,-1.663310659E0,4.129243382E0
4.688533792E0,2.912791647E0,-3.126643619E0,-1.685091537E0,4.593450662E0
4.698581792E0,2.943351535E0,-3.533208125E0,-1.764564553E0,4.925501596E0
4.708630792E0,2.981889364E0,-3.837261000E0,-1.784621673E0,5.176978913E0
4.718679792E0,2.922803834E0,-4.199083196E0,-1.722034246E0,5.398192650E0
4.728727792E0,2.706095497E0,-4.467766263E0,-1.629014400E0,5.471524115E0
4.738776792E0,2.429495446E0,-4.520089488E0,-1.550695624E0,5.360812813E0
4.748824792E0,2.247500420E0,-4.454559157E0,-1.476737702E0,5.203374834E0
4.758873792E0,1.962434624E0,-4.306721081E0,-1.265888275E0,4.899129437E0
4.768921792E0,1.663207309E0,-4.102271431E0,-1.019630449E0,4.542525256E0
4.778970792E0,1.581114887E0,-3.878400840E0,-8.894538867E-1,4.281710590E0
4.789019792E0,1.565691540E0,-3.646186271E0,-7.542978358E-1,4.039186743E0
4.799067792E0,1.507122173E0,-3.314104183E0,-5.083043039E-1,3.676013744E0
4.809116792E0,1.491144510E0,-2.776767284E0,-3.145685808E-1,3.167475634E0
4.819164792E0,1.469844419E0,-2.163990194E0,-1.216524180E-1,2.618796572E0
4.829213792E0,1.389988703E0,-1.686870260E0,-1.110620141E-1,2.188591931E0
4.839261792E0,1.301216275E0,-1.245576217E0,-1.282340439E-1,1.805842705E0
4.849310792E0,1.254161830E0,-8.930510938E-1,8.261421360E-2,1.541845407E0
4.859359792E0,1.170351934E0,-6.697769183E-1,4.076970383E-1,1.408737607E0
4.869407792E0,1.135505160E0,-5.688405275E-1,5.520626000E-1,1.384819349E0
4.879456792E0,1.114602095E0,-5.729739243E-1,6.285733438E-1,1.402048999E0
4.889504792E0,1.084382076E0,-5.798619443E-1,6.747488789E-1,1.402644079E0
4.899553792E0,1.107363973E0,-6.381540066E-1,7.013522483E-1,1.457871901E0
4.909601792E0,1.180477265E0,-8.644459301E-1,7.010402262E-1,1.622421258E0
4.919650792E0,1.353708192E0,-1.162043479E0,6.421400535E-1,1.896105156E0
4.929699792E0,1.557123322E0,-1.507143223E0,5.729873729E-1,2.241523648E0
4.939747792E0,1.613039369E0,-1.890585499E0,5.429408705E-1,2.543814915E0
4.949796792E0,1.671859873E0,-2.143597444E0,4.545789901E-1,2.756223412E0
4.959844792E0,1.782473552E0,-2.320831228E0,3.487805665E-1,2.947052330E0
4.969893792E0,1.812215268E0,-2.555137346E0,2.012553886E-1,3.139005378E0
4.979942792E0,1.779931036E0,-2.827533980E0,1.517937183E-3,3.341123345E0
4.989990792E0,1.762124510E0,-3.171703432E0,-1.394163322E-1,3.631008450E0
5.000039792E0,1.685687515E0,-3.577920029E0,-1.064566740E-1,3.956562542E0
5.010087792E0,1.652969858E0,-3.910976847E0,-7.429355264E-2,4.246594964E0
5.020136792E0,1.634567647E0,-4.075383595E0,-1.413670365E-1,4.393238837E0
5.030184792E0,1.516497453E0,-4.086394486E0,-1.617456794E-1,4.361713664E0
5.040233792E0,1.518512842E0,-3.837878466E0,-2.361398041E-1,4.134120750E0
5.050282792E0,1.512490794E0,-3.449790577E0,-4.247358978E-1,3.790657464E0
5.060330792E0,1.330753046E0,-3.083470117E0,-5.930186546E-1,3.410331767E0
5.070379792E0,1.243130765E0,-2.677476300E0,-6.991175886E-1,3.033647778E0
5.080427792E0,1.259502677E0,-2.299421064E0,-7.525553656E-1,2.727640702E0
5.090476792E0,1.344725406E0,-1.978451609E0,-7.448042965E-1,2.505452180E0
5.100524792E0,1.351384069E0,-1.693899783E0,-6.874700081E-1,2.273356635E0
5.110573792E0,1.264190828E0,-1.332994430E0,-6.400876808E-1,1.945447208E0
5.120622792E0,1.164460864E0,-9.490335059E-1,-5.731264635E-1,1.607826994E0
5.130670792E0,1.030199876E0,-4.743185323E-1,-4.255053183E-1,1.211340014E0
5.140719792E0,8.549857199E-1,1.030267704E-1,-3.423508950E-1,9.267250034E-1
5.150767792E0,5.887714930E-1,7.905634367E-1,-3.365446099E-1,1.041587583E0
5.160816792E0,3.710043713E-1,1.405207543E0,-4.309151622E-1,1.515895894E0
5.170864792E0,2.632590441E-1,1.958704977E0,-6.640834113E-1,2.084907022E0
5.180913792E0,3.434449822E-2,2.452985319E0,-6.250567552E-1,2.531602747E0
5.190962792E0,-9.887071565E-2,2.748714682E0,-6.192832875E-1,2.819347374E0
5.201010792E0,-2.244564825E-1,3.061407403E0,-6.093980578E-1,3.129530635E0
5.211059792E0,-5.177874644E-1,3.399886930E0,-4.981780958E-1,3.474984376E0
5.221107792E0,-7.209725073E-1,3.798259487E0,-4.806597646E-1,3.895845260E0
5.231156750E0,-7.806029972E-1,4.327152421E0,-3.846321845E-1,4.413788739E0
5.241204750E0,-8.419092992E-1,4.788016511E0,-3.378801139E-1,4.873199806E0
5.251253750E0,-7.968714130E-1,5.038566778E0,-4.141174272E-1,5.117973473E0
5.261302750E0,-7.223311079E-1,5.233093117E0,-4.585409904E-1,5.302573493E0
5.271350750E0,-6.344101806E-1,5.507376063E0,-4.424821242E-1,5.561425879E0
5.281399750E0,-4.839994749E-1,5.814177715E0,-4.579807540E-1,5.852235843E0
5.291447750E0,-4.512201302E-1,6.174752700E0,-4.655926593E-1,6.208699303E0
5.301496750E0,-4.130831279E-1,6.444305248E0,-3.934907162E-1,6.469508694E0
5.311544750E0,-3.860765930E-1,6.672705678E0,-3.827072811E-1,6.694812997E0
5.321593750E0,-4.769560651E-1,6.967536909E0,-3.726464888E-1,6.993777454E0
5.331642750E0,-7.083542159E-1,7.239987338E0,-2.116083225E-1,7.277634260E0
5.341690750E0,-8.529030879E-1,7.391353624E0,-1.669030698E-1,7.442271744E0
5.351739750E0,-9.363514799E-1,7.693847047E0,-2.768725316E-1,7.755558966E0
5.361787750E0,-1.104293015E0,8.196198301E0,-2.859286261E-1,8.275196966E0
5.371836750E0,-1.253921071E0,8.869875312E0,-3.478765138E-1,8.964821480E0
5.381884750E0,-1.292314328E0,9.725460371E0,-4.053056002E-1,9.819314049E0
5.391933750E0,-1.128712157E0,1.073996223E1,-3.891813183E-1,1.080612057E1
5.401982750E0,-9.566639762E-1,1.166185062E1,-3.980538102E-1,1.170779282E1
5.412030750E0,-9.543041861E-1,1.253580120E1,-2.749046512E-1,1.257507776E1
5.422079750E0,-8.036000964E-1,1.358244812E1,-2.697763507E-1,1.360887392E1
5.432127750E0,-7.350115259E-1,1.437630588E1,-5.096971107E-1,1.440410372E1
5.442176750E0,-8.122649391E-1,1.471994090E1,-8.022985062E-1,1.476414973E1
5.452225750E0,-1.068275775E0,1.488599597E1,-9.174420230E-1,1.495245094E1
5.462273750E0,-1.226175594E0,1.413350376E1,-1.301929343E0,1.424620845E1
5.472322750E0,-1.323058841E0,1.248651853E1,-1.704298325E0,1.267155327E1
5.482370750E0,-1.717582760E0,1.088376865E1,-1.593506745E0,1.113309365E1
5.492419750E0,-2.183559655E0,9.109042804E0,-1.494896815E0,9.485637040E0
5.502467750E0,-2.338863311E0,6.842350945E0,-1.919815438E0,7.481559955E0
5.512516750E0,-2.464286233E0,4.166039996E0,-2.085582394E0,5.270507547E0
5.522565750E0,-2.526884769E0,1.283859107E0,-1.747777051E0,3.329889708E0
5.532613750E0,-2.017850294E0,-1.676757501E0,-1.455377823E0,3.000226681E0
5.542662750E0,-1.142676770E0,-4.304293317E0,-1.012917699E0,4.567127480E0
5.552710750E0,-3.635184735E-1,-6.460604947E0,-7.895061140E-1,6.518809850E0
5.562759750E0,-1.200390981E-1,-8.133110352E0,-6.799811867E-1,8.162369007E0
5.572807750E0,2.108130281E-1,-9.008998699E0,-7.634744561E-1,9.043748832E0
5.582856750E0,8.523759614E-1,-9.551463606E0,-7.759760955E-1,9.620766118E0
5.592905750E0,1.249212747E0,-1.008161135E1,-1.013273356E0,1.020912057E1
5.602953750E0,1.664546907E0,-1.047341690E1,-1.377232125E0,1.069392100E1
5.613002750E0,2.283020208E0,-1.079589085E1,-1.464179052E0,1.113136383E1
5.623050750E0,2.430904478E0,-1.106884472E1,-9.985440736E-1,1.137654210E1
5.633099750E0,2.314894404E0,-1.095880948E1,-3.761793034E-1,1.120695106E1
5.643147750E0,2.336766207E0,-1.066264566E1,1.156545635E-1,1.091631187E1
5.653196750E0,2.378460655E0,-1.055179883E1,5.509481938E-1,1.083056220E1
5.663245750E0,2.247193295E0,-1.073274092E1,5.209202564E-1,1.097783964E1
5.673293750E0,2.199547843E0,-1.115892225E1,4.664207713E-1,1.138319396E1
5.683342750E0,2.198457922E0,-1.154951859E1,8.214601973E-1,1.178555869E1
5.693390750E0,2.215371724E0,-1.176534868E1,1.088025403E0,1.202144337E1
5.703439750E0,2.206555731E0,-1.180746734E1,9.905708834E-1,1.205265132E1
5.713487750E0,2.340811457E0,-1.182965869E1,7.498902047E-1,1.208232421E1
5.723536750E0,2.635635087E0,-1.184990526E1,3.344326687E-1,1.214407972E1
5.733585750E0,2.746442454E0,-1.183158243E1,2.202201748E-1,1.214815977E1
5.743633750E0,2.698034233E0,-1.178430535E1,1.924131378E-1,1.209075118E1
5.753682750E0,2.546186428E0,-1.177949192E1,2.576084411E-1,1.205428792E1
5.763730750E0,2.143064909E0,-1.179283994E1,5.732247698E-1,1.199968282E1
5.773779750E0,1.765459762E0,-1.168860982E1,8.669573092E-1,1.185293477E1
5.783827750E0,1.525375280E0,-1.161896246E1,1.080167842E0,1.176833977E1
5.793876750E0,1.222942157E0,-1.148044660E1,1.309890912E0,1.161946883E1
5.803925750E0,8.734402634E-1,-1.127254768E1,1.568067702E0,1.141455498E1
5.813973750E0,6.733491285E-1,-1.109188977E1,1.821510587E0,1.126060915E1
5.824022750E0,5.689449734E-1,-1.090149039E1,2.090632195E0,1.111471700E1
5.834070750E0,3.560366687E-1,-1.077854450E1,2.416232060E0,1.105178542E1
5.844119750E0,2.327617215E-1,-1.054625450E1,2.517069633E0,1.084496664E1
5.854168750E0,2.889376764E-1,-1.028265851E1,2.481285843E0,1.058174515E1
5.864216750E0,4.653208369E-1,-1.017206076E1,2.690888643E0,1.053224693E1
5.874265750E0,6.114809091E-1,-1.002552837E1,2.789963865E0,1.042444369E1
5.884313750E0,6.471758218E-1,-9.756089256E0,2.710902493E0,1.014638391E1
5.894362750E0,7.957863159E-1,-9.533937746E0,2.572847393E0,9.907007041E0
5.904410750E0,9.773530331E-1,-9.343489255E0,2.392239765E0,9.694267455E0
5.914459750E0,1.261745815E0,-8.872594267E0,2.223953390E0,9.233682917E0
5.924508750E0,1.441530447E0,-7.905593437E0,2.416520913E0,8.391423654E0
5.934556750E0,1.976247209E0,-5.983979688E0,2.650125364E0,6.836426726E0
5.944605750E0,2.861535247E0,-2.800966571E0,3.153216290E0,5.096721561E0
5.954653750E0,3.470319566E0,1.287016604E0,3.749507157E0,5.268617802E0
5.964702750E0,3.881368302E0,6.125742508E0,3.109912981E0,7.890582989E0
5.974750750E0,4.339851404E0,1.156858636E1,2.453651901E0,1.259709920E1
5.984799750E0,4.215691043E0,1.589520785E1,2.524818363E0,1.663743945E1
5.994848750E0,3.145212622E0,1.814774711E1,2.932452325E0,1.865026446E1
6.004896750E0,2.374615818E0,1.956875032E1,3.821633731E0,2.007933450E1
6.014945750E0,1.004003619E0,2.095285176E1,5.152865810E0,2.160051032E1
6.024993750E0,-9.434733886E-1,2.185895501E1,6.017208245E0,2.269164717E1
6.035042750E0,-1.728679606E0,2.242732776E1,5.603955109E0,2.318140799E1
6.045090750E0,-2.204897607E0,2.250814797E1,3.918653072E0,2.295286780E1
6.055139750E0,-2.411899858E0,2.199571203E1,1.290666436E0,2.216516249E1
6.065188750E0,-2.501651110E0,2.038276694E1,-1.681983157E0,2.060447801E1
6.075236750E0,-2.962042452E0,1.782060826E1,-3.967674959E0,1.849568109E1
6.085285750E0,-3.491554899E0,1.477033103E1,-5.251427647E0,1.606023433E1
6.095333750E0,-3.908068442E0,1.152956906E1,-6.393842608E0,1.375082488E1
6.105382750E0,-4.687806929E0,8.640180309E0,-7.201892728E0,1.218587331E1
6.115431750E0,-5.825376887E0,6.192623545E0,-7.234522530E0,1.116341876E1
6.125479750E0,-6.314987642E0,4.328285612E0,-6.626364155E0,1.012530628E1
6.135528750E0,-6.051772306E0,2.857930731E0,-5.716102366E0,8.801451151E0
6.145576750E0,-5.163331157E0,2.075089127E0,-5.384044837E0,7.742991820E0
6.155625750E0,-4.109519640E0,1.418014115E0,-5.041709071E0,6.657157506E0
6.165673750E0,-2.787863838E0,6.340896070E-1,-4.584829860E0,5.403232297E0
6.175722750E0,-1.143518330E0,-2.141039872E-1,-4.058528996E0,4.221982034E0
6.185771750E0,1.206143180E-1,-1.152353473E0,-3.288120911E0,3.486288208E0
6.195819750E0,2.562524718E-1,-2.005797867E0,-2.639512668E0,3.325043990E0
6.205868750E0,1.771354048E-1,-2.596111125E0,-2.176064694E0,3.392112539E0
6.215916750E0,9.904481649E-2,-3.176731453E0,-1.853216529E0,3.679109145E0
6.225965375E0,1.628931955E-2,-3.851486106E0,-1.492563776E0,4.130612205E0
6.236013375E0,-2.133172444E-1,-4.492112900E0,-1.215133274E0,4.658447319E0
6.246062375E0,-5.916711272E-1,-4.905727978E0,-1.045490345E0,5.050672409E0
6.256111375E0,-8.879764415E-1,-5.197968893E0,-9.671364856E-1,5.361225210E0
6.266159375E0,-1.011645345E0,-5.439944803E0,-9.495036221E-1,5.614087895E0
6.276208375E0,-1.186382807E0,-5.487721817E0,-9.294734001E-1,5.690915191E0
6.286256375E0,-1.383212657E0,-5.460683123E0,-1.033001862E0,5.727078685E0
6.296305375E0,-1.549854502E0,-5.315608440E0,-1.087240634E0,5.642679706E0
6.306354375E0,-1.790909037E0,-5.079766259E0,-1.042094282E0,5.486104348E0
6.316402375E0,-2.108307451E0,-4.831385894E0,-9.755038512E-1,5.360863524E0
6.326451375E0,-2.450708413E0,-4.492973025E0,-8.325791895E-1,5.185167928E0
6.336499375E0,-2.718117080E0,-3.984192758E0,-5.357535096E-1,4.852729564E0
6.346548375E0,-2.780435535E0,-3.416928055E0,-2.518933725E-1,4.412444829E0
6.356596375E0,-2.711278177E0,-2.725835697E0,-8.502790768E-2,3.845573994E0
6.366645375E0,-2.676500984E0,-1.838078088E0,1.242029735E-1,3.249248368E0
6.376694375E0,-2.586561160E0,-8.675110406E-1,3.659748157E-1,2.752600880E0
6.386742375E0,-2.442094734E0,-1.752176642E-2,5.328053069E-1,2.499603007E0
6.396791375E0,-2.452894687E0,6.650190389E-1,7.077037132E-1,2.638140863E0
6.406839375E0,-2.605670445E0,1.224977061E0,9.081486046E-1,3.019076209E0
6.416888375E0,-2.703665102E0,1.562901102E0,1.153894215E0,3.329254676E0
6.426936375E0,-2.634075342E0,1.498387603E0,1.328581975E0,3.308874186E0
6.436985375E0,-2.687796051E0,1.147090979E0,1.620175603E0,3.341412023E0
6.447034375E0,-2.713593089E0,8.037717122E-1,1.943041456E0,3.432935554E0
6.457082375E0,-2.501319281E0,4.032584900E-1,2.184261321E0,3.345177584E0
6.467131375E0,-2.193461038E0,-7.998464763E-2,2.312341218E0,3.188195536E0
6.477179375E0,-1.894632942E0,-2.288775623E-1,2.189799657E0,2.904693007E0
6.487228375E0,-1.776386162E0,-1.498688149E-1,2.052948060E0,2.718934386E0
6.497277375E0,-1.655424519E0,-2.781479555E-1,1.789478662E0,2.453575046E0
6.507325375E0,-1.373323554E0,-4.556425256E-1,1.517770099E0,2.096962987E0
6.517374375E0,-1.025503977E0,-6.551998097E-1,1.223524174E0,1.725675694E0
6.527422375E0,-7.742408612E-1,-7.063208467E-1,9.331510064E-1,1.403249390E0
6.537471375E0,-6.699728731E-1,-7.964615232E-1,8.851726285E-1,1.366288839E0
6.547519375E0,-4.304207801E-1,-1.033000692E0,8.322378583E-1,1.394622648E0
6.557568375E0,-1.504238619E-1,-1.291019608E0,7.623191924E-1,1.506814361E0
6.567617375E0,-2.571371555E-2,-1.453164652E0,7.562579687E-1,1.638375664E0
6.577665375E0,-4.855681367E-2,-1.523126587E0,8.138846178E-1,1.727622799E0
6.587714375E0,5.245771050E-2,-1.691133465E0,8.222648473E-1,1.881170829E0
6.597762375E0,8.955566257E-2,-2.031579410E0,9.524051566E-1,2.245531273E0
6.607811375E0,1.363934679E-1,-2.418264552E0,1.040355174E0,2.636085262E0
6.617859375E0,1.189072964E-1,-2.839400319E0,1.070375948E0,3.036780827E0
6.627908375E0,9.205008477E-2,-3.290763853E0,1.059857027E0,3.458452959E0
6.637957375E0,1.782606284E-1,-3.774297012E0,1.002257275E0,3.909170555E0
6.648005375E0,2.806539260E-2,-4.247213382E0,1.166443509E0,4.404565772E0
6.658054375E0,-1.819878629E-1,-4.546856287E0,1.169762388E0,4.698442904E0
6.668102375E0,-2.475366852E-1,-4.788756768E0,1.008197827E0,4.899992720E0
6.678151375E0,-3.542355801E-1,-5.024840439E0,9.675996581E-1,5.129400879E0
6.688200375E0,-5.250739722E-1,-5.212964662E0,9.726665629E-1,5.328863246E0
6.698248375E0,-6.072731797E-1,-5.241226010E0,8.035769268E-1,5.337130941E0
6.708297375E0,-7.026375394E-1,-5.153708394E0,5.110350267E-1,5.226429615E0
6.718345375E0,-8.332676992E-1,-5.139928261E0,1.847766924E-1,5.210310932E0
6.728394375E0,-1.222182823E0,-5.257064363E0,5.384225808E-2,5.397532358E0
6.738442375E0,-1.539512971E0,-5.247950892E0,1.279896303E-1,5.470600525E0
6.748491375E0,-1.567437080E0,-5.037761616E0,2.018202297E-1,5.279832621E0
6.758540375E0,-1.689578398E0,-4.630480826E0,2.717738327E-1,4.936586763E0
6.768588375E0,-1.747478405E0,-3.960733729E0,1.992438734E-1,4.333680949E0
6.778637375E0,-1.707341362E0,-3.068978378E0,3.204632320E-2,3.512074854E0
6.788685375E0,-1.900141896E0,-2.107847568E0,-1.296807182E-1,2.840841017E0
6.798734375E0,-2.051346215E0,-1.030860026E0,-3.861594772E-1,2.328049147E0
6.808782375E0,-2.092162412E0,1.851813197E-2,-6.332990634E-1,2.185990435E0
6.818831375E0,-2.229357972E0,1.080979435E0,-8.393678069E-1,2.615930393E0
6.828880375E0,-2.548801595E0,2.592347272E0,-1.015433317E0,3.774620348E0
6.838928375E0,-2.824389640E0,4.879088064E0,-1.373081771E0,5.802415938E0
6.848977375E0,-3.392815600E0,7.420079241E0,-1.577893363E0,8.310145673E0
6.859025375E0,-3.993889488E0,1.002526875E1,-1.505793686E0,1.089608101E1
6.869074375E0,-4.187239661E0,1.242328440E1,-1.213381375E0,1.316598897E1
6.879123375E0,-4.286983219E0,1.452807855E1,-1.164936024E0,1.519211530E1
6.889171375E0,-4.258145921E0,1.661385522E1,-1.076843115E0,1.718463217E1
6.899220375E0,-3.971206092E0,1.834968538E1,-8.937868197E-1,1.879575182E1
6.909268375E0,-3.749373255E0,1.939750175E1,-7.646301582E-2,1.975668800E1
6.919317375E0,-3.101616367E0,2.085741584E1,1.664034252E-1,2.108742540E1
6.929366375E0,-1.464776638E0,2.130339234E1,-2.878503866E-1,2.135563049E1
6.939414375E0,-2.645604882E-1,2.094710979E1,-6.418034001E-1,2.095860951E1
6.949463375E0,3.217833871E-1,2.065489870E1,-2.093337117E0,2.076319930E1
6.959511375E0,9.876404782E-1,2.014804100E1,-3.153277102E0,2.041720221E1
6.969560375E0,9.970239437E-1,1.971573061E1,-3.198512331E0,1.999836422E1
6.979608375E0,3.671878937E-1,1.963126174E1,-3.316042535E0,1.991274472E1
6.989657375E0,-2.459894389E-2,1.940844306E1,-3.349823947E0,1.969542047E1
6.999706375E0,-3.989034837E-1,1.814365172E1,-2.764725236E0,1.835742159E1
7.009754375E0,-1.027838478E0,1.579328153E1,-2.436128966E0,1.601308583E1
7.019803375E0,-1.605843931E0,1.215259340E1,-2.207981136E0,1.245549845E1
7.029851375E0,-1.998037735E0,8.102239392E0,-1.466791880E0,8.472893035E0
7.039900375E0,-2.010912281E0,4.105804319E0,-6.016647497E-1,4.611225192E0
7.049948375E0,-1.798632040E0,2.884817398E-1,2.474718542E-1,1.838352863E0
7.059997375E0,-1.425367573E0,-2.837812216E0,1.086500669E0,3.356387134E0
7.070046375E0,-1.182613399E0,-5.272510952E0,1.346129615E0,5.568663317E0
7.080094375E0,-5.176722743E-1,-7.068709527E0,9.190041067E-1,7.146971912E0
7.090143375E0,5.951348716E-1,-8.534467912E0,6.596748300E-1,8.580588496E0
7.100191375E0,1.913967053E0,-9.842924502E0,1.442559265E-1,1.002832201E1
7.110240375E0,2.990661356E0,-1.099692397E1,-4.156070785E-1,1.140390816E1
7.120288375E0,3.375005566E0,-1.183786350E1,-6.043481831E-1,1.232440310E1
7.130337375E0,3.462900034E0,-1.264438867E1,-8.058047160E-1,1.313474639E1
7.140386375E0,3.425043114E0,-1.351564368E1,-1.171631159E0,1.399200715E1
7.150434375E0,2.953502593E0,-1.426730326E1,-1.555669266E0,1.465261842E1
7.160483375E0,2.325373638E0,-1.487075579E1,-2.056907794E0,1.519136630E1
7.170531375E0,1.743067850E0,-1.539457042E1,-2.316993116E0,1.566523351E1
7.180580375E0,1.318420391E0,-1.547829904E1,-2.163562177E0,1.568429070E1
7.190629375E0,1.115323641E0,-1.504027476E1,-1.974414107E0,1.521026373E1
7.200677375E0,1.022135031E0,-1.421841235E1,-1.763492174E0,1.436377090E1
7.210726375E0,1.194786133E0,-1.323769863E1,-1.747435720E0,1.340588343E1
7.220774375E0,1.461060586E0,-1.236405210E1,-1.535498711E0,1.254441066E1
7.230822875E0,1.511303079E0,-1.175363787E1,-9.687900782E-1,1.188993669E1
7.240870875E0,1.619052207E0,-1.130307716E1,-3.609743500E-1,1.142414924E1
7.250919875E0,1.547373236E0,-1.084947356E1,5.091544890E-1,1.097108375E1
7.260968875E0,1.370018415E0,-1.040285387E1,1.299052513E0,1.057278850E1
7.271016875E0,1.133653566E0,-9.973324428E0,1.858541003E0,1.020816072E1
7.281065875E0,8.935277881E-1,-9.638789433E0,2.341370158E0,9.959250366E0
7.291113875E0,5.520716632E-1,-9.436099210E0,2.783023220E0,9.853424261E0
7.301162875E0,1.772739473E-1,-9.213944777E0,3.046701071E0,9.706214083E0
7.311211875E0,-1.656755565E-1,-9.002150440E0,3.105471436E0,9.524185727E0
7.321259875E0,-4.068788301E-1,-8.895686676E0,3.057350020E0,9.415210086E0
7.331308875E0,-5.776393080E-1,-8.950919475E0,2.860773647E0,9.414704057E0
7.341356875E0,-6.124410950E-1,-9.018882832E0,2.501434178E0,9.379365894E0
7.351405875E0,-6.559302731E-1,-9.176366476E0,2.252361503E0,9.471487664E0
7.361453875E0,-6.926687676E-1,-9.466809372E0,2.043025335E0,9.709491347E0
7.371502875E0,-4.204833640E-1,-9.740745578E0,1.671962199E0,9.892137700E0
7.381551875E0,1.025725148E-1,-9.996211599E0,1.317346112E0,1.008316261E1
7.391599875E0,5.603001574E-1,-1.029810217E1,1.029564795E0,1.036459591E1
7.401648875E0,9.434954618E-1,-1.043479020E1,7.564238834E-1,1.050462789E1
7.411696875E0,1.189528170E0,-1.034704571E1,4.379588643E-1,1.042440119E1
7.421745875E0,1.191814797E0,-1.029334020E1,2.546801555E-1,1.036523695E1
7.431794875E0,1.298606370E0,-1.020127228E1,8.158400729E-2,1.028391903E1
7.441842875E0,1.589292510E0,-1.000289263E1,3.965488100E-1,1.013612167E1
7.451891875E0,1.988712595E0,-9.417481676E0,6.377429473E-1,9.646276741E0
7.461939875E0,2.322291571E0,-8.241454580E0,6.651207805E-1,8.588189413E0
7.471988875E0,2.675956609E0,-6.383007132E0,8.880388606E-1,6.977975125E0
7.482036875E0,2.961766756E0,-3.924911932E0,9.884074136E-1,5.015370894E0
7.492085875E0,3.441830177E0,-8.375306118E-1,1.059173999E0,3.697228970E0
7.502134875E0,3.643524619E0,2.781235142E0,8.566743958E-1,4.663092491E0
7.512182875E0,3.363676878E0,6.668654142E0,9.099659193E-1,7.524181562E0
7.522231875E0,2.975598929E0,1.015905539E1,1.559706184E0,1.070015321E1
7.532279875E0,3.053535297E0,1.299250850E1,2.430031635E0,1.356592823E1
7.542328875E0,3.360772858E0,1.551100018E1,2.477997369E0,1.606319992E1
7.552377875E0,3.183066326E0,1.794219877E1,2.261804756E0,1.836219401E1
7.562425875E0,2.336943377E0,2.067460849E1,2.506265148E0,2.095667210E1
7.572474875E0,2.011757203E0,2.262233006E1,2.236859365E0,2.282149259E1
7.582522875E0,2.075071000E0,2.249259438E1,1.512052838E0,2.263866218E1
7.592571875E0,2.435177770E0,2.068682917E1,5.567183724E-1,2.083710458E1
7.602619875E0,2.376549493E0,1.828493799E1,-6.120081818E-1,1.844888883E1
7.612668875E0,1.806057273E0,1.670957881E1,-1.819612581E0,1.690511334E1
7.622717875E0,8.307254760E-1,1.452913806E1,-2.636560408E0,1.478977378E1
7.632765875E0,8.571331099E-2,1.233740751E1,-3.742813556E0,1.289292923E1
7.642814875E0,-5.216839027E-1,1.065718670E1,-4.420507897E0,1.154940140E1
7.652862875E0,-7.938973729E-1,9.084399129E0,-4.576753685E0,1.020310026E1
7.662911875E0,-1.017369623E0,7.542501225E0,-4.702022972E0,8.946138033E0
7.672960875E0,-1.045171233E0,6.151837462E0,-4.563474659E0,7.730639561E0
7.683008875E0,-9.045869194E-1,5.051447024E0,-4.367368401E0,6.738642392E0
7.693057875E0,-9.310696900E-1,4.124536459E0,-4.021110324E0,5.835068123E0
7.703105875E0,-7.621341281E-1,3.409742412E0,-3.511844738E0,4.953811180E0
7.713154875E0,-5.038586658E-1,2.775637602E0,-3.023036220E0,4.134825951E0
7.723202875E0,-4.860527247E-1,2.360926171E0,-2.475454999E0,3.455155147E0
7.733251875E0,-4.057597826E-1,2.008720890E0,-1.951083570E0,2.829545496E0
7.743300875E0,-5.793622997E-1,1.425657011E0,-1.407152327E0,2.085242494E0
7.753348875E0,-7.244410756E-1,8.400209409E-1,-8.897088253E-1,1.421981662E0
7.763397875E0,-9.065835243E-1,3.425643915E-1,-4.116885670E-1,1.052963212E0
7.773445875E0,-1.394631684E0,-2.090508235E-1,3.577779695E-2,1.410666450E0
7.783494875E0,-1.860761484E0,-7.759108990E-1,1.981482513E-1,2.025767448E0
7.793543875E0,-2.327154700E0,-1.281565245E0,3.298178999E-1,2.677095127E0
7.803591875E0,-2.885947372E0,-1.676997237E0,3.271520081E-1,3.353809834E0
7.813640875E0,-3.589403668E0,-2.084171022E0,1.653569198E-1,4.153905446E0
7.823688875E0,-4.223723655E0,-2.381124793E0,1.732740498E-1,4.851764698E0
7.833737875E0,-4.598871656E0,-2.629232678E0,6.979002714E-2,5.297863308E0
7.843785875E0,-4.953008564E0,-2.973269983E0,-1.289087395E-1,5.778342815E0
7.853834875E0,-5.402798027E0,-3.251814380E0,-2.484223191E-1,6.310803192E0
7.863883875E0,-5.451911715E0,-3.442110844E0,-3.239205444E-1,6.455725592E0
7.873931875E0,-5.305740094E0,-3.607594063E0,-4.670554134E-1,6.433020568E0
7.883980875E0,-5.117368534E0,-3.865303661E0,-6.745416681E-1,6.448491263E0
7.894028875E0,-5.090945551E0,-4.091644701E0,-5.785304602E-1,6.556979522E0
7.904077875E0,-4.904311198E0,-4.212744046E0,-3.826754869E-1,6.476567088E0
7.914126875E0,-4.591903821E0,-4.349570062E0,-3.523649096E-1,6.334706106E0
7.924174875E0,-4.104470569E0,-4.339310537E0,-4.792214227E-1,5.992157187E0
7.934223875E0,-3.652003374E0,-4.051339844E0,-4.342819890E-1,5.471661906E0
7.944271875E0,-3.496065441E0,-3.625511686E0,-1.491836675E-1,5.038756228E0
7.954320875E0,-3.217995839E0,-3.100696599E0,-1.850690532E-1,4.472590656E0
7.964368875E0,-3.058790774E0,-2.669969645E0,-2.752952452E-1,4.069487237E0
7.974417875E0,-3.013031342E0,-2.194639544E0,-1.124244153E-1,3.729268004E0
7.984466875E0,-2.877689057E0,-1.904825808E0,8.011971831E-2,3.451937838E0
7.994514875E0,-2.939223693E0,-1.899760365E0,3.480683756E-1,3.516998288E0
8.004563875E0,-2.627363323E0,-1.979422247E0,6.189944351E-1,3.347283163E0
8.014611875E0,-2.250966649E0,-2.066114236E0,8.036916053E-1,3.159366881E0
8.024660875E0,-1.928725718E0,-1.926096810E0,8.641844134E-1,2.859483610E0
8.034709875E0,-1.591053838E0,-1.460601141E0,9.003295617E-1,2.339957548E0
8.044757875E0,-1.598363003E0,-8.973552293E-1,8.513405657E-1,2.021086702E0
8.054806875E0,-1.622190700E0,-3.143936759E-1,7.092846541E-1,1.798174288E0
8.064854875E0,-1.507593167E0,1.938012850E-1,6.225729311E-1,1.642556893E0
8.074903875E0,-1.478998820E0,5.387162572E-1,7.319377908E-1,1.735910610E0
8.084951875E0,-1.442242053E0,6.636361724E-1,9.781733975E-1,1.864751540E0
8.095000875E0,-1.195249598E0,6.735010099E-1,1.229490965E0,1.842246793E0
8.105049875E0,-8.260164209E-1,5.255038887E-1,1.318549469E0,1.642263732E0
8.115097875E0,-4.461209927E-1,3.525058275E-1,1.489108071E0,1.593965855E0
8.125146875E0,-6.547651788E-2,2.600280190E-1,1.772169150E0,1.792340716E0
8.135194875E0,2.283002959E-1,1.084886545E-1,1.774947747E0,1.792855353E0
8.145243875E0,4.228008348E-1,-7.687042058E-2,1.583487979E0,1.640763172E0
8.155292875E0,6.107803031E-1,-3.134505200E-1,1.334591889E0,1.500812886E0
8.165340875E0,7.520297740E-1,-8.139791965E-1,1.271952715E0,1.687001666E0
8.175389875E0,8.806847443E-1,-1.326002330E0,1.337248864E0,2.078971458E0
8.185437875E0,9.616260695E-1,-1.781380561E0,1.415860293E0,2.470364704E0
8.195486875E0,8.929873592E-1,-2.220149776E0,1.489967612E0,2.818952809E0
8.205535875E0,8.010064177E-1,-2.702151550E0,1.587743290E0,3.234835859E0
8.215583875E0,7.786887650E-1,-3.339167104E0,1.760603357E0,3.854363413E0
8.225632875E0,7.486196778E-1,-3.854876322E0,1.847871881E0,4.339946240E0
8.235681625E0,5.204520406E-1,-4.205252593E0,1.902540132E0,4.644855073E0
8.245730625E0,1.505831254E-1,-4.510522274E0,2.023271102E0,4.945817669E0
8.255778625E0,-1.016386596E-1,-4.695717627E0,2.040989335E0,5.121106512E0
8.265827625E0,-3.051719956E-1,-4.863360808E0,2.017830560E0,5.274186995E0
8.275876625E0,-4.930069279E-1,-5.127877734E0,1.945859521E0,5.506773571E0
8.285924625E0,-6.380329692E-1,-5.479922801E0,1.925092989E0,5.843168917E0
8.295973625E0,-6.576971555E-1,-5.780836891E0,1.879125541E0,6.114061948E0
8.306021625E0,-5.688713716E-1,-5.974540527E0,1.826574275E0,6.273366141E0
8.316070625E0,-6.681247144E-1,-5.913212591E0,1.645647536E0,6.174190602E0
8.326119625E0,-8.098859263E-1,-5.513161883E0,1.286298712E0,5.718866456E0
8.336167625E0,-9.583718017E-1,-4.744886863E0,8.369426742E-1,4.912524900E0
8.346216625E0,-1.321361979E0,-3.752914329E0,4.702608570E-1,4.006433416E0
8.356264625E0,-1.832365943E0,-2.614692407E0,6.592267871E-2,3.193513289E0
8.366313625E0,-2.467864144E0,-1.372370750E0,-3.136434782E-1,2.841148912E0
8.376362625E0,-3.176208712E0,1.522264123E-2,-6.322312157E-1,3.238556750E0
8.386410625E0,-3.674852831E0,1.573548297E0,-9.053920810E-1,4.098820854E0
8.396459625E0,-4.145584681E0,3.675132912E0,-1.194201411E0,5.667326643E0
8.406507625E0,-4.585999011E0,6.405360453E0,-1.385339728E0,7.998699621E0
8.416556625E0,-4.972717774E0,9.361866469E0,-1.337355430E0,1.068461442E1
8.426604625E0,-5.236585659E0,1.235906092E1,-1.608043946E0,1.351865457E1
8.436653625E0,-5.095746115E0,1.538974764E1,-2.122768493E0,1.634983507E1
8.446702625E0,-5.868579040E0,1.846467790E1,-1.942486263E0,1.947197480E1
8.456750625E0,-6.487177618E0,2.093675554E1,-1.762030370E0,2.198945104E1
8.466799625E0,-6.068171407E0,2.191232371E1,-1.872370838E0,2.281399586E1
8.476847625E0,-6.153774059E0,2.183042995E1,-9.493467705E-1,2.270105430E1
8.486896625E0,-6.127845751E0,2.155768541E1,-7.624713662E-1,2.242466625E1
8.496945625E0,-5.527424412E0,2.125522765E1,-1.167686627E0,2.199319475E1
8.506993625E0,-4.385898812E0,2.096321302E1,-1.548421057E0,2.147300669E1
8.517042625E0,-2.729068623E0,2.079108503E1,-2.265692277E0,2.109147680E1
8.527090625E0,-1.791217040E0,2.016237837E1,-2.957286619E0,2.045667383E1
8.537139625E0,-1.210907272E0,1.881778306E1,-3.316706779E0,1.914616932E1
8.547187625E0,-8.398774648E-1,1.682901521E1,-3.055062005E0,1.712467667E1
8.557236625E0,-1.239188573E0,1.401655477E1,-2.132395056E0,1.423188338E1
8.567285625E0,-1.581665548E0,1.061540367E1,-1.524247499E0,1.084028558E1
8.577333625E0,-1.967258869E0,6.714489296E0,-4.758461174E-1,7.012909774E0
8.587382625E0,-2.077748879E0,2.689601671E0,4.333327666E-1,3.426189551E0
8.597430625E0,-1.413528424E0,-6.652102429E-1,1.200531022E0,1.970239073E0
8.607479625E0,-3.202693968E-1,-3.291000665E0,1.255404217E0,3.536848542E0
8.617528625E0,1.501141787E0,-5.474222351E0,3.609486222E-1,5.687778206E0
8.627576625E0,3.044494332E0,-6.875563130E0,-3.901177499E-1,7.529575417E0
8.637625625E0,3.880083668E0,-7.663046839E0,-1.118459795E0,8.661887118E0
8.647673625E0,4.113465925E0,-8.360123237E0,-1.587803224E0,9.451633803E0
8.657722625E0,4.782000603E0,-9.408040761E0,-1.397430454E0,1.064573025E1
8.667770625E0,5.580865624E0,-1.057582621E1,-7.839537442E-1,1.198368660E1
8.677819625E0,5.724649826E0,-1.122425669E1,-1.474097684E-1,1.260068584E1
8.687868625E0,5.900784919E0,-1.159528358E1,-7.785567641E-2,1.301060819E1
8.697916625E0,6.036026924E0,-1.196563686E1,1.112725139E-2,1.340187339E1
8.707965625E0,5.923300792E0,-1.210350953E1,-5.367963240E-2,1.347528540E1
8.718013625E0,5.884670577E0,-1.253338396E1,-4.399994695E-1,1.385311015E1
8.728062625E0,5.458913171E0,-1.287197868E1,-6.947823898E-1,1.399893891E1
8.738111625E0,4.700721674E0,-1.260588826E1,-5.898228224E-1,1.346674029E1
8.748159625E0,4.075467795E0,-1.209948197E1,-6.114575203E-1,1.278204921E1
8.758208625E0,3.559292554E0,-1.170489782E1,-6.747686863E-1,1.225269396E1
8.768256625E0,2.992795590E0,-1.122308842E1,-2.236605303E-1,1.161742498E1
8.778305625E0,2.655162156E0,-1.061497799E1,3.163039613E-1,1.094658358E1
8.788354625E0,2.480977694E0,-1.021119384E1,7.988290608E-1,1.053858898E1
8.798402625E0,2.267137124E0,-1.001512617E1,1.215433674E0,1.034020996E1
8.808451625E0,2.205572814E0,-1.008954602E1,1.476212622E0,1.043277020E1
8.818499625E0,2.288998694E0,-1.038584081E1,1.712402712E0,1.077207164E1
8.828548625E0,2.352012822E0,-1.054755609E1,1.992955335E0,1.098884774E1
8.838596625E0,2.257216007E0,-1.063093271E1,2.107436070E0,1.107036770E1
8.848645625E0,2.087008091E0,-1.075382481E1,1.995708497E0,1.113477450E1
8.858694625E0,1.714519843E0,-1.085282752E1,1.996352860E0,1.116731249E1
8.868742625E0,1.235563153E0,-1.077479994E1,1.917186238E0,1.101356133E1
8.878791625E0,9.200962935E-1,-1.062378273E1,1.834202553E0,1.082014952E1
8.888839625E0,5.826793155E-1,-1.065389355E1,1.852857510E0,1.082949879E1
8.898888625E0,2.644949628E-1,-1.068739576E1,2.052171842E0,1.088585297E1
8.908937625E0,8.797282130E-2,-1.057695121E1,2.308894869E0,1.082638590E1
8.918985625E0,-2.703005170E-2,-1.047559791E1,2.494695847E0,1.076858346E1
8.929034625E0,-9.839301640E-2,-1.037795877E1,2.592211032E0,1.069725513E1
8.939082625E0,-8.680937156E-2,-1.024723374E1,2.714115538E0,1.060093195E1
8.949131625E0,2.286738599E-1,-1.011568308E1,2.760157099E0,1.048798375E1
8.959180625E0,3.673113796E-1,-9.815131516E0,2.910549824E0,1.024417027E1
8.969228625E0,4.987756447E-1,-9.281383638E0,2.882423548E0,9.731455436E0
8.979277625E0,7.283314475E-1,-8.912413806E0,2.735666328E0,9.351227556E0
8.989325625E0,7.988425094E-1,-8.506106578E0,2.633347071E0,8.940163044E0
8.999374625E0,7.248616366E-1,-7.597348108E0,2.480972432E0,8.024982672E0
9.009422625E0,6.890376467E-1,-6.235378971E0,1.983259774E0,6.579364948E0
9.019471625E0,3.461263691E-1,-4.038001176E0,1.304547434E0,4.257593330E0
9.029520625E0,-9.732441947E-2,-1.160197513E0,7.544615579E-1,1.387350912E0
9.039568625E0,-7.235781728E-1,2.052213650E0,5.622147551E-1,2.247494531E0
9.049617625E0,-1.057754733E0,5.515594325E0,3.712958550E-1,5.628364456E0
9.059665625E0,-1.242359371E0,8.512681187E0,2.190179873E-1,8.605647371E0
9.069714625E0,-1.088212514E0,1.081133100E1,1.069543451E-2,1.086596516E1
9.079763625E0,-8.013579816E-2,1.283525699E1,7.038579994E-1,1.285479132E1
9.089811625E0,1.093614026E0,1.453590563E1,1.431061592E0,1.464706392E1
9.099860625E0,2.376268972E0,1.616843304E1,1.202216774E0,1.638628104E1
9.109908625E0,3.882278421E0,1.736198307E1,5.317434525E-1,1.779868796E1
9.119957625E0,5.558556157E0,1.686700925E1,-6.659861684E-2,1.775944771E1
9.130006625E0,6.959470675E0,1.572212559E1,-6.783080059E-1,1.720696275E1
9.140054625E0,6.968497022E0,1.465740726E1,-1.523635587E0,1.630095101E1
9.150103625E0,6.440380012E0,1.355482705E1,-2.834347156E0,1.527237227E1
9.160151625E0,5.770115436E0,1.198403688E1,-3.907168556E0,1.386280412E1
9.170200625E0,4.586597473E0,1.051127762E1,-4.700950008E0,1.239446508E1
9.180249625E0,3.412553753E0,9.150388466E0,-4.871403068E0,1.091355579E1
9.190297625E0,2.765537999E0,8.034943787E0,-4.622716601E0,9.673573841E0
9.200346625E0,2.647913362E0,7.649884756E0,-4.499078396E0,9.261419350E0
9.210394625E0,2.318773009E0,7.770472469E0,-4.257685161E0,9.158866392E0
9.220443625E0,2.252176292E0,8.343996032E0,-4.302122245E0,9.654160950E0
9.230491125E0,2.326105563E0,8.959120195E0,-4.395677111E0,1.024688143E1
9.240540125E0,2.304263728E0,9.195251813E0,-4.074094284E0,1.031797129E1
9.250589125E0,2.244130085E0,9.061624224E0,-3.708142784E0,1.004487314E1
9.260637125E0,2.276883848E0,8.460735692E0,-3.323626666E0,9.370952072E0
9.270686125E0,2.470854118E0,7.780346078E0,-2.774533940E0,8.621887482E0
9.280734125E0,2.340896095E0,7.176017044E0,-2.217375126E0,7.867132108E0
9.290783125E0,1.896697155E0,6.849053024E0,-1.856673257E0,7.345353838E0
9.300832125E0,1.399120153E0,6.818074476E0,-1.694187758E0,7.163375525E0
9.310880125E0,8.305484515E-1,6.703081378E0,-1.510338142E0,6.921143836E0
9.320929125E0,1.758904595E-1,6.325058302E0,-1.371711184E0,6.474480021E0
9.330977125E0,-3.933894132E-1,5.826194327E0,-1.317590818E0,5.986262702E0
9.341026125E0,-8.377639887E-1,5.190001477E0,-1.110356139E0,5.373160577E0
9.351074125E0,-1.242956665E0,4.386856586E0,-8.112488392E-1,4.631152843E0
9.361123125E0,-1.519098440E0,3.330565850E0,-6.838479504E-1,3.723973277E0
9.371172125E0,-1.739519467E0,2.171128474E0,-5.495936863E-1,2.835803246E0
9.381220125E0,-2.018617887E0,1.124642349E0,-4.309073415E-1,2.350599865E0
9.391269125E0,-2.353060789E0,3.019899774E-1,-3.919751179E-1,2.404524384E0
9.401317125E0,-2.588096346E0,-2.731439084E-1,-4.502987552E-1,2.641139766E0
9.411366125E0,-2.725622858E0,-8.661831379E-1,-4.361756828E-1,2.893016146E0
9.421415125E0,-2.808178527E0,-1.365196216E0,-4.585279803E-1,3.155927004E0
9.431463125E0,-3.042589309E0,-1.661200984E0,-2.907362799E-1,3.478716142E0
9.441512125E0,-3.342533346E0,-1.871031241E0,-2.136395721E-1,3.836525634E0
9.451560125E0,-3.619356322E0,-1.851077617E0,-1.015075175E-1,4.066513532E0
9.461609125E0,-3.883285604E0,-1.782861076E0,1.578175199E-1,4.275910086E0
9.471658125E0,-4.058246575E0,-1.740291592E0,3.421990867E-1,4.428891543E0
9.481706125E0,-4.058103318E0,-1.630764472E0,5.410440338E-1,4.406849663E0
9.491755125E0,-4.008700778E0,-1.670362986E0,7.440440123E-1,4.406063541E0
9.501803125E0,-3.791185233E0,-1.781155443E0,8.308029516E-1,4.270343514E0
9.511852125E0,-3.610700104E0,-1.891066141E0,1.073819081E0,4.215017652E0
9.521901125E0,-3.552761214E0,-2.098459278E0,1.131696137E0,4.278595533E0
9.531949125E0,-3.424725317E0,-2.230152608E0,1.046318457E0,4.218661692E0
9.541998125E0,-3.126584562E0,-2.462772973E0,9.575692713E-1,4.093619505E0
9.552046125E0,-2.826017212E0,-2.862955828E0,9.787699597E-1,4.140154585E0
9.562095125E0,-2.528258865E0,-3.185170739E0,9.704391392E-1,4.180808253E0
9.572143125E0,-2.293951724E0,-3.487430273E0,8.649131227E-1,4.262916740E0
9.582192125E0,-1.985411404E0,-3.844550139E0,7.793193872E-1,4.396562625E0
9.592241125E0,-1.780228513E0,-4.104057171E0,8.450828755E-1,4.552654598E0
9.602289125E0,-1.627420888E0,-4.276062959E0,8.409244819E-1,4.651920804E0
9.612338125E0,-1.402182194E0,-4.537736385E0,7.712607546E-1,4.811653516E0
9.622386125E0,-1.157382079E0,-4.842179269E0,7.428736921E-1,5.033695926E0
9.632435125E0,-8.369533454E-1,-5.138272914E0,6.579370375E-1,5.247401318E0
9.642484125E0,-6.119171845E-1,-5.342014466E0,6.442851046E-1,5.415409910E0
9.652532125E0,-3.600945633E-1,-5.583994469E0,6.622752330E-1,5.634649129E0
9.662581125E0,-1.973411894E-1,-5.882317657E0,6.936689338E-1,5.926363232E0
9.672629125E0,-1.295732025E-1,-6.126566965E0,7.674893005E-1,6.175811835E0
9.682678125E0,-4.305509537E-2,-6.277998741E0,8.403478003E-1,6.334138170E0
9.692727125E0,2.190425456E-2,-6.467032791E0,8.903938267E-1,6.528077365E0
9.702775125E0,-5.979238473E-2,-6.563210717E0,8.905248043E-1,6.623620194E0
9.712824125E0,-2.245009945E-1,-6.561029121E0,7.848156238E-1,6.611613978E0
9.722872125E0,-4.139727817E-1,-6.568732243E0,8.928464413E-1,6.642047238E0
9.732921125E0,-6.670939965E-1,-6.567735878E0,1.005308279E0,6.677635337E0
9.742970125E0,-8.930665158E-1,-6.466228799E0,1.058544985E0,6.612881381E0
9.753018125E0,-1.027277949E0,-6.330800267E0,1.071053495E0,6.502421672E0
9.763067125E0,-1.371157160E0,-6.105537454E0,1.032460409E0,6.342210502E0
9.773115125E0,-1.716653492E0,-5.661885813E0,9.147935267E-1,5.986710062E0
9.783164125E0,-1.854688565E0,-5.456968387E0,9.149198265E-1,5.835704922E0
9.793213125E0,-1.726798557E0,-5.483090238E0,1.128677512E0,5.858329518E0
9.803261125E0,-1.461264361E0,-5.324846456E0,1.304902067E0,5.673804078E0
9.813310125E0,-1.272177832E0,-4.769339919E0,1.219728162E0,5.084562566E0
9.823358125E0,-1.046852307E0,-3.779916186E0,9.647055057E-1,4.039099261E0
9.833407125E0,-1.190885090E0,-2.434173072E0,7.467446950E-1,2.810877706E0
9.843455125E0,-1.648658560E0,-5.121061635E-1,4.039364746E-1,1.772989691E0
9.853504125E0,-2.317785999E0,1.563790464E0,-1.669062857E-1,2.800969521E0
9.863553125E0,-2.882476172E0,3.530993199E0,-8.139101994E-1,4.630230196E0
9.873601125E0,-3.456873017E0,5.565804366E0,-1.621298122E0,6.749574571E0
9.883650125E0,-4.272158774E0,7.603271338E0,-2.580446434E0,9.095041474E0
9.893698125E0,-5.319066483E0,9.757383830E0,-3.226193050E0,1.157183344E1
9.903747125E0,-6.530548756E0,1.193452032E1,-3.352791116E0,1.401149708E1
9.913796125E0,-7.446870013E0,1.432505153E1,-3.303363433E0,1.647953835E1
9.923844125E0,-8.231982676E0,1.602207138E1,-2.605473394E0,1.820057147E1
9.933893125E0,-8.229095321E0,1.676073493E1,-1.697064004E0,1.874887388E1
9.943941125E0,-7.049192691E0,1.707093791E1,-6.989127168E-1,1.848232988E1
9.953990125E0,-5.739445036E0,1.824390691E1,-4.500565343E-1,1.913070620E1
9.964039125E0,-4.360208193E0,2.075335645E1,-4.719306757E-1,2.121169343E1
9.974087125E0,-2.691471026E0,2.299271609E1,-4.652205572E-1,2.315438273E1
9.984136125E0,-1.109164623E0,2.368352252E1,-1.710385423E0,2.377109386E1
9.994184125E0,-7.131511255E-1,2.328468394E1,-2.613724400E0,2.344177139E1
1.000423313E1,-1.020205376E0,2.223943567E1,-2.845784017E0,2.244397034E1
1.001428212E1,-1.468591361E0,2.020682890E1,-2.742677432E0,2.044492539E1
1.002433013E1,-8.611520474E-1,1.789514974E1,-2.632787200E0,1.810827257E1
1.003437912E1,-4.750963948E-1,1.551743212E1,-2.149820051E0,1.567284729E1
1.004442713E1,-5.606248972E-1,1.388178814E1,-1.709062490E0,1.399782972E1
1.005447612E1,-5.888662910E-1,1.236409186E1,-1.669103788E0,1.249013365E1
1.006452413E1,-4.103643919E-1,1.032997885E1,-1.375853059E0,1.042927772E1
1.007457312E1,-6.984708866E-1,7.824940453E0,-1.334652116E0,7.968616626E0
1.008462212E1,-1.475484351E0,5.265604806E0,-1.227645146E0,5.604530368E0
1.009467012E1,-2.696863328E0,2.387062055E0,-6.896782091E-1,3.666986924E0
1.010471912E1,-4.135206458E0,-9.274637121E-1,4.879475150E-1,4.265936493E0
1.011476712E1,-5.076571341E0,-3.957116641E0,1.016347822E0,6.516387925E0
1.012481612E1,-5.373651411E0,-6.879809378E0,6.452998888E-1,8.753531774E0
1.013486513E1,-5.193978753E0,-9.467467183E0,-1.237519339E-1,1.079933631E1
1.014491312E1,-4.753700956E0,-1.136067457E1,-7.373116744E-1,1.233718882E1
1.015496213E1,-4.354443716E0,-1.254255356E1,-8.203734192E-1,1.330224953E1
1.016501012E1,-3.562603247E0,-1.313469992E1,-1.181075581E0,1.366043277E1
1.017505913E1,-2.382140454E0,-1.345937476E1,-1.993199749E0,1.381311722E1
1.018510812E1,-1.216770933E0,-1.368249164E1,-1.755313966E0,1.384818530E1
1.019515613E1,2.666922368E-2,-1.385204920E1,-6.255319145E-1,1.386619157E1
1.020520512E1,1.394884869E0,-1.399805184E1,3.942999709E-1,1.407290416E1
1.021525312E1,2.672538034E0,-1.416483314E1,8.820014642E-1,1.444170641E1
1.022530212E1,4.048461260E0,-1.431347638E1,1.462858751E0,1.494675886E1
1.023535062E1,5.189409739E0,-1.429726439E1,2.168184986E0,1.536368343E1
1.024539862E1,5.969282126E0,-1.395134428E1,1.868192710E0,1.528929300E1
1.025544762E1,6.237837140E0,-1.330405166E1,1.251613175E0,1.474703151E1
1.026549562E1,6.079091667E0,-1.265907454E1,1.144261219E0,1.408960104E1
1.027554462E1,6.053697209E0,-1.228714017E1,1.492916363E0,1.377860162E1
1.028559362E1,6.228558778E0,-1.193271002E1,1.896975921E0,1.359349221E1
1.029564162E1,6.400998430E0,-1.142470159E1,2.421663831E0,1.331769661E1
1.030569062E1,6.461403092E0,-1.066551080E1,3.014777613E0,1.282933103E1
1.031573862E1,6.474716032E0,-9.854920650E0,3.298417858E0,1.224422186E1
1.032578762E1,6.076476792E0,-9.155480222E0,3.618332182E0,1.156886840E1
1.033583662E1,5.416854733E0,-8.746655182E0,3.966981187E0,1.102647867E1
1.034588462E1,4.877968907E0,-8.611623677E0,4.413779506E0,1.083679346E1
1.035593362E1,4.385924540E0,-8.663524733E0,4.721438651E0,1.079745238E1
1.036598163E1,4.102594490E0,-8.775310047E0,4.666060841E0,1.075218451E1
1.037603062E1,3.942475213E0,-8.804429181E0,4.477102805E0,1.063510853E1
1.038607863E1,3.612900996E0,-8.605643145E0,4.383459646E0,1.031139496E1
1.039612762E1,3.486406426E0,-8.483429321E0,4.195928038E0,1.008610008E1
1.040617662E1,3.508205431E0,-8.568594602E0,3.962100223E0,1.007107526E1
1.041622462E1,3.219090145E0,-8.515753899E0,4.114591807E0,9.990519084E0
1.042627362E1,2.669369135E0,-8.325378497E0,4.167536590E0,9.685340466E0
1.043632162E1,2.276700245E0,-8.171989658E0,4.169258303E0,9.452380324E0
1.044637062E1,1.935934311E0,-8.050290390E0,4.217389951E0,9.292007050E0
1.045641962E1,1.700725530E0,-8.116467422E0,4.330775356E0,9.355486408E0
1.046646762E1,1.685358170E0,-8.455685452E0,4.556012734E0,9.751733213E0
1.047651662E1,1.685640006E0,-8.622677838E0,4.582903787E0,9.909337135E0
1.048656462E1,1.755631616E0,-8.531086468E0,4.546695489E0,9.825177787E0
1.049661363E1,1.810371495E0,-8.477885576E0,4.533486629E0,9.782867156E0
1.050666262E1,1.968199978E0,-8.241417743E0,4.114362596E0,9.419275829E0
1.051671063E1,2.277743681E0,-7.833855702E0,3.680866692E0,8.950206201E0
1.052675962E1,2.362250565E0,-7.607859648E0,3.599924855E0,8.741808458E0
1.053680763E1,2.453057240E0,-6.804681428E0,3.156251872E0,7.891964587E0
1.054685662E1,2.533680988E0,-4.987757982E0,1.943328846E0,5.922313403E0
1.055690562E1,2.414303356E0,-2.596352030E0,9.776334071E-1,3.677726422E0
1.056695362E1,2.509590752E0,4.283260882E-1,-9.281753182E-2,2.547572192E0
1.057700262E1,2.921610417E0,4.387835410E0,-8.772887546E-1,5.344019328E0
1.058705062E1,3.937703301E0,7.942302842E0,-3.769217536E-1,8.872866038E0
1.059709962E1,5.315840575E0,1.021265681E1,3.695642021E-1,1.151924901E1
1.060714863E1,7.428822582E0,1.182525340E1,-2.820112109E-3,1.396510046E1
1.061719662E1,8.336017506E0,1.248452696E1,-3.562761122E-1,1.501597596E1
1.062724563E1,8.595291819E0,1.389145008E1,-1.135163829E-1,1.633598215E1
1.063729362E1,7.670239499E0,1.572370083E1,4.068460491E-1,1.749951044E1
1.064734263E1,5.346917941E0,1.649635659E1,6.195420268E-1,1.735232389E1
1.065739162E1,3.607744044E0,1.596000553E1,3.510747215E-1,1.636645493E1
1.066743963E1,2.716179605E0,1.455093298E1,-9.247693151E-2,1.480256174E1
1.067748862E1,2.540067902E0,1.307125880E1,-1.225003374E0,1.337200003E1
1.068753663E1,2.288274955E0,1.255265054E1,-2.315224626E0,1.296786423E1
1.069758562E1,2.113804126E0,1.172183253E1,-3.213620367E0,1.233681002E1
1.070763362E1,2.297070775E0,1.042750456E1,-3.810157986E0,1.133696121E1
1.071768262E1,2.415069926E0,9.460497887E0,-3.958867882E0,1.053594884E1
1.072773162E1,1.926071082E0,8.742620603E0,-4.147697865E0,9.866436155E0
1.073777962E1,2.888656826E-1,9.030952654E0,-4.024305242E0,9.891237633E0
1.074782862E1,-1.431808866E0,1.025424572E1,-4.026402054E0,1.110907491E1
1.075787662E1,-2.969470755E0,1.133622035E1,-3.972049845E0,1.237355359E1
1.076792562E1,-4.003556982E0,1.212972610E1,-3.130987515E0,1.315149447E1
1.077797463E1,-3.872586661E0,1.239369281E1,-2.005379791E0,1.313857287E1
1.078802262E1,-3.290615918E0,1.220779813E1,-1.564409684E0,1.273993194E1
1.079807163E1,-2.883083991E0,1.234380436E1,-1.692924467E0,1.278857587E1
1.080811962E1,-2.586477252E0,1.256734342E1,-1.697140310E0,1.294249862E1
1.081816863E1,-2.804774278E0,1.232050906E1,-1.331901147E0,1.270573346E1
1.082821762E1,-3.027403213E0,1.251431268E1,-1.346829088E0,1.294554521E1
1.083826562E1,-3.028629082E0,1.172235995E1,-1.528017783E0,1.220332558E1
1.084831462E1,-2.489611108E0,1.036436633E1,-1.590067559E0,1.077713170E1
1.085836262E1,-1.236546070E0,9.148678740E0,-1.835472861E0,9.412562324E0
1.086841162E1,2.102516954E-1,7.887290483E0,-2.006918778E0,8.141331581E0
1.087846062E1,1.067699605E0,6.892293769E0,-2.406420579E0,7.377977761E0
1.088850862E1,1.570267132E0,6.080892609E0,-3.101614612E0,7.004499054E0
1.089855762E1,1.817378944E0,5.093293793E0,-3.442737665E0,6.410690331E0
1.090860562E1,1.718867248E0,3.954098893E0,-3.488188072E0,5.545886647E0
1.091865462E1,1.229063242E0,2.787627903E0,-3.454987582E0,4.606343991E0
1.092870363E1,8.414784325E-1,1.513431904E0,-3.321490971E0,3.745779538E0
1.093875162E1,6.471856890E-1,2.721528053E-1,-3.128484907E0,3.206296037E0
1.094880062E1,2.141276684E-1,-7.565554458E-1,-2.646254507E0,2.760595899E0
1.095884862E1,-1.143424483E-1,-1.590438564E0,-2.183982993E0,2.704135858E0
1.096889762E1,-1.964980940E-1,-2.182371501E0,-1.867799485E0,2.879241529E0
1.097894662E1,-1.088500855E-1,-2.491625474E0,-1.463526503E0,2.891704630E0
1.098899462E1,4.770670161E-3,-2.808484336E0,-9.600894213E-1,2.968059757E0
1.099904362E1,1.658207501E-1,-3.076468077E0,-4.815977311E-1,3.118347114E0
1.100909162E1,2.710394224E-1,-3.236981748E0,-4.897276998E-2,3.248678429E0
1.101914062E1,1.736197664E-1,-3.403731474E0,3.473433208E-1,3.425810730E0
1.102918962E1,8.618353676E-2,-3.593087706E0,7.140688460E-1,3.664369138E0
1.103923762E1,1.632188123E-2,-3.851099020E0,1.020448913E0,3.984036402E0
1.104928662E1,3.852120090E-2,-4.229993917E0,1.169118025E0,4.388754878E0
1.105933462E1,4.700894605E-2,-4.601899636E0,1.369492896E0,4.801583166E0
1.106938362E1,2.086696946E-1,-4.933319820E0,1.483974070E0,5.155905985E0
1.107943162E1,4.022559848E-1,-5.254324942E0,1.459384189E0,5.468047429E0
1.108948062E1,5.526348963E-1,-5.441148160E0,1.527090415E0,5.678336355E0
1.109952962E1,6.383343932E-1,-5.512810466E0,1.458490881E0,5.738095998E0
1.110957763E1,6.903451572E-1,-5.600321649E0,1.275338691E0,5.785038270E0
1.111962662E1,8.284590221E-1,-5.770880252E0,1.111508918E0,5.935053101E0
1.112967463E1,1.107433262E0,-5.950383341E0,1.030909582E0,6.139726777E0
1.113972362E1,1.433449741E0,-6.112392730E0,1.047974242E0,6.365090184E0
1.114977262E1,1.464687175E0,-6.183633451E0,1.095569627E0,6.448480750E0
1.115982062E1,1.572221856E0,-6.019340724E0,9.310745139E-1,6.290567866E0
1.116986962E1,1.570818817E0,-5.762536275E0,8.694002759E-1,6.035739633E0
1.117991762E1,1.482209234E0,-5.584344717E0,9.350154642E-1,5.852871437E0
1.118996662E1,1.525811190E0,-5.337041409E0,9.690217010E-1,5.634812672E0
1.120001562E1,1.614228838E0,-5.128349020E0,1.024126958E0,5.473073582E0
1.121006362E1,1.423276024E0,-4.992843890E0,1.418033996E0,5.381916496E0
1.122011263E1,1.241583738E0,-4.667130589E0,1.481617788E0,5.051616512E0
1.123016062E1,9.908741346E-1,-4.322363552E0,1.527158242E0,4.690082145E0
1.124021054E1,7.980575938E-1,-3.974101633E0,1.715001215E0,4.401318993E0
1.125025954E1,7.083004215E-1,-3.670913562E0,1.614576309E0,4.072364488E0
1.126030754E1,7.054387942E-1,-3.555888305E0,1.511626722E0,3.927722097E0
1.127035654E1,8.150515759E-1,-3.489905984E0,1.595721378E0,3.923019190E0
1.128040454E1,7.446214979E-1,-3.693866222E0,1.818873346E0,4.184185595E0
1.129045354E1,6.993329854E-1,-4.120117718E0,1.760233959E0,4.534629006E0
1.130050254E1,6.464322022E-1,-4.608633875E0,1.623864319E0,4.928926466E0
1.131055054E1,5.948573481E-1,-5.178081928E0,1.368072900E0,5.388692901E0
1.132059954E1,6.782088225E-1,-5.576661476E0,1.244980971E0,5.754050577E0
1.133064754E1,6.331294942E-1,-5.893893975E0,1.334176883E0,6.076089787E0
1.134069654E1,6.950061189E-1,-6.013410478E0,1.046025950E0,6.143151420E0
1.135074554E1,6.572971328E-1,-6.105253864E0,8.788211636E-1,6.203103328E0
1.136079354E1,4.340164157E-1,-6.254471884E0,7.104846489E-1,6.309641609E0
1.137084254E1,3.454991821E-1,-6.260661162E0,5.169499969E-1,6.291461290E0
1.138089054E1,4.101662078E-1,-6.228199174E0,4.038461351E-1,6.254741639E0
1.139093954E1,3.228756104E-1,-6.205010871E0,6.848494323E-1,6.251034100E0
1.140098854E1,1.200506646E-1,-5.954093984E0,7.411509562E-1,6.001245876E0
1.141103654E1,1.195522626E-1,-5.459853403E0,3.948836692E-1,5.475420079E0
1.142108554E1,1.703246411E-2,-4.666689709E0,3.439169987E-1,4.679376225E0
1.143113354E1,-1.703934190E-1,-3.612227397E0,2.707613142E-1,3.626366277E0
1.144118254E1,-4.511630102E-1,-2.251567451E0,3.405886173E-2,2.296576594E0
1.145123154E1,-8.061956754E-1,-8.667754608E-1,-3.941045277E-1,1.247625563E0
1.146127954E1,-1.002074111E0,3.957109040E-1,-1.126232353E0,1.558569522E0
1.147132854E1,-1.657968058E0,1.368362483E0,-1.163557469E0,2.444409939E0
1.148137654E1,-2.343189812E0,2.317104213E0,-1.115205528E0,3.478964472E0
1.149142554E1,-2.913884784E0,3.553539478E0,-1.694281021E0,4.897852135E0
1.150147454E1,-3.769057322E0,4.773396717E0,-2.070943597E0,6.424944879E0
1.151152254E1,-4.531993834E0,6.420708809E0,-2.574564135E0,8.269996990E0
1.152157154E1,-5.718542994E0,8.532606744E0,-3.686820327E0,1.091328346E1
1.153161954E1,-7.152235833E0,1.073773093E1,-4.441080741E0,1.364465247E1
1.154166854E1,-8.008769311E0,1.223110981E1,-4.620647564E0,1.533267155E1
1.155171654E1,-7.367146736E0,1.354270343E1,-4.744388680E0,1.613037170E1
1.156176554E1,-6.381651163E0,1.460035832E1,-4.966087031E0,1.669005557E1
1.157181454E1,-6.599438896E0,1.553648702E1,-4.861124833E0,1.756603420E1
1.158186254E1,-6.811484079E0,1.709388355E1,-5.387803427E0,1.917356503E1
1.159191154E1,-6.552500957E0,1.854942393E1,-5.388832537E0,2.039744869E1
1.160195954E1,-5.740469468E0,1.964353153E1,-4.587284521E0,2.097294686E1
1.161200854E1,-4.749472834E0,2.061876758E1,-3.996932964E0,2.153291764E1
1.162205754E1,-4.191511929E0,2.176699000E1,-3.709950743E0,2.247519433E1
1.163210554E1,-4.285603861E0,2.287103085E1,-3.805132889E0,2.357815703E1
1.164215454E1,-4.129821757E0,2.328703218E1,-4.109018533E0,2.400469389E1
1.165220254E1,-3.738150694E0,2.186879704E1,-3.461670949E0,2.245442541E1
1.166225154E1,-3.385308944E0,1.944509107E1,-2.692722622E0,1.992040759E1
1.167230054E1,-3.621183577E0,1.665198959E1,-1.666029322E0,1.712242335E1
1.168234854E1,-3.906480923E0,1.349217413E1,-7.706668237E-1,1.406745476E1
1.169239754E1,-3.540414818E0,1.009226849E1,-1.609808636E-1,1.069646368E1
1.170244554E1,-2.864677540E0,6.739990173E0,2.430072127E-1,7.327543753E0
1.171249454E1,-1.915260165E0,3.232701586E0,4.497459009E-1,3.784290213E0
1.172254354E1,-1.010673245E0,2.745033860E-2,7.232692936E-1,1.243113994E0
1.173259154E1,-9.354228690E-1,-2.404051141E0,1.112921897E0,2.809461333E0
1.174264054E1,-1.115478885E0,-4.334014129E0,1.285315941E0,4.656179623E0
1.175268854E1,-1.218929359E0,-6.252461026E0,1.582517488E0,6.563796102E0
1.176273754E1,-1.004159447E0,-8.015394791E0,1.852956913E0,8.287842854E0
1.177278654E1,-5.370733358E-1,-9.346768958E0,1.782591227E0,9.530381378E0
1.178283454E1,-3.277215269E-1,-1.004342787E1,1.252990194E0,1.012659020E1
1.179288354E1,-5.356369673E-1,-1.024709340E1,1.040079331E0,1.031366061E1
1.180293154E1,-1.015533963E0,-1.034775205E1,1.086204507E0,1.045404811E1
1.181298054E1,-1.016841473E0,-1.021517345E1,9.238097870E-1,1.030714120E1
1.182302954E1,-8.930089939E-1,-9.881468178E0,8.637635601E-1,9.959265330E0
1.183307754E1,-9.919023675E-1,-9.586018311E0,9.559529547E-1,9.684496034E0
1.184312654E1,-9.366255681E-1,-9.326165709E0,1.154097698E0,9.443864452E0
1.185317454E1,-5.788573927E-1,-9.083188756E0,1.497936198E0,9.224055870E0
1.186322354E1,2.378454369E-1,-9.213844789E0,1.535209712E0,9.343895072E0
1.187327254E1,1.318368790E0,-9.589055355E0,1.589627556E0,9.808924234E0
1.188332054E1,2.213105782E0,-9.845327708E0,1.740289253E0,1.023996687E1
1.189336954E1,2.781163806E0,-1.012930943E1,1.830794796E0,1.066253212E1
1.190341754E1,3.002275681E0,-1.047530789E1,1.818289794E0,1.104771073E1
1.191346654E1,2.920409692E0,-1.082875921E1,1.691025292E0,1.134241533E1
1.192351554E1,2.509185540E0,-1.117902731E1,1.486332983E0,1.155317486E1
1.193356354E1,2.004689674E0,-1.148380992E1,1.355216188E0,1.173598236E1
1.194361254E1,1.645764773E0,-1.176520366E1,1.394771433E0,1.196135219E1
1.195366054E1,1.302511433E0,-1.203972576E1,1.457779859E0,1.219740360E1
1.196370954E1,1.013664608E0,-1.212021152E1,1.322370039E0,1.223420229E1
1.197375854E1,9.224177843E-1,-1.210744587E1,1.115241780E0,1.219364033E1
1.198380654E1,8.640434224E-1,-1.209043749E1,9.954370093E-1,1.216207814E1
1.199385554E1,7.225856079E-1,-1.208325945E1,1.014518813E0,1.214728518E1
1.200390354E1,5.969863193E-1,-1.200315143E1,9.722270715E-1,1.205724937E1
1.201395254E1,7.299998774E-1,-1.201550192E1,9.198044443E-1,1.207274726E1
1.202400154E1,1.078239576E0,-1.227121469E1,1.168029274E0,1.237374652E1
1.203404954E1,1.546392658E0,-1.294524429E1,1.598426446E0,1.313490187E1
1.204409854E1,1.975146763E0,-1.402901986E1,2.055374655E0,1.431569656E1
1.205414654E1,2.374975715E0,-1.525318825E1,2.588890983E0,1.565255947E1
1.206419554E1,3.074184154E0,-1.611875743E1,3.139815642E0,1.670698631E1
1.207424354E1,4.484891589E0,-1.674968019E1,3.663898072E0,1.772258977E1
1.208429254E1,5.763791088E0,-1.689542672E1,4.020468299E0,1.829865834E1
1.209434154E1,5.942073863E0,-1.622220403E1,3.849976355E0,1.770001309E1
1.210438954E1,6.025287343E0,-1.520904061E1,3.018233317E0,1.663516565E1
1.211443854E1,6.797006373E0,-1.344767916E1,2.884765942E0,1.534148770E1
1.212448754E1,7.113110944E0,-1.136714510E1,3.243839947E0,1.379604410E1
1.213453554E1,6.791747972E0,-9.722367779E0,3.088933171E0,1.225535735E1
1.214458454E1,6.723519151E0,-8.405420448E0,2.793095634E0,1.112017023E1
1.215463254E1,6.736683573E0,-6.831996696E0,2.672709650E0,9.960043237E0
1.216468154E1,6.632959814E0,-4.988150330E0,2.815779322E0,8.763926791E0
1.217472954E1,6.687958724E0,-2.495319160E0,2.209823009E0,7.472531522E0
1.218477854E1,5.889350104E0,1.283748010E0,1.402026658E0,6.188548485E0
1.219482754E1,4.356147010E0,6.062644034E0,-2.627267282E-2,7.465410887E0
1.220487554E1,2.197482168E0,1.063708748E1,-2.226820865E0,1.108761873E1
1.221492454E1,3.247914872E-1,1.375981055E1,-3.138867223E0,1.411702388E1
1.222497254E1,1.007358313E-2,1.491169215E1,-2.358378539E0,1.509703989E1
1.223502087E1,7.899681902E-1,1.597436863E1,-8.637400981E-1,1.601719544E1
1.224506987E1,1.743197073E0,1.895949852E1,2.007525281E-1,1.904052577E1
1.225511787E1,2.640168725E0,2.321785260E1,5.693887040E-2,2.336755041E1
1.226516687E1,3.298022586E0,2.612223478E1,-1.495743784E0,2.637205628E1
1.227521488E1,4.088215894E0,2.656110574E1,-2.460373861E0,2.698627960E1
1.228526387E1,5.013278739E0,2.531753863E1,-3.100359508E0,2.599467166E1
1.229531287E1,5.600534488E0,2.269161723E1,-3.712577312E0,2.366555956E1
1.230536087E1,5.245668139E0,1.974651504E1,-3.912215288E0,2.080257962E1
1.231540987E1,4.236380246E0,1.723773208E1,-4.388156422E0,1.828502780E1
1.232545787E1,1.581339712E0,1.529805628E1,-5.228919375E0,1.624416077E1
1.233550687E1,-1.290054817E0,1.399773258E1,-6.395706700E0,1.544363374E1
1.234555587E1,-3.144471195E0,1.272473292E1,-7.291263911E0,1.499896851E1
1.235560387E1,-4.614674633E0,1.139379320E1,-7.572933644E0,1.443825022E1
1.236565287E1,-5.635011426E0,1.070947251E1,-7.432571232E0,1.420173476E1
1.237570087E1,-6.141063967E0,1.057624721E1,-6.889177787E0,1.403675326E1
1.238574988E1,-6.374200641E0,1.009980906E1,-6.518319304E0,1.360606715E1
1.239579887E1,-6.119101825E0,9.655679700E0,-6.158478144E0,1.298469910E1
1.240584688E1,-5.631684945E0,8.893110977E0,-5.424989380E0,1.184203563E1
1.241589587E1,-5.036923710E0,7.817957123E0,-4.568337203E0,1.036150370E1
1.242594388E1,-4.439119585E0,6.702838134E0,-3.949742718E0,8.957359504E0
1.243599287E1,-4.012744128E0,5.605515731E0,-3.289243284E0,7.638261807E0
1.244604187E1,-3.680498317E0,4.523207223E0,-2.516741019E0,6.351335042E0
1.245608987E1,-3.337499770E0,3.478821418E0,-1.814097487E0,5.150927379E0
1.246613887E1,-3.087136906E0,2.512534533E0,-1.621624689E0,4.298012411E0
1.247618687E1,-3.070833115E0,1.477926441E0,-1.341626090E0,3.662545993E0
1.248623587E1,-3.189674265E0,4.956930292E-1,-9.795792143E-1,3.373323129E0
1.249628488E1,-2.984315958E0,-4.417606509E-1,-8.408049063E-1,3.131812111E0
1.250633287E1,-2.619323401E0,-1.464434575E0,-6.103171670E-1,3.062337465E0
1.251638188E1,-2.267727547E0,-2.385977982E0,-2.600863449E-1,3.301987896E0
1.252642987E1,-1.899682305E0,-3.188646909E0,-7.249626473E-2,3.712346654E0
1.253647888E1,-1.666335716E0,-3.783715707E0,-4.686068259E-2,4.134655390E0
1.254652787E1,-1.428348045E0,-4.215650697E0,-1.652189255E-2,4.451085475E0
1.255657588E1,-1.268022362E0,-4.747650842E0,-4.559658766E-2,4.914280037E0
1.256662487E1,-1.083728065E0,-5.141167871E0,-3.379164398E-1,5.265003430E0
1.257667288E1,-7.178958486E-1,-5.611122041E0,-5.964803890E-1,5.688220624E0
1.258672187E1,-5.757115906E-1,-6.097203417E0,-6.968524504E-1,6.163841066E0
1.259677087E1,-5.660911667E-1,-6.529183431E0,-8.321289539E-1,6.606295034E0
1.260681887E1,-9.664585009E-1,-6.841078591E0,-1.006934974E0,6.981999454E0
1.261686787E1,-8.095449606E-1,-7.069514104E0,-1.075087781E0,7.196471806E0
1.262691587E1,3.586126596E-2,-7.158076617E0,-1.072496295E0,7.238065708E0
1.263696487E1,8.118125108E-1,-7.055239881E0,-7.197255886E-1,7.138168831E0
1.264701388E1,1.431972588E0,-6.836479756E0,-4.076158351E-1,6.996724349E0
1.265706187E1,1.951597102E0,-6.626554189E0,-1.499448287E-1,6.909590084E0
1.266711088E1,2.619183945E0,-6.458935567E0,-3.184980193E-2,6.969862811E0
1.267715887E1,2.631898716E0,-6.053073896E0,-2.405659636E-2,6.600543399E0
1.268720788E1,2.447540392E0,-5.238917529E0,-2.523699206E-1,5.787953129E0
1.269725687E1,2.239514293E0,-4.256653127E0,-6.546408159E-1,4.854181157E0
1.270730488E1,2.681548009E0,-3.236554901E0,-1.247095324E0,4.384202789E0
1.271735387E1,2.542653833E0,-2.659880859E0,-1.509509591E0,3.977269654E0
1.272740187E1,1.927289057E0,-2.003381213E0,-1.016686376E0,2.960005165E0
1.273745087E1,1.241700683E0,-1.001333926E0,-2.976647919E-1,1.622681283E0
1.274749987E1,6.013063154E-1,-4.077263474E-2,6.253959668E-1,8.685342871E-1
1.275754787E1,-7.163102299E-2,6.916361493E-1,1.373813843E0,1.539758436E0
1.276759687E1,-2.337175950E-1,1.195982473E0,1.730178832E0,2.116250642E0
1.277764487E1,6.854126653E-1,1.489744248E0,1.776076552E0,2.417349037E0
1.278769387E1,9.127445161E-1,1.488843192E0,2.088255302E0,2.722235627E0
1.279774288E1,7.298281154E-1,1.534400019E0,3.244189026E0,3.662211754E0
1.280779087E1,1.517310654E0,1.810879764E0,5.776702325E0,6.241138269E0
1.281783988E1,3.255479414E0,2.093987328E0,7.875201949E0,8.775063241E0
1.282788787E1,3.851485814E0,2.045031515E0,6.840453524E0,8.112206930E0
1.283793687E1,3.254484218E0,1.271812674E0,4.462113175E0,5.667418195E0
1.284798587E1,3.174330001E0,9.184812194E-1,3.180904611E0,4.586734443E0
1.285803387E1,3.749108669E0,1.122425669E0,2.481495173E0,4.633947938E0
1.286808287E1,3.451930658E0,1.192761242E0,2.023796182E0,4.175434783E0
1.287813087E1,3.782947675E0,8.773478115E-1,1.506708775E0,4.165405578E0
1.288817987E1,3.849095764E0,4.160369951E-1,5.201636267E-1,3.906301983E0
1.289822887E1,3.183465984E0,2.970525885E-1,-2.265445232E-1,3.205310957E0
1.290827687E1,3.068027621E0,3.968856096E-2,5.637067636E-2,3.068802098E0
1.291832587E1,2.644544781E0,-4.351872110E-1,3.606679559E-2,2.680355540E0
1.292837387E1,2.371606695E0,-6.018311030E-1,-4.843096697E-1,2.494248353E0
1.293842287E1,2.410953194E0,-4.611909485E-1,-6.675064445E-1,2.543807628E0
1.294847188E1,1.498934317E0,-5.780955005E-1,-4.821087412E-1,1.677327438E0
1.295851987E1,6.358886491E-1,-6.799838179E-1,-3.570157850E-1,9.970920907E-1
1.296856887E1,5.910754421E-1,-7.899038708E-1,-1.579683781E-1,9.991357825E-1
1.297861787E1,5.547521000E-1,-8.370371068E-1,1.949613726E-1,1.022932523E0
1.298866587E1,1.169815890E-1,-8.027104425E-1,5.844129054E-1,9.997835719E-1
1.299871487E1,-4.148282294E-1,-7.669523799E-1,8.437883019E-1,1.213374267E0
1.300876287E1,-7.793686500E-1,-9.692520082E-1,9.928538556E-1,1.591421920E0
1.301881187E1,-1.055447130E0,-1.426535847E0,9.906868775E-1,2.032346835E0
1.302885987E1,-1.221858595E0,-2.066208376E0,9.814422834E-1,2.593334617E0
1.303890887E1,-1.475520458E0,-2.675729737E0,1.012441736E0,3.218963888E0
1.304895787E1,-1.732890771E0,-3.341152818E0,1.249076360E0,3.965653078E0
1.305900587E1,-2.384595700E0,-4.024319276E0,1.962006169E0,5.072564489E0
1.306905487E1,-2.743709466E0,-4.700577248E0,2.520462188E0,5.998007814E0
1.307910287E1,-2.539404535E0,-5.442347424E0,1.950477945E0,6.314434661E0
1.308915187E1,-3.044153439E0,-6.191995554E0,1.516166500E0,7.064449020E0
1.309920087E1,-3.468678545E0,-6.726783067E0,1.908137233E0,7.805275714E0
1.310924888E1,-4.122405149E0,-6.815178350E0,1.835956864E0,8.173837395E0
1.311929787E1,-4.488380038E0,-6.742778710E0,1.546497324E0,8.246349136E0
1.312934687E1,-4.852155496E0,-6.698764379E0,1.479581788E0,8.402738805E0
1.313939487E1,-5.123345557E0,-6.547515621E0,1.391304180E0,8.429374700E0
1.314944387E1,-5.286543685E0,-6.171327401E0,9.769212162E-1,8.184570916E0
1.315949187E1,-5.364301128E0,-5.637141566E0,5.914868668E-1,7.804034107E0
1.316954087E1,-5.814200519E0,-4.871298403E0,5.300373081E-1,7.603644873E0
1.317958987E1,-6.357695705E0,-3.967101932E0,2.729136743E-2,7.493926690E0
1.318963787E1,-6.774845425E0,-3.277785373E0,-7.800583291E-1,7.566432349E0
1.319968687E1,-7.220807301E0,-2.641383777E0,-1.282307403E0,7.794952123E0
1.320973487E1,-7.431495929E0,-2.055609713E0,-1.177232791E0,7.799906415E0
1.321978387E1,-7.633576287E0,-1.297628716E0,-9.624481881E-1,7.802668372E0
1.322983287E1,-7.801020663E0,-6.152761906E-1,-7.091258291E-1,7.857311729E0
1.323988117E1,-8.021564773E0,3.648662567E-1,-5.817710602E-1,8.050905934E0
1.324993017E1,-8.392164810E0,2.002614643E0,-6.638331505E-1,8.653298218E0
1.325997817E1,-8.579659873E0,4.081808515E0,-7.302165898E-1,9.529162637E0
1.327002717E1,-9.031200576E0,6.423683873E0,-8.633905077E-1,1.111628272E1
1.328007617E1,-9.638657870E0,9.084340072E0,-1.048426963E0,1.328639000E1
1.329012417E1,-9.867291019E0,1.118044234E1,-1.279071261E0,1.496668788E1
1.330017317E1,-1.030228644E1,1.296913250E1,-1.365326024E0,1.661925446E1
1.331022117E1,-1.081294951E1,1.495377456E1,-1.178936451E0,1.849121797E1
1.332027017E1,-1.133775700E1,1.672886527E1,-1.046296091E0,2.023596804E1
1.333031917E1,-1.178943102E1,1.819255316E1,-1.025838876E0,2.170281133E1
1.334036717E1,-1.184384404E1,1.937917190E1,-9.279298814E-1,2.273081606E1
1.335041617E1,-1.164203557E1,2.014936013E1,-4.878155141E-1,2.327598913E1
1.336046417E1,-1.086043709E1,2.067779406E1,-2.634090252E-1,2.335786046E1
1.337051317E1,-9.838658373E0,2.099653748E1,-3.392390800E-1,2.318984406E1
1.338056217E1,-8.917880952E0,2.124388873E1,-5.281452222E-1,2.304583143E1
1.339061017E1,-7.960770103E0,2.124212521E1,-7.703114592E-1,2.269791012E1
1.340065917E1,-6.959104639E0,2.075314362E1,-8.889625745E-1,2.190690215E1
1.341070717E1,-6.004829689E0,1.991058557E1,-8.893578462E-1,2.081538745E1
1.342075617E1,-4.889253156E0,1.821119057E1,-1.227137461E0,1.889598171E1
1.343080517E1,-3.363560226E0,1.602986806E1,-1.845804452E0,1.648263333E1
1.344085317E1,-1.802831656E0,1.370943561E1,-2.004607959E0,1.397201775E1
1.345090217E1,2.433611155E-2,1.101591806E1,-2.204580395E0,1.123437661E1
1.346095017E1,1.579555434E0,8.153129464E0,-2.321906824E0,8.623210929E0
1.347099917E1,2.838487569E0,5.222471066E0,-2.040003348E0,6.284332054E0
1.348104817E1,4.026802003E0,2.006972573E0,-1.732186035E0,4.821155644E0
1.349109617E1,5.069710218E0,-1.170738873E0,-1.551539816E0,5.429536537E0
1.350114517E1,6.104944546E0,-3.898854985E0,-1.562589884E0,7.410337728E0
1.351119317E1,6.873127765E0,-5.790803470E0,-1.390407363E0,9.094312659E0
1.352124217E1,7.359912561E0,-6.713243839E0,-1.288955687E0,1.004476792E1
1.353129117E1,7.709513492E0,-7.254089068E0,-1.108410917E0,1.064363572E1
1.354133917E1,7.923694078E0,-7.953925352E0,-9.172914572E-1,1.126460297E1
1.355138817E1,8.254864585E0,-8.759979233E0,-7.581056888E-1,1.206046225E1
1.356143617E1,8.715959639E0,-9.431044877E0,-8.363274010E-1,1.286903273E1
1.357148517E1,8.807082648E0,-9.590023069E0,-8.605743425E-1,1.304890169E1
1.358153417E1,8.807173280E0,-9.358527709E0,-5.969247043E-1,1.286486149E1
1.359158217E1,8.719809446E0,-9.034686686E0,-4.762368576E-1,1.256532697E1
1.360163117E1,8.807850972E0,-8.449045354E0,-4.885747750E-1,1.221488074E1
1.361167917E1,9.104888358E0,-7.928679999E0,-4.906818192E-1,1.208320020E1
1.362172817E1,9.290565521E0,-7.652100851E0,-1.587356059E-1,1.203721114E1
1.363177717E1,9.762151650E0,-7.568916607E0,1.407505938E-1,1.235345758E1
1.364182517E1,1.031894399E1,-7.475847645E0,1.593027127E-1,1.274340145E1
1.365187417E1,1.065325971E1,-7.441721540E0,4.026754495E-1,1.300128107E1
1.366192217E1,1.069999183E1,-7.506567162E0,8.544910455E-1,1.309841711E1
1.367197117E1,1.075227296E1,-7.794218012E0,9.132520545E-1,1.331147015E1
1.368202017E1,1.119491654E1,-8.284328120E0,6.150172321E-1,1.394039077E1
1.369206817E1,1.144071126E1,-8.840028784E0,5.615350894E-1,1.446897732E1
1.370211717E1,1.157670697E1,-9.260313781E0,6.097862399E-1,1.483729743E1
1.371216617E1,1.133631741E1,-9.392295379E0,6.235470041E-1,1.473486056E1
1.372221417E1,1.082429077E1,-9.371419650E0,8.043219352E-1,1.434000386E1
1.373226317E1,1.036814948E1,-9.385132540E0,8.686682045E-1,1.401191710E1
1.374231117E1,9.916998199E0,-9.342719176E0,9.929121816E-1,1.366086123E1
1.375236017E1,9.714216176E0,-9.261658056E0,1.181270732E0,1.347366715E1
1.376240917E1,9.450842965E0,-9.074139605E0,1.373895704E0,1.317368710E1
1.377245717E1,9.270355790E0,-8.843305564E0,1.601873964E0,1.291160524E1
1.378250617E1,9.024750513E0,-8.686628251E0,1.773116691E0,1.265099107E1
1.379255417E1,8.694361194E0,-8.587099870E0,1.926716030E0,1.237103211E1
1.380260317E1,8.461113423E0,-8.397840702E0,1.957330881E0,1.208078280E1
1.381265217E1,8.229152623E0,-8.171068722E0,2.107028958E0,1.178664023E1
1.382270017E1,7.664265983E0,-8.041605520E0,2.338824281E0,1.135246631E1
1.383274917E1,7.201591011E0,-8.057758453E0,2.553613561E0,1.110456332E1
1.384279717E1,6.917742020E0,-8.046916546E0,2.655175020E0,1.093882877E1
1.385284617E1,6.378196043E0,-7.687079480E0,2.950653538E0,1.041532198E1
1.386289517E1,5.956470877E0,-7.344510995E0,3.244609441E0,9.997443548E0
1.387294317E1,5.658530681E0,-7.155762874E0,3.164141228E0,9.655863581E0
1.388299217E1,5.389228978E0,-6.921155040E0,2.861120971E0,9.226710643E0
1.389304017E1,4.892798030E0,-5.959602646E0,2.438322841E0,8.087135125E0
1.390308917E1,4.256278905E0,-4.013834049E0,1.695812846E0,6.091186674E0
1.391313817E1,3.730783495E0,-1.497943799E0,9.316286838E-1,4.126804226E0
1.392318617E1,3.011870377E0,2.737468733E0,3.212648121E-1,4.082684082E0
1.393323517E1,1.858268816E0,8.472924798E0,-1.967400956E-1,8.676538728E0
1.394328317E1,3.554560402E-1,1.309388753E1,-4.877150150E-1,1.310778797E1
1.395333217E1,-7.087918800E-1,1.702053842E1,-6.624895334E-1,1.704816725E1
1.396338117E1,-1.282987288E0,2.036026686E1,-1.138337405E-1,2.040096765E1
1.397342917E1,-1.958935065E0,2.275861228E1,4.198245290E-1,2.284662146E1
1.398347817E1,-2.483189988E0,2.536517940E1,4.337596133E-2,2.548647563E1
1.399352617E1,-2.230657223E0,2.609191814E1,-1.516987011E-2,2.618710091E1
1.400357517E1,-1.649639576E0,2.480131836E1,-1.479522438E-1,2.485656036E1
1.401362417E1,-3.465442988E-1,2.321539677E1,-1.240087728E-1,2.321831429E1
1.402367217E1,2.059269485E-1,2.108886033E1,-6.822564845E-1,2.110089832E1
1.403372117E1,4.275981098E-2,1.908799342E1,-2.737081647E0,1.928328129E1
1.404377017E1,-5.660537446E-1,1.702088808E1,-4.035165861E0,1.750181738E1
1.405381817E1,-1.608783326E0,1.490607414E1,-4.452119114E0,1.563971211E1
1.406386717E1,-2.752614191E0,1.305982633E1,-4.878963518E0,1.421056767E1
1.407391517E1,-3.965845950E0,1.126487613E1,-5.184312136E0,1.301931107E1
1.408396417E1,-4.567759206E0,9.500101663E0,-5.373573643E0,1.183180669E1
1.409401317E1,-4.975039119E0,8.934718595E0,-5.416624353E0,1.157238221E1
1.410406117E1,-5.665737959E0,9.464937678E0,-4.523663306E0,1.192263233E1
1.411411017E1,-6.400171634E0,9.543979754E0,-3.110653238E0,1.190486917E1
1.412415817E1,-6.705949438E0,9.106747772E0,-2.292252377E0,1.153936887E1
1.413420717E1,-6.716091433E0,8.101100940E0,-2.161120380E0,1.074263291E1
1.414425617E1,-6.518436248E0,6.622825420E0,-2.373499439E0,9.590898146E0
1.415430417E1,-6.391218377E0,5.095559589E0,-2.137273096E0,8.448688428E0
1.416435317E1,-6.167070043E0,3.436731990E0,-1.433219215E0,7.204026444E0
1.417440117E1,-5.795231566E0,1.843137099E0,-9.115762424E-1,6.149214138E0
1.418445017E1,-5.620052494E0,5.728493786E-1,-4.826269142E-1,5.669750892E0
1.419449917E1,-5.611254188E0,-4.668908143E-1,2.076470532E-2,5.630683064E0
1.420454717E1,-5.576840985E0,-1.316440963E0,2.274648750E-1,5.734624003E0
1.421459617E1,-5.481024417E0,-2.009428403E0,1.277732833E-1,5.839157232E0
1.422464417E1,-5.356864640E0,-2.650789023E0,-6.169046402E-2,5.977163786E0
1.423469337E1,-5.162382739E0,-3.137514178E0,-2.243482725E-1,6.045206605E0
1.424474237E1,-5.119041422E0,-3.484726521E0,-3.092487109E-1,6.200285378E0
1.425479037E1,-4.871181459E0,-3.998856406E0,-5.283836790E-1,6.324432834E0
1.426483937E1,-4.417217669E0,-4.601659901E0,-9.233431792E-1,6.445125941E0
1.427488737E1,-4.083715292E0,-5.249140216E0,-1.170448852E0,6.752788617E0
1.428493637E1,-3.669998765E0,-5.900621197E0,-1.461795727E0,7.100920235E0
1.429498537E1,-3.104081553E0,-6.341659132E0,-1.814334299E0,7.289977488E0
1.430503337E1,-2.597418562E0,-6.745503513E0,-1.959314842E0,7.489146512E0
1.431508237E1,-2.131661523E0,-7.132770452E0,-2.215300680E0,7.767107073E0
1.432513137E1,-1.899940314E0,-7.461092196E0,-2.364923912E0,8.054224672E0
1.433517937E1,-1.668969302E0,-7.654826238E0,-2.473963374E0,8.215979433E0
1.434522837E1,-1.226868343E0,-7.815315936E0,-2.670809889E0,8.349706257E0
1.435527637E1,-9.552482191E-1,-7.740544665E0,-2.854140565E0,8.305097787E0
1.436532537E1,-5.983823786E-1,-7.396571680E0,-2.741071202E0,7.910803083E0
1.437537437E1,-3.553617904E-1,-6.839073581E0,-2.667965804E0,7.349642915E0
1.438542237E1,-3.618988679E-1,-6.031791201E0,-2.626016124E0,6.588583806E0
1.439547137E1,-4.420025429E-1,-5.115763473E0,-2.456957917E0,5.692367202E0
1.440551937E1,-6.421733826E-1,-4.380964347E0,-2.137305840E0,4.916636200E0
1.441556837E1,-7.721059696E-1,-3.773145695E0,-1.818996284E0,4.259286742E0
1.442561737E1,-8.178822861E-1,-3.277133408E0,-1.556855081E0,3.719184394E0
1.443566538E1,-8.757959604E-1,-2.865475393E0,-1.077810756E0,3.184280738E0
1.444571437E1,-1.006111321E0,-2.383139158E0,-4.272987324E-1,2.621868884E0
1.445576238E1,-1.099165153E0,-1.809238451E0,3.025788102E-1,2.138471824E0
1.446581137E1,-1.117941513E0,-1.289105229E0,1.117242697E0,2.039562885E0
1.447586037E1,-1.257517986E0,-7.061179483E-1,1.715353217E0,2.241069098E0
1.448590837E1,-1.219258996E0,-1.121460879E-1,2.102742949E0,2.433248272E0
1.449595737E1,-1.101473342E0,4.400474167E-1,2.303291920E0,2.590760298E0
1.450600537E1,-1.047047312E0,7.888443553E-1,2.570054762E0,2.885093581E0
1.451605437E1,-9.323859713E-1,8.705972010E-1,2.805905714E0,3.082270261E0
1.452610337E1,-6.963780950E-1,7.436915714E-1,2.839665198E0,3.016905375E0
1.453615137E1,-5.483888675E-1,4.601489747E-1,2.763980008E0,2.855180015E0
1.454620037E1,-6.930897671E-1,4.319922924E-2,2.792711180E0,2.877755259E0
1.455624837E1,-8.413551293E-1,-2.982717329E-1,2.806731341E0,2.945264895E0
1.456629738E1,-1.065235807E0,-2.368479019E-1,2.743012770E0,2.952108282E0
1.457634637E1,-1.467722172E0,9.470384359E-2,2.805521552E0,3.167669233E0
1.458639438E1,-1.964890893E0,1.812338644E-1,2.871989191E0,3.484532084E0
1.459644337E1,-2.426000272E0,2.285162044E-1,2.788820150E0,3.703405839E0
1.460649237E1,-2.561420764E0,3.455955881E-1,2.695984199E0,3.734788273E0
1.461654037E1,-2.589272221E0,5.991916698E-1,2.634549551E0,3.742220281E0
1.462658937E1,-2.566127188E0,8.174120969E-1,2.806262394E0,3.889508954E0
1.463663737E1,-2.273509566E0,6.041074240E-1,2.889515051E0,3.726001712E0
1.464668637E1,-1.711864037E0,1.763812602E-1,2.569942496E0,3.092926327E0
1.465673537E1,-1.230848835E0,-2.547462291E-1,2.300918097E0,2.621852129E0
1.466678337E1,-7.912824981E-1,-6.002763283E-1,2.033717737E0,2.263286879E0
1.467683238E1,-4.187002556E-1,-9.653361279E-1,1.715645286E0,2.012615833E0
1.468688037E1,-2.368736297E-1,-1.427965491E0,1.505194931E0,2.088254377E0
1.469692938E1,-1.007226750E-1,-1.959314842E0,1.334712488E0,2.372871074E0
1.470697837E1,1.047961378E-1,-2.439975264E0,1.088334209E0,2.673748842E0
1.471702638E1,1.797805390E-1,-2.814540297E0,1.110610932E0,3.031074854E0
1.472707537E1,4.892774642E-2,-3.168697379E0,1.426628379E0,3.475385667E0
1.473712338E1,2.122641608E-2,-3.567891469E0,1.441745478E0,3.848237274E0
1.474717237E1,5.853837624E-2,-3.985777938E0,1.183529073E0,4.158195953E0
1.475722137E1,-9.905592620E-2,-4.273895981E0,8.581103258E-1,4.360315616E0
1.476726937E1,-1.954624790E-1,-4.522934158E0,6.990929572E-1,4.580815424E0
1.477731837E1,-3.434552148E-1,-4.798942033E0,8.561810370E-1,4.886803873E0
1.478736738E1,-4.373208600E-1,-5.073875774E0,1.001953146E0,5.190315502E0
1.479741537E1,-5.638551915E-1,-5.348649302E0,1.144407838E0,5.498695421E0
1.480746438E1,-7.777200276E-1,-5.476111001E0,1.271314491E0,5.675286836E0
1.481751237E1,-1.110228085E0,-5.401485327E0,1.202233146E0,5.643936098E0
1.482756138E1,-1.872450360E0,-4.737168539E0,1.244790351E0,5.243695179E0
1.483761037E1,-2.598020241E0,-3.490633963E0,1.456291158E0,4.588574786E0
1.484765838E1,-3.134002925E0,-2.228095558E0,1.545165328E0,4.144142859E0
1.485770737E1,-3.582570612E0,-7.390161377E-1,1.510577732E0,3.957625819E0
1.486775538E1,-4.105574816E0,1.508656483E0,1.164922063E0,4.526459142E0
1.487780437E1,-4.840390021E0,4.459622846E0,7.159333768E-1,6.620435944E0
1.488785337E1,-5.835803642E0,7.790810840E0,-4.815196708E-2,9.734251707E0
1.489790137E1,-7.380140419E0,1.160439120E1,-7.102063215E-1,1.377072114E1
1.490795037E1,-8.558693511E0,1.551013713E1,-8.460090744E-1,1.773503086E1
1.491799837E1,-9.355395355E0,1.812563645E1,1.272798514E-1,2.039799792E1
1.492804737E1,-8.995343696E0,1.934175440E1,1.923790083E0,2.141776458E1
1.493809638E1,-7.862510567E0,1.868050330E1,3.499588974E0,2.056762988E1
1.494814437E1,-6.263471918E0,1.738681620E1,3.950364861E0,1.889809092E1
1.495819338E1,-4.569029514E0,1.715492147E1,3.586711317E0,1.811164983E1
1.496824237E1,-3.381083454E0,1.779956530E1,3.200578737E0,1.839836826E1
1.497829038E1,-2.840009892E0,1.907923312E1,2.991039087E0,1.951996690E1
1.498833937E1,-2.169633341E0,2.019477896E1,2.483165138E0,2.046222166E1
1.499838738E1,-1.023106911E0,2.019054791E1,1.827382215E0,2.029887432E1
1.500843637E1,-5.091170669E-2,1.980510881E1,1.077515545E0,1.983446412E1
1.501848537E1,3.054310638E-1,1.887823158E1,8.986889791E-1,1.890207813E1
1.502853337E1,3.001212072E-1,1.727355797E1,9.191334763E-1,1.730059779E1
1.503858237E1,3.189036334E-1,1.456122524E1,1.299284062E0,1.462255515E1
1.504863037E1,8.092815435E-1,1.097946652E1,1.943577207E0,1.117949525E1
1.505867937E1,1.658986643E0,7.432835526E0,2.844576859E0,8.129630874E0
1.506872838E1,2.356819671E0,4.072964017E0,3.894940274E0,6.108534569E0
1.507877637E1,3.249753821E0,9.044654435E-1,4.635342494E0,5.732831558E0
1.508882538E1,4.300014324E0,-1.818180597E0,4.728212943E0,6.644689722E0
1.509887337E1,5.391104765E0,-3.901634751E0,4.301334625E0,7.923903323E0
1.510892238E1,6.298110239E0,-5.467472325E0,3.593526832E0,9.081458104E0
1.511897137E1,7.013274415E0,-6.704042661E0,2.677794389E0,1.006482930E1
1.512901938E1,7.447938884E0,-7.566963637E0,1.638029784E0,1.074308493E1
1.513906837E1,7.539529086E0,-8.098752698E0,8.389352591E-1,1.109676108E1
1.514911737E1,7.279224494E0,-8.338214305E0,5.381967321E-1,1.108163268E1
1.515916537E1,6.893731014E0,-8.376247519E0,3.857418399E-1,1.085512997E1
1.516921437E1,6.525759301E0,-8.550656514E0,3.711626116E-1,1.076276094E1
1.517926237E1,6.206154587E0,-8.891739221E0,3.681863058E-1,1.084965171E1
1.518931137E1,5.782500424E0,-9.366363562E0,5.522940036E-1,1.102139312E1
1.519936038E1,5.770186772E0,-9.840524805E0,7.915247190E-1,1.143492436E1
1.520940837E1,6.455581019E0,-1.021228610E1,8.221828401E-1,1.210955401E1
1.521945738E1,7.186035079E0,-1.017181518E1,5.317516021E-1,1.246545964E1
1.522950537E1,7.756316360E0,-9.734196112E0,5.093076861E-1,1.245690217E1
1.523955425E1,7.900208736E0,-9.001530635E0,7.158290040E-1,1.199805247E1
1.524960325E1,7.838739297E0,-8.211400477E0,9.522494745E-1,1.139208983E1
1.525965125E1,7.952617915E0,-7.714225178E0,1.029682982E0,1.112715817E1
1.526970025E1,8.205768439E0,-7.587987301E0,9.366695684E-1,1.121559347E1
1.527974825E1,8.480807430E0,-7.815886624E0,8.538841045E-1,1.156465721E1
1.528979725E1,8.556751651E0,-8.114222676E0,8.070192558E-1,1.181989376E1
1.529984625E1,8.534495979E0,-8.386262630E0,9.544796026E-1,1.200325180E1
1.530989425E1,8.333699670E0,-8.622053940E0,1.209169114E0,1.205207261E1
1.531994325E1,7.965988158E0,-8.778310254E0,1.537106695E0,1.195317511E1
1.532999225E1,7.664242010E0,-8.911967078E0,1.754768128E0,1.188456873E1
1.534004025E1,7.367685850E0,-9.015699023E0,1.875114352E0,1.179328951E1
1.535008925E1,7.036649244E0,-9.064518011E0,2.007026367E0,1.164938085E1
1.536013725E1,6.698832791E0,-9.162969335E0,2.228912998E0,1.156729964E1
1.537018625E1,6.564444480E0,-9.281351479E0,2.266466156E0,1.159190603E1
1.538023525E1,6.538394549E0,-9.241469375E0,2.050632563E0,1.150480132E1
1.539028325E1,6.566849440E0,-9.018301034E0,1.898700850E0,1.131628605E1
1.540033225E1,6.296619199E0,-8.663739325E0,2.069169406E0,1.090821958E1
1.541038025E1,5.962777099E0,-8.036479851E0,2.215400083E0,1.024927884E1
1.542042925E1,5.676837729E0,-7.096011347E0,2.144752854E0,9.337013893E0
1.543047825E1,5.374027972E0,-6.129194119E0,2.181916587E0,8.438480739E0
1.544052625E1,5.097150616E0,-5.288304282E0,2.026485901E0,7.619301260E0
1.545057525E1,4.919174820E0,-4.601422504E0,1.804274164E0,6.973290129E0
1.546062425E1,4.892467078E0,-4.065530452E0,1.428719198E0,6.519663374E0
1.547067225E1,5.043124098E0,-3.225765034E0,4.699921775E-1,6.004960730E0
1.548072125E1,5.183329804E0,-1.433853638E0,-5.428730428E-1,5.405326563E0
1.549076925E1,4.449649835E0,1.697628552E0,-1.042452132E0,4.875246948E0
1.550081825E1,3.510413924E0,5.617621806E0,-7.874876551E-1,6.670893305E0
1.551086725E1,2.433012400E0,9.674792494E0,-6.970956945E-1,1.000035507E1
1.552091525E1,1.527174030E0,1.324827156E1,-9.658232009E-1,1.337093020E1
1.553096425E1,1.380701863E0,1.552311912E1,-7.650648987E-1,1.560316920E1
1.554101225E1,1.590473063E0,1.703200715E1,-4.794541053E-1,1.711282409E1
1.555106125E1,1.472772120E0,1.861848423E1,2.442417061E-1,1.867824046E1
1.556111025E1,1.305000300E0,2.079854140E1,7.965567597E-1,2.085466022E1
1.557115825E1,9.355188364E-1,2.232412206E1,9.744818310E-1,2.236495554E1
1.558120725E1,5.339566237E-1,2.255294700E1,1.138686776E0,2.258798653E1
1.559125625E1,4.014040455E-1,2.196671919E1,7.511450171E-2,2.197051477E1
1.560130425E1,-1.075506149E0,2.108687228E1,-2.142160053E0,2.122267056E1
1.561135325E1,-2.980146601E0,1.996028690E1,-4.418528030E0,2.065956720E1
1.562140125E1,-5.143410278E0,1.807037208E1,-6.156948513E0,1.977121724E1
1.563145025E1,-6.545819929E0,1.549195697E1,-7.550362222E0,1.843519620E1
1.564149925E1,-7.578113108E0,1.301456420E1,-8.752209452E0,1.741860643E1
1.565154725E1,-7.667718764E0,1.087916923E1,-9.718682864E0,1.648038321E1
1.566159625E1,-7.521758813E0,9.134930767E0,-1.058087586E1,1.587383853E1
1.567164425E1,-7.371539165E0,7.131225618E0,-1.053905424E1,1.470597269E1
1.568169325E1,-7.025127890E0,4.656882175E0,-9.810970638E0,1.293422276E1
1.569174225E1,-6.643775409E0,4.595209837E0,-8.404714689E0,1.165739826E1
1.570179025E1,-6.656718221E0,3.712564448E0,-6.646250535E0,1.011274831E1
1.571183925E1,-6.549791942E0,2.012256117E0,-6.058175007E0,9.146061097E0
1.572188725E1,-6.128298326E0,6.729010856E-1,-6.148933734E0,8.707365980E0
1.573193625E1,-5.774186268E0,-9.065774578E-1,-6.089188054E0,8.440457387E0
1.574198525E1,-5.388807979E0,-1.744899783E0,-6.040062672E0,8.280476059E0
1.575203325E1,-4.835677750E0,-2.596684737E0,-5.447101210E0,7.732881903E0
1.576208225E1,-4.324833416E0,-3.487451908E0,-4.697077104E0,7.275234581E0
1.577213125E1,-4.118099551E0,-4.155706211E0,-4.181274916E0,7.191084616E0
1.578217925E1,-4.020759491E0,-4.656374052E0,-3.730346416E0,7.194707122E0
1.579222825E1,-3.950797848E0,-4.952294619E0,-3.412070189E0,7.195571457E0
1.580227625E1,-3.946815894E0,-5.153525961E0,-3.224883274E0,7.248176161E0
1.581232525E1,-3.880989402E0,-5.279297816E0,-3.055632108E0,7.229796107E0
1.582237425E1,-3.807117434E0,-5.291988028E0,-2.952539265E0,7.156589170E0
1.583242225E1,-3.774966518E0,-5.144630592E0,-2.790493623E0,6.964513680E0
1.584247125E1,-3.866876855E0,-5.107701332E0,-2.615040901E0,6.919522268E0
1.585251925E1,-3.992349916E0,-5.074510197E0,-2.605881822E0,6.962767529E0
1.586256825E1,-4.120869085E0,-4.966034991E0,-2.557514824E0,6.941465812E0
1.587261725E1,-4.079162065E0,-4.896616262E0,-2.278065424E0,6.768012711E0
1.588266525E1,-3.923300731E0,-4.971982194E0,-1.949776571E0,6.626803471E0
1.589271425E1,-3.651133016E0,-5.033605415E0,-1.786678138E0,6.469943937E0
1.590276325E1,-3.358508524E0,-4.792375610E0,-1.713371742E0,6.097711556E0
1.591281125E1,-3.087212920E0,-4.308396308E0,-1.523480344E0,5.514902965E0
1.592286025E1,-3.113340619E0,-3.478572326E0,-1.186798836E0,4.816829529E0
1.593290825E1,-3.045560864E0,-2.432442881E0,-4.808001709E-1,3.927262170E0
1.594295725E1,-2.725897093E0,-1.335522181E0,1.885322128E-1,3.041328468E0
1.595300625E1,-2.648104274E0,-4.122129160E-1,8.734804630E-1,2.818748633E0
1.596305425E1,-2.472335510E0,2.776971352E-1,1.719875454E0,3.024488411E0
1.597310325E1,-2.227818692E0,6.697915363E-1,2.346293514E0,3.304071742E0
1.598315225E1,-1.904746725E0,5.900939870E-1,2.497106069E0,3.195592233E0
1.599320025E1,-1.683851635E0,4.373729002E-1,2.235916793E0,2.833015229E0
1.600324925E1,-1.679992619E0,6.396865618E-1,2.045857726E0,2.723436787E0
1.601329725E1,-1.934706250E0,1.251735089E0,2.349007791E0,3.290557188E0
1.602334625E1,-1.872321429E0,2.368922238E0,3.086838698E0,4.318096022E0
1.603339525E1,-1.512213490E0,3.380715079E0,3.869434719E0,5.356169259E0
1.604344325E1,-8.134917580E-1,3.590136616E0,4.531524303E0,5.838284189E0
1.605349225E1,-4.799713281E-1,3.474107977E0,4.878735477E0,6.008482218E0
1.606354025E1,-1.176892483E-1,3.431225082E0,5.082512112E0,6.133439956E0
1.607358925E1,5.174148506E-1,3.187837070E0,5.112817061E0,6.047389652E0
1.608363825E1,1.419041032E0,2.624949008E0,4.841244299E0,5.686974689E0
1.609368625E1,2.244013287E0,2.015591369E0,4.501629828E0,5.418752191E0
1.610373525E1,2.846096843E0,1.763068836E0,4.110654584E0,5.301524316E0
1.611378425E1,3.373327415E0,1.610261210E0,3.502742962E0,5.122644558E0
1.612383225E1,3.917383642E0,1.354081244E0,2.897576022E0,5.057210438E0
1.613388125E1,4.323930313E0,1.138899030E0,2.343567542E0,5.048343607E0
1.614392925E1,4.606669210E0,1.154511681E0,2.023682892E0,5.162324174E0
1.615397825E1,4.998824422E0,1.178986956E0,1.750582838E0,5.426121646E0
1.616402725E1,5.299556079E0,7.991056341E-1,1.409446921E0,5.541696949E0
1.617407525E1,5.563482437E0,3.359377420E-1,8.946495764E-1,5.644961369E0
1.618412425E1,5.758895799E0,-9.955469370E-2,5.062856989E-1,5.781964819E0
1.619417225E1,5.644768090E0,-5.077739614E-1,3.957747848E-1,5.681362412E0
1.620422125E1,5.268371708E0,-9.703688264E-1,3.466640206E-1,5.368196351E0
1.621427025E1,4.815381480E0,-1.528078594E0,2.018597715E-1,5.056052843E0
1.622431825E1,4.321565407E0,-2.132811670E0,1.378656507E-1,4.821184515E0
1.623436725E1,3.669242427E0,-2.762048673E0,7.231617048E-2,4.593199592E0
1.624441637E1,3.013043621E0,-3.450410382E0,-1.024689460E-1,4.581949754E0
1.625446438E1,2.389741688E0,-4.214555513E0,-1.065340765E-1,4.846100806E0
1.626451337E1,1.714259642E0,-4.992859093E0,1.321799643E-1,5.280605986E0
1.627456138E1,8.269132376E-1,-5.622439912E0,3.082545380E-1,5.691277267E0
1.628461037E1,2.375884518E-1,-6.203589998E0,4.789150286E-1,6.226583071E0
1.629465937E1,-4.097497764E-1,-6.714543675E0,5.822470236E-1,6.752185072E0
1.630470737E1,-1.294546794E0,-6.929610699E0,4.737725486E-1,7.065395691E0
1.631475637E1,-2.005245159E0,-7.185377267E0,1.365827715E-1,7.461186867E0
1.632480437E1,-2.737112052E0,-7.804181083E0,-7.851304963E-2,8.270622048E0
1.633485337E1,-3.530738261E0,-8.538153997E0,-1.488992004E-1,9.240582087E0
1.634490237E1,-4.380081710E0,-9.307537649E0,-3.710664980E-1,1.029335044E1
1.635495037E1,-5.363740380E0,-9.965471617E0,-5.809593205E-1,1.133215995E1
1.636499938E1,-6.412924996E0,-1.009492663E1,-8.654417109E-1,1.199091907E1
1.637504837E1,-7.061857760E0,-9.093756428E0,-1.135121436E0,1.156956100E1
1.638509638E1,-8.205102441E0,-7.034550678E0,-1.063510148E0,1.086000291E1
1.639514537E1,-1.003525112E1,-4.906033203E0,-6.833464786E-1,1.119117461E1
1.640519338E1,-1.086187200E1,-3.184493632E0,-9.083567655E-1,1.135545574E1
1.641524237E1,-1.093997910E1,-2.424579545E0,-8.175262637E-1,1.123521597E1
1.642529137E1,-1.075288574E1,-1.708771006E0,-3.113021068E-1,1.089226143E1
1.643533937E1,-1.112848164E1,7.317913181E-1,4.541242229E-1,1.116175842E1
1.644538837E1,-1.222315642E1,4.557705796E0,7.487347949E-1,1.306670727E1
1.645543737E1,-1.380037970E1,8.527575799E0,-2.933863842E-1,1.622516885E1
1.646548537E1,-1.564781684E1,1.280257223E1,-1.058196344E0,2.024548856E1
1.647553438E1,-1.709646919E1,1.653371562E1,-8.068771684E-1,2.379714398E1
1.648558237E1,-1.773301931E1,1.899930870E1,-3.226924829E-1,2.599111070E1
1.649563138E1,-1.807633741E1,2.048851735E1,6.125451024E-1,2.732962730E1
1.650568037E1,-1.828205649E1,2.131376062E1,1.820359855E0,2.813936195E1
1.651572838E1,-1.810530334E1,2.263886599E1,2.666678832E0,2.911067568E1
1.652577737E1,-1.716393320E1,2.403345031E1,3.022698543E0,2.968743915E1
1.653582538E1,-1.513230526E1,2.561256340E1,3.138188946E0,2.991384790E1
1.654587437E1,-1.270584875E1,2.729796952E1,3.375521582E0,3.029871084E1
1.655592337E1,-8.778735346E0,2.820640230E1,2.112661288E0,2.961639179E1
1.656597137E1,-4.653579667E0,2.805241236E1,-5.778788611E-2,2.843583976E1
1.657602037E1,-8.704855192E-1,2.617168819E1,-1.366014826E0,2.622176585E1
1.658606938E1,2.600392164E0,2.316905642E1,-2.128565276E0,2.341149301E1
