"Time (s)","Linear Acceleration x (m/s^2)","Linear Acceleration y (m/s^2)","Linear Acceleration z (m/s^2)","Absolute acceleration (m/s^2)"
4.746208338E-3,-1.659290150E-1,6.122777385E-1,1.270225739E-1,6.469553318E-1
1.477720834E-2,-1.794905536E-1,7.098426247E-1,-2.567512393E-2,7.326340305E-1
2.480820833E-2,-2.532201058E-1,7.789035040E-1,6.186704993E-2,8.213638794E-1
3.483820834E-2,-2.650099381E-1,9.220000738E-1,2.539545161E-1,9.923745762E-1
4.486920834E-2,-3.546125793E-1,1.115197926E0,-4.663739204E-2,1.171149667E0
5.489920833E-2,-4.863548430E-1,1.345855381E0,-7.429828888E-1,1.612417847E0
6.493020833E-2,-4.102936406E-1,1.340732051E0,-1.464712903E0,2.027630931E0
7.496120834E-2,-1.460817926E-1,1.385790694E0,-1.821902935E0,2.293705745E0
8.499120834E-2,4.500007299E-1,1.382746049E0,-1.544222757E0,2.121110845E0
9.502220833E-2,1.111175188E0,1.133951116E0,-5.136562604E-1,1.668651607E0
1.050532083E-1,1.538694945E0,6.615914011E-1,1.154775975E0,2.034402337E0
1.150832083E-1,1.830478315E0,4.907655805E-2,3.143942606E0,3.638328529E0
1.251142083E-1,2.027253056E0,-3.358345386E-1,4.619515543E0,5.055933508E0
1.351442083E-1,2.103184998E0,-5.890762791E-1,5.090504086E0,5.539280626E0
1.451752083E-1,2.032735551E0,-6.225814095E-1,4.713975558E0,5.171188160E0
1.552062083E-1,1.870748966E0,-7.375201276E-1,3.685804081E0,4.198665188E0
1.652362083E-1,1.389962683E0,-9.559294197E-1,2.538700238E0,3.048080742E0
1.752672083E-1,1.961464278E0,-5.312517017E-2,1.434698560E0,2.430745638E0
1.852972083E-1,2.311120465E0,-4.556501269E-2,7.330133861E-1,2.425007752E0
1.953282083E-1,1.998694085E0,-2.467501616E-1,-1.924903393E-2,2.013959834E0
2.053592083E-1,1.663411962E0,-2.822035843E-1,-6.293609637E-1,1.800742469E0
2.153892083E-1,1.458882059E0,-2.694157237E-1,-7.300804228E-1,1.653462766E0
2.254202083E-1,1.417550869E0,-2.425512761E-1,-6.876670593E-1,1.594104003E0
2.354502083E-1,1.513964000E0,-3.135329658E-1,-7.013466203E-1,1.697727009E0
2.454812083E-1,1.628204122E0,-3.726249272E-1,-7.642585677E-1,1.836842170E0
2.555122083E-1,1.761965028E0,-2.380723089E-1,-9.609214801E-1,2.021031735E0
2.655422083E-1,1.753987817E0,-1.245170420E-1,-1.209344530E0,2.134125570E0
2.755732083E-1,1.604134644E0,-2.981536192E-1,-1.239428455E0,2.048981803E0
2.856032083E-1,1.316358517E0,-4.520552588E-1,-9.948265600E-1,1.710799108E0
2.956335833E-1,1.175696728E0,-5.557187909E-1,-7.347090787E-1,1.493614274E0
3.056645833E-1,1.195106633E0,-6.278383487E-1,-4.468945062E-1,1.422032192E0
3.156945833E-1,1.180797985E0,-7.044240099E-1,-1.979843831E-1,1.389134580E0
3.257255833E-1,1.135748550E0,-8.415733767E-1,-2.277665913E-2,1.413750082E0
3.357555833E-1,1.133290088E0,-9.460520107E-1,4.041285557E-1,1.530581824E0
3.457865833E-1,1.265244204E0,-8.390169740E-1,6.901813620E-1,1.667675835E0
3.558175833E-1,1.333504892E0,-7.734544837E-1,4.995814276E-1,1.620508790E0
3.658475833E-1,1.388144345E0,-5.567847383E-1,-1.452331424E-1,1.502679817E0
3.758785833E-1,1.059807691E0,-3.619841641E-1,-9.525266325E-1,1.470214903E0
3.859085833E-1,6.407022232E-1,-1.935042465E-1,-1.781358342E0,1.902940034E0
3.959395833E-1,1.155042717E-1,-1.530333281E-2,-2.367718881E0,2.370583922E0
4.059705833E-1,-1.801336377E-1,4.577551246E-2,-2.598552922E0,2.605191128E0
4.160005833E-1,-1.380483031E-1,1.913939863E-1,-2.476834942E0,2.488051511E0
4.260315833E-1,-2.458289876E-1,3.395881587E-1,-2.133440246E0,2.174239934E0
4.360615833E-1,-3.777042572E-1,3.433607823E-1,-1.708135414E0,1.782774166E0
4.460925833E-1,-1.303656830E-1,3.095071578E-1,-1.256966593E0,1.301059149E0
4.561235833E-1,2.234961504E-1,4.991294378E-1,-8.555184013E-1,1.015377989E0
4.661535833E-1,5.143670991E-1,5.811962789E-1,-8.793715328E-1,1.172884018E0
4.761845833E-1,2.682323934E-1,5.029201877E-1,-1.146746578E0,1.280587774E0
4.862145833E-1,-3.494793453E-1,5.357084495E-1,-1.304275246E0,1.452671082E0
4.962455833E-1,-7.596915268E-1,4.976027298E-1,-1.344561977E0,1.622524762E0
5.062765833E-1,-8.944320600E-1,4.909140998E-1,-1.331423868E0,1.677407190E0
5.163065833E-1,-1.065046358E0,3.682061863E-1,-1.165475210E0,1.621182286E0
5.263375833E-1,-1.098177705E0,3.553323716E-1,-8.341292864E-1,1.424088140E0
5.363685833E-1,-8.265836008E-1,3.246736658E-1,-6.323331034E-1,1.090182825E0
5.463985833E-1,-3.698950449E-1,4.017645264E-1,-4.453835857E-1,7.047010836E-1
5.564295833E-1,-1.505870449E-1,4.674012762E-1,-3.829008240E-1,6.226985242E-1
5.664595833E-1,-2.237623084E-1,4.944136584E-1,-7.058214945E-1,8.903361266E-1
5.764905833E-1,-3.995649135E-1,3.704731518E-1,-1.181194280E0,1.300816053E0
5.865215833E-1,-8.240481750E-1,4.313561153E-1,-1.616380906E0,1.864888931E0
5.965515833E-1,-1.437036277E0,7.110003734E-1,-1.868786495E0,2.462307405E0
6.065825833E-1,-1.575007031E0,6.943328851E-1,-1.955246934E0,2.604944505E0
6.166125833E-1,-1.506745028E0,7.270585817E-1,-1.849887709E0,2.494189106E0
6.266435833E-1,-1.385618494E0,6.984060556E-1,-1.563486409E0,2.202770841E0
6.366745833E-1,-1.378737198E0,7.009653819E-1,-1.213200769E0,1.965737733E0
6.467045833E-1,-1.175159515E0,6.113486159E-1,-9.506479222E-1,1.630484127E0
6.567355833E-1,-7.067974678E-1,5.262020463E-1,-6.324173033E-1,1.084621086E0
6.667655833E-1,-4.091504368E-1,5.183720398E-1,-5.448745447E-1,8.561553137E-1
6.767965833E-1,-3.069060970E-1,5.848735929E-1,-8.666152471E-1,1.089628587E0
6.868275833E-1,-4.423624025E-1,7.544089329E-1,-1.141259551E0,1.437807600E0
6.968575833E-1,-6.616111355E-1,8.730647260E-1,-1.373651290E0,1.756954518E0
7.068885833E-1,-8.120212564E-1,8.622438687E-1,-1.636124614E0,2.019838301E0
7.169185833E-1,-9.503832626E-1,6.269448942E-1,-1.580359719E0,1.947774393E0
7.269495833E-1,-1.098608644E0,3.488887399E-1,-7.118488044E-1,1.354766779E0
7.369805833E-1,-1.169750767E0,1.656253070E-1,3.795304888E-1,1.240883553E0
7.470105833E-1,-9.988225472E-1,1.868752581E-1,9.783993924E-1,1.410614835E0
7.570415833E-1,-8.004139486E-1,4.540754718E-1,1.152211386E0,1.474597607E0
7.670715833E-1,-7.143088742E-1,6.284213161E-1,9.107108545E-1,1.317021176E0
7.771025833E-1,-8.399371795E-1,9.791209388E-1,6.353473431E-1,1.437998096E0
7.871335833E-1,-1.054505728E0,1.527397978E0,2.689719200E-3,1.856053380E0
7.971635833E-1,-1.026125463E0,1.892591094E0,-9.041841924E-1,2.335033955E0
8.071945833E-1,-7.811670343E-1,1.750647596E0,-9.216030478E-1,2.127049862E0
8.172255833E-1,-1.795205206E-1,1.273204896E0,4.176695377E-1,1.351934232E0
8.272555833E-1,9.384507765E-1,6.291647896E-1,2.362147070E0,2.618449345E0
8.372865833E-1,1.726027455E0,-1.062728521E-1,4.394928668E0,4.722908287E0
8.473165833E-1,1.916201420E0,-7.123961037E-1,6.147018186E0,6.478052846E0
8.573475833E-1,1.700827272E0,-1.122787612E0,6.864246429E0,7.160401139E0
8.673785833E-1,1.557459976E0,-1.266441422E0,6.154227219E0,6.473335161E0
8.774085833E-1,1.625756624E0,-1.012899427E0,4.384217153E0,4.784392322E0
8.874395833E-1,1.755346710E0,-7.006315058E-1,2.628139833E0,3.237166286E0
8.974695833E-1,6.121086077E-1,-1.688201087E0,2.347863491E0,2.955869217E0
9.075005833E-1,6.455352393E-1,-1.034933197E0,1.158531641E0,1.682259799E0
9.175315833E-1,1.149229306E0,-7.505544484E-2,4.773479748E-1,1.246684566E0
9.275615833E-1,1.242805806E0,-3.670013675E-1,-2.502924049E-1,1.319811564E0
9.375925833E-1,1.425170815E0,-5.455212468E-1,-7.588843918E-1,1.704291877E0
9.476225833E-1,1.299361099E0,-5.448499864E-1,-4.353860164E-1,1.474707346E0
9.576535833E-1,1.161989465E0,-6.261932346E-1,-3.554270965E-1,1.366991553E0
9.676845833E-1,1.172473085E0,-8.321386018E-1,-4.712066442E-1,1.513004788E0
9.777145833E-1,1.238001149E0,-7.875714165E-1,-2.475447983E-1,1.488016804E0
9.877455833E-1,1.211008428E0,-7.596275729E-1,5.432063341E-2,1.430568486E0
9.977755833E-1,1.039241864E0,-7.928996918E-1,2.632065654E-2,1.307442676E0
1.007806583E0,9.238239665E-1,-8.302672005E-1,-7.196343720E-2,1.244175663E0
1.017837583E0,7.276446189E-1,-8.740795103E-1,-1.092020148E-1,1.142543987E0
1.027867583E0,5.778461167E-1,-8.070405981E-1,-1.006791133E-1,9.976757717E-1
1.037898583E0,7.937176441E-1,-6.221533933E-1,-4.050968546E-1,1.086814614E0
1.047928583E0,1.132051941E0,-4.216146541E-1,-8.597453535E-1,1.482721345E0
1.057959583E0,1.250527493E0,-2.559124562E-1,-1.182857813E0,1.740247914E0
1.067990583E0,1.120815785E0,-2.382942107E-1,-1.321690008E0,1.749250306E0
1.078020583E0,8.603217427E-1,-3.028708604E-1,-1.250162188E0,1.547510826E0
1.088051583E0,6.317292322E-1,-4.100073463E-1,-1.078447006E0,1.315384276E0
1.098082583E0,5.638740122E-1,-5.254512638E-1,-8.224231607E-1,1.127134769E0
1.108112583E0,5.216056231E-1,-5.965317714E-1,-4.192085248E-1,8.964699480E-1
1.118143583E0,4.204877860E-1,-6.432565793E-1,-3.015467584E-2,7.690892728E-1
1.128173583E0,3.655506002E-1,-6.494017106E-1,2.404948103E-1,7.830629457E-1
1.138204583E0,3.162466220E-1,-5.230430880E-1,3.966242391E-1,7.286266430E-1
1.148235583E0,3.548103614E-1,-3.575440809E-1,3.373901904E-1,6.062675176E-1
1.158265583E0,5.640736946E-1,-2.159063914E-1,-9.604051709E-3,6.040587228E-1
1.168296583E0,5.708107468E-1,-5.003959447E-2,-5.214020669E-1,7.747186490E-1
1.178326583E0,3.655951852E-1,1.055188537E-1,-9.769948912E-1,1.048481323E0
1.188357583E0,3.870078351E-2,7.518759191E-2,-1.369434278E0,1.372042698E0
1.198388583E0,-2.675804289E-1,-7.735310823E-2,-1.318751782E0,1.347846079E0
1.208418583E0,-4.881532639E-1,-1.096183366E-1,-9.978080553E-1,1.116212661E0
1.218449583E0,-6.248159961E-1,-8.769332439E-2,-7.161927009E-1,9.544721750E-1
1.228479583E0,-6.192213801E-1,6.881149560E-2,-5.399652225E-1,8.244589626E-1
1.238510583E0,-2.888832790E-1,2.994400066E-1,-3.934123635E-1,5.726178082E-1
1.248541583E0,1.453433989E-1,4.362084273E-1,-1.920599842E-1,4.982865974E-1
1.258571583E0,6.082389204E-1,4.899612960E-1,3.504236341E-2,7.818213499E-1
1.268602583E0,9.956782801E-1,5.259728354E-1,-1.593196696E-1,1.137279833E0
1.278632583E0,1.150436756E0,5.625363520E-1,-3.222570115E-1,1.320530749E0
1.288663625E0,9.303626154E-1,5.150250936E-1,-5.269405496E-1,1.186798966E0
1.298694625E0,6.230730142E-1,4.427374282E-1,-7.405387527E-1,1.064252816E0
1.308724625E0,3.321348957E-1,4.224429122E-1,-8.589653349E-1,1.013209282E0
1.318755625E0,6.720888343E-2,4.279369560E-1,-1.090724990E0,1.173596215E0
1.328785625E0,-1.932812483E-1,4.518450513E-1,-1.205288317E0,1.301630331E0
1.338816625E0,-4.657492916E-1,5.273448846E-1,-1.125659180E0,1.327450044E0
1.348847625E0,-6.660119692E-1,6.116947711E-1,-1.006160218E0,1.352812190E0
1.358877625E0,-7.398946819E-1,7.071888658E-1,-1.030337285E0,1.452293068E0
1.368908625E0,-5.279649818E-1,8.295172951E-1,-1.076261317E0,1.457801217E0
1.378939625E0,-1.361819449E-1,1.000310664E0,-1.072363563E0,1.472796849E0
1.388969625E0,2.804423299E-1,9.848091102E-1,-9.615214044E-1,1.404642408E0
1.399000625E0,6.073689278E-1,9.034994835E-1,-6.660908335E-1,1.276277920E0
1.409030625E0,5.873992246E-1,8.501494879E-1,-3.730704850E-1,1.098623497E0
1.419061625E0,3.873069933E-1,7.530851233E-1,-2.035152644E-1,8.709548627E-1
1.429092625E0,1.819602348E-2,7.094827285E-1,-1.498436719E-1,7.253619534E-1
1.439122625E0,-2.554106920E-1,7.254111287E-1,1.394327044E-2,7.691881058E-1
1.449153625E0,-1.496977108E-1,7.589814556E-1,4.572054863E-1,8.986095432E-1
1.459183625E0,2.049981183E-1,7.641018623E-1,1.334400101E0,1.551289629E0
1.469214625E0,5.735183001E-1,8.323300982E-1,2.209948724E0,2.430137855E0
1.479245625E0,7.821499512E-1,8.940664628E-1,2.422554654E0,2.698126098E0
1.489275625E0,8.891235922E-1,1.007240199E0,1.784126998E0,2.233423992E0
1.499306625E0,7.967513258E-1,1.211089924E0,4.553729689E-1,1.519511770E0
1.509336625E0,4.992282557E-1,1.200377825E0,-6.834348446E-1,1.468747412E0
1.519367625E0,5.040582021E-1,9.761830053E-1,-8.193633127E-1,1.370534264E0
1.529398625E0,1.042782792E0,5.710674396E-1,1.827266586E-1,1.202872812E0
1.539428625E0,1.755605596E0,-1.968699038E-2,1.902313260E0,2.588693556E0
1.549459625E0,2.245485616E0,-6.275059345E-1,3.637560459E0,4.320626741E0
1.559489625E0,2.585455451E0,-1.124404952E0,4.885829319E0,5.640939152E0
1.569520625E0,2.590494874E0,-1.307422802E0,5.556076353E0,6.268173779E0
1.579551625E0,2.396714054E0,-1.314504657E0,5.475135101E0,6.119580470E0
1.589581625E0,2.009537162E0,-1.290367351E0,4.479756564E0,5.076564426E0
1.599612625E0,1.677311232E0,-1.164597251E0,3.056562985E0,3.675899483E0
1.609642625E0,1.421498617E0,-9.725360969E-1,1.596227893E0,2.348281981E0
1.619673625E0,1.230407370E0,-7.792443967E-1,3.692183393E-1,1.502480053E0
1.629704625E0,1.075575585E0,-6.255096951E-1,-3.243713647E-1,1.285823471E0
1.639734625E0,1.044027664E0,-5.792883325E-1,-5.668092048E-1,1.321681281E0
1.649765625E0,1.126450966E0,-6.169148728E-1,-5.941905463E-1,1.415110647E0
1.659795625E0,1.122618043E0,-7.145765305E-1,-4.863222814E-1,1.416827530E0
1.669826625E0,9.184712061E-1,-9.008544955E-1,-2.025627530E-1,1.302367017E0
1.679857625E0,7.535220565E-1,-9.884490019E-1,-9.210534096E-3,1.242944791E0
1.689887625E0,6.804879210E-1,-9.601484782E-1,1.175635332E-1,1.182696113E0
1.699918625E0,7.169597094E-1,-9.654238361E-1,7.942916214E-2,1.205148705E0
1.709949625E0,8.067045294E-1,-9.245202237E-1,-1.059521323E-1,1.231558239E0
1.719979625E0,7.965561019E-1,-7.227980080E-1,-3.134119284E-1,1.120341743E0
1.730010625E0,7.584887546E-1,-6.031113508E-1,-5.950670439E-1,1.137168976E0
1.740040625E0,5.881880870E-1,-5.754470041E-1,-1.044077073E0,1.329361281E0
1.750071625E0,2.627069208E-1,-4.756999370E-1,-1.650546772E0,1.737702507E0
1.760102625E0,-1.259158422E-1,-3.639453202E-1,-2.134390419E0,2.168855333E0
1.770132625E0,-4.191085740E-1,-3.094282204E-1,-2.451184376E0,2.505933492E0
1.780163625E0,-6.136677678E-1,-2.941017911E-1,-2.651654996E0,2.737582548E0
1.790193625E0,-7.196883857E-1,-2.460827020E-1,-2.676021513E0,2.782013516E0
1.800224625E0,-6.313389306E-1,-2.223026606E-1,-2.417114990E0,2.508077390E0
1.810255625E0,-4.405172039E-1,-1.913822919E-1,-2.126468611E0,2.180034711E0
1.820285625E0,-2.701911924E-1,-2.274333000E-1,-1.952585866E0,1.984268316E0
1.830316625E0,-1.933596375E-1,-3.028173584E-1,-1.743676545E0,1.780307332E0
1.840346625E0,-2.503601412E-1,-3.888912964E-1,-1.558364248E0,1.625550913E0
1.850377625E0,-3.038469251E-1,-4.543780652E-1,-1.566718749E0,1.659334210E0
1.860408625E0,-2.427095346E-1,-4.593628165E-1,-1.870918390E0,1.941715153E0
1.870438625E0,-2.940392259E-1,-4.715756035E-1,-2.339059923E0,2.404172195E0
1.880469625E0,-4.155787195E-1,-3.733251312E-1,-2.836646866E0,2.891131745E0
1.890499625E0,-5.262221095E-1,-1.637588757E-1,-3.047074708E0,3.096512709E0
1.900530625E0,-6.074264498E-1,5.194315553E-2,-3.015951734E0,3.076951388E0
1.910561625E0,-4.521098571E-1,2.524146518E-1,-2.842850177E0,2.889621706E0
1.920591625E0,-1.811882196E-1,4.070311135E-1,-2.383870645E0,2.425147985E0
1.930622625E0,6.702111928E-2,3.824254453E-1,-1.886273763E0,1.925816647E0
1.940652625E0,1.218898241E-1,3.090382111E-1,-1.484201088E0,1.520925578E0
1.950683625E0,-1.587600728E-1,3.787034002E-1,-1.332300366E0,1.394146796E0
1.960714625E0,-5.318692773E-1,3.792621017E-1,-1.413780146E0,1.557401352E0
1.970744625E0,-7.686192019E-1,4.023653278E-1,-1.525548504E0,1.754984778E0
1.980775625E0,-9.274725560E-1,5.652345496E-1,-1.546026623E0,1.889416247E0
1.990805625E0,-9.839340743E-1,6.840520182E-1,-1.336172976E0,1.794829142E0
2.000836625E0,-1.127446162E0,7.201492193E-1,-9.761365199E-1,1.656077369E0
2.010867625E0,-1.282509278E0,7.824179730E-1,-5.762255609E-1,1.609050599E0
2.020897625E0,-1.304846957E0,8.960486689E-1,-2.110149032E-1,1.596889504E0
2.030928625E0,-1.263335673E0,1.051126184E0,8.304917336E-2,1.645533482E0
2.040958625E0,-1.240472183E0,1.197136129E0,2.908755898E-1,1.748289094E0
2.050989625E0,-1.265179300E0,1.231768602E0,4.746243417E-1,1.828442183E0
2.061020625E0,-1.019045435E0,1.247805468E0,7.124516523E-1,1.761550295E0
2.071050625E0,-5.143871989E-1,1.272123161E0,9.145045280E-1,1.649002747E0
2.081081625E0,1.364471527E-2,1.281179329E0,1.128740662E0,1.707531005E0
2.091111625E0,3.805484160E-1,1.398565399E0,1.138272793E0,1.842950684E0
2.101142625E0,3.239281092E-1,1.493637617E0,9.059120446E-1,1.776670871E0
2.111173625E0,4.414913683E-2,1.507929089E0,5.832901669E-1,1.617413584E0
2.121203625E0,-3.428071971E-1,1.473393095E0,2.498497707E-1,1.533241303E0
2.131234625E0,-6.165573887E-1,1.360878340E0,1.554885739E-1,1.502101716E0
2.141264625E0,-8.939071262E-1,1.409867190E0,4.423787016E-1,1.726989970E0
2.151295625E0,-1.347094406E0,1.651641663E0,6.013317508E-1,2.214539093E0
2.161326625E0,-1.818024477E0,1.829778257E0,4.154967123E-1,2.612649802E0
2.171356625E0,-2.058762970E0,1.998617779E0,1.064508998E-1,2.871290613E0
2.181387625E0,-1.810212743E0,2.054835541E0,-3.569450337E-1,2.761635210E0
2.191417625E0,-1.021291131E0,1.678811043E0,-2.145173854E-1,1.976729572E0
2.201448625E0,3.300643601E-1,1.136270999E0,1.613752583E0,2.001062633E0
2.211479625E0,1.713327449E0,5.252188370E-1,4.259631114E0,4.621233926E0
2.221509625E0,2.294955837E0,-9.667844832E-2,6.410709486E0,6.809799199E0
2.231540625E0,2.361225987E0,-5.954555914E-1,7.255453808E0,7.653206222E0
2.241571625E0,2.033090623E0,-9.280525267E-1,6.734734111E0,7.095870808E0
2.251601625E0,1.638144389E0,-1.015061727E0,5.341255497E0,5.678281222E0
2.261632625E0,1.334137122E0,-9.223044214E-1,3.804937007E0,4.136195466E0
2.271662625E0,9.931357645E-1,-8.362991881E-1,2.498299486E0,2.815531087E0
2.281693625E0,6.619373370E-1,-8.134093854E-1,1.331280026E0,1.694727817E0
2.291724833E0,3.287894843E-1,-7.465765876E-1,4.003594404E-1,9.087171219E-1
2.301754833E0,-3.524043784E-4,-6.898314062E-1,-2.728071088E-1,7.418161576E-1
2.311785833E0,-3.275533098E-1,-7.447317910E-1,-7.288981158E-1,1.092341098E0
2.321815833E0,-5.968972955E-1,-8.061094290E-1,-1.018546375E0,1.429522826E0
2.331846833E0,-7.258353442E-1,-8.659659138E-1,-1.182365477E0,1.635457744E0
2.341877833E0,-5.941843702E-1,-9.222854179E-1,-1.040031384E0,1.511731040E0
2.351907833E0,-2.945891931E-1,-9.262998238E-1,-6.552027333E-1,1.172222154E0
2.361938833E0,-1.217938110E-1,-1.063794761E0,-4.293797565E-1,1.153629057E0
2.371968833E0,6.188605338E-2,-1.208996621E0,-2.230274230E-1,1.230952454E0
2.381999833E0,2.665708340E-1,-1.271233215E0,5.897033930E-2,1.300219749E0
2.392030833E0,5.039410750E-1,-1.307072554E0,2.104465538E-1,1.416574396E0
2.402060833E0,6.224239732E-1,-1.394512401E0,2.519898516E-1,1.547764622E0
2.412091833E0,6.537450224E-1,-1.499748250E0,1.988246280E-1,1.648077243E0
2.422121833E0,5.851424186E-1,-1.553121342E0,8.815554678E-2,1.662031574E0
2.432152833E0,4.445776932E-1,-1.613667506E0,-1.536858773E-1,1.680830596E0
2.442183833E0,3.164238657E-1,-1.718929959E0,-3.887573951E-1,1.790524107E0
2.452213833E0,1.691424803E-1,-1.700194895E0,-6.234400731E-1,1.818776893E0
2.462244833E0,1.406810850E-2,-1.597880901E0,-9.674966741E-1,1.868012607E0
2.472274833E0,-7.503571048E-2,-1.519148726E0,-1.290195735E0,1.994504511E0
2.482305833E0,-8.202978440E-2,-1.457298633E0,-1.552455636E0,2.130860553E0
2.492336833E0,-1.329536241E-1,-1.308495474E0,-1.640366769E0,2.102531857E0
2.502366833E0,-1.509083768E-1,-1.111918515E0,-1.749629011E0,2.078542229E0
2.512397833E0,-1.370023824E-1,-1.001166111E0,-1.868997579E0,2.124677666E0
2.522427833E0,-2.259439411E-1,-8.488683629E-1,-1.862349880E0,2.059120015E0
2.532458833E0,-3.622232421E-1,-6.923857623E-1,-1.840159112E0,1.999197158E0
2.542489833E0,-3.547893845E-1,-5.627582538E-1,-1.820318339E0,1.938074100E0
2.552519833E0,-4.886097852E-1,-4.494339520E-1,-1.924841997E0,2.036110781E0
2.562550833E0,-7.539684183E-1,-2.878920481E-1,-2.070677403E0,2.222398505E0
2.572580833E0,-1.007988935E0,-4.999223202E-2,-2.169706432E0,2.392941060E0
2.582611833E0,-1.145477806E0,1.833242440E-1,-2.045833753E0,2.351842453E0
2.592642833E0,-1.163613456E0,3.773541552E-1,-1.818410978E0,2.191577267E0
2.602672833E0,-1.129057216E0,5.540757233E-1,-1.594726328E0,2.030990439E0
2.612703833E0,-8.876912436E-1,7.090807325E-1,-1.354702803E0,1.768052859E0
2.622733833E0,-5.847535788E-1,7.984978160E-1,-1.171863878E0,1.533884108E0
2.632764833E0,-4.197726350E-1,9.336366177E-1,-1.053068336E0,1.468618167E0
2.642795833E0,-3.158546758E-1,1.056906741E0,-1.098722811E0,1.556922558E0
2.652825833E0,-1.106710546E-1,1.106251979E0,-1.296601360E0,1.707986127E0
2.662856833E0,1.323025366E-1,1.220829339E0,-1.496742196E0,1.936017933E0
2.672886833E0,3.154083140E-2,1.379393840E0,-1.378083479E0,1.950086220E0
2.682917833E0,-4.278973411E-1,1.261871822E0,-1.229975261E0,1.813354839E0
2.692948833E0,-8.960416523E-1,1.007992443E0,-1.073894949E0,1.724003993E0
2.702978833E0,-1.025364667E0,8.546679237E-1,-4.437317473E-1,1.406672607E0
2.713009833E0,-7.224407431E-1,7.907432386E-1,5.834117889E-1,1.219657662E0
2.723039833E0,-1.413118534E-1,7.479223242E-1,1.261677110E0,1.473494477E0
2.733070833E0,3.869057281E-1,8.175848821E-1,1.743481248E0,1.964145602E0
2.743101833E0,9.649522582E-1,9.441297385E-1,2.204847028E0,2.585317049E0
2.753131833E0,1.331261608E0,8.401206359E-1,2.159345165E0,2.672233466E0
2.763162833E0,1.467487845E0,5.388022113E-1,1.785398768E0,2.373073357E0
2.773192833E0,1.294902451E0,3.035079145E-1,1.373554226E0,1.911946815E0
2.783223833E0,9.843435256E-1,2.522456673E-1,8.881768548E-1,1.349599266E0
2.793254833E0,7.110641080E-1,3.922610468E-1,5.614847302E-1,9.872922550E-1
2.803284833E0,3.557061549E-1,7.605602038E-1,6.903164327E-1,1.086975377E0
2.813315833E0,-1.865174085E-2,1.142660252E0,8.179892170E-1,1.405392008E0
2.823345833E0,-3.651172484E-1,1.376842700E0,5.434788144E-1,1.524590321E0
2.833376833E0,-8.042156620E-1,1.414316921E0,-1.622532177E-1,1.635047794E0
2.843407833E0,-9.302309069E-1,1.142314973E0,-1.067117441E0,1.819052685E0
2.853437833E0,-4.123091027E-1,7.004090193E-1,-1.391697552E0,1.611643157E0
2.863468833E0,8.134108472E-1,1.012837154E-1,-4.662850428E-1,9.430362339E-1
2.873498833E0,2.526659651E0,-3.429111314E-1,1.594673703E0,3.007421031E0
2.883529833E0,3.879565020E0,-5.938639793E-1,3.516361127E0,5.269582028E0
2.893560833E0,4.762628485E0,-8.970970747E-1,4.632778198E0,6.704479627E0
2.903590833E0,5.106309110E0,-1.112380738E0,4.833232445E0,7.118421138E0
2.913621833E0,4.845370679E0,-9.630370027E-1,4.500891325E0,6.683044217E0
2.923651833E0,4.296096397E0,-4.407704249E-1,3.559442827E0,5.596459243E0
2.933682833E0,3.809374459E0,4.139243960E-3,2.318602270E0,4.459514255E0
2.943713833E0,3.620082839E0,1.675008014E-1,1.320267965E0,3.856963025E0
2.953743833E0,3.560186008E0,1.654152457E-1,3.916734016E-1,3.585483882E0
2.963774833E0,3.432375522E0,-5.354470789E-2,-3.203280151E-1,3.447706310E0
2.973804833E0,3.286531638E0,-3.299659806E-1,-4.225192183E-1,3.329968505E0
2.983835833E0,3.134131563E0,-6.493642884E-1,-2.401124024E-1,3.209689798E0
2.993866833E0,2.835282125E0,-1.121619923E0,-3.357734352E-1,3.067507096E0
3.003896833E0,2.322550895E0,-1.552506799E0,-6.999561524E-1,2.880010180E0
3.013927833E0,1.753993080E0,-1.763960828E0,-1.326336790E0,2.819081200E0
3.023957833E0,1.181764968E0,-1.857729995E0,-1.916408558E0,2.918964017E0
3.033988833E0,7.114649346E-1,-1.897879609E0,-2.409245222E0,3.148426893E0
3.044019833E0,2.649671620E-1,-1.867661490E0,-2.758261431E0,3.341612360E0
3.054049833E0,-1.457231390E-1,-1.831122825E0,-2.966780743E0,3.489417431E0
3.064080833E0,-4.574665645E-1,-1.735840107E0,-3.061386353E0,3.548873474E0
3.074110833E0,-7.631610453E-1,-1.560480355E0,-2.969178101E0,3.439990162E0
3.084141833E0,-9.932770479E-1,-1.410726730E0,-2.836966124E0,3.320410515E0
3.094172833E0,-1.157829098E0,-1.286221090E0,-2.599331771E0,3.122732549E0
3.104202833E0,-1.276110377E0,-1.140513446E0,-2.163286774E0,2.758448528E0
3.114233833E0,-1.311536610E0,-9.935331559E-1,-1.711428566E0,2.374073324E0
3.124263833E0,-1.276754740E0,-7.805401397E-1,-1.478734526E0,2.103806402E0
3.134294833E0,-1.304914931E0,-6.278915584E-1,-1.456582350E0,2.053943263E0
3.144325833E0,-1.345072877E0,-4.985105100E-1,-1.533190815E0,2.099620882E0
3.154355833E0,-1.234824796E0,-2.705667481E-1,-1.694313181E0,2.113928995E0
3.164386833E0,-1.063647411E0,-5.698404014E-2,-1.806426525E0,2.097086022E0
3.174416833E0,-8.071965726E-1,1.996534708E-1,-1.772448939E0,1.957805674E0
3.184447833E0,-6.606501456E-1,4.937771890E-1,-1.599627464E0,1.799745135E0
3.194478833E0,-3.519580896E-1,8.123577636E-1,-1.300352933E0,1.573123449E0
3.204508833E0,-2.596985283E-1,1.098040149E0,-7.459830952E-1,1.352636785E0
3.214539833E0,-4.930528651E-1,1.132611227E0,-3.112765253E-1,1.273892615E0
3.224569833E0,-7.599415684E-1,1.135921043E0,-4.877981186E-2,1.367555218E0
3.234600833E0,-9.032840136E-1,1.257066288E0,-1.889878571E-2,1.548061635E0
3.244631833E0,-8.414564323E-1,1.428111087E0,-2.193132716E-1,1.672019293E0
3.254661833E0,-6.629375763E-1,1.407355518E0,-2.728954017E-1,1.579432710E0
3.264692833E0,-1.379373375E0,7.003251117E-1,-1.257952434E-1,1.552079448E0
3.274722833E0,-1.893294661E0,4.307187688E-1,2.423431152E-1,1.956735423E0
3.284753833E0,-9.489004818E-1,1.364793051E0,1.262895670E0,2.087576985E0
3.294785250E0,-2.003123058E-1,1.881710888E0,1.711568314E0,2.551553836E0
3.304815250E0,-1.126565498E-1,1.671165516E0,1.644612433E0,2.347389131E0
3.314846250E0,1.903683847E-1,1.174434898E0,1.387955918E0,1.828102591E0
3.324876250E0,1.221915751E0,-2.239539143E-1,5.342653567E-1,1.352284338E0
3.334907250E0,4.572208352E-1,1.225029394E0,1.146960586E-1,1.312594032E0
3.344938250E0,-2.294124363E-1,1.724219935E0,4.045396149E-2,1.739885333E0
3.354968250E0,2.767761987E-1,7.994471115E-1,-4.096892577E-1,9.399819340E-1
3.364999250E0,6.114823709E-1,5.626652831E-1,-7.985846472E-1,1.152493102E0
3.375029250E0,6.180104949E-1,1.393050013E0,-3.326007360E-1,1.559855301E0
3.385060250E0,4.905323497E-1,1.969998874E0,6.169660360E-1,2.121830493E0
3.395091250E0,5.450298614E-1,1.809646586E0,1.172057421E0,2.223869806E0
3.405121250E0,9.816076134E-1,1.254848732E0,1.881174991E0,2.465160885E0
3.415152250E0,9.605592450E-1,7.571208715E-1,2.822314171E0,3.075932924E0
3.425182250E0,7.932120062E-1,5.337923169E-1,3.030150527E0,3.177409596E0
3.435213250E0,7.589172824E-1,3.677080035E-2,2.847577651E0,2.947203082E0
3.445244250E0,5.059382281E-1,7.511742532E-2,2.392334490E0,2.446401527E0
3.455274250E0,-1.415486656E-2,3.867365974E-1,1.702615643E0,1.746042835E0
3.465305250E0,1.047615661E-1,2.709044248E-1,9.318210572E-1,9.760403044E-1
3.475335250E0,2.141540101E0,-4.382564145E-1,1.115286219E-1,2.188767079E0
3.485366250E0,1.068554906E0,6.425633919E-1,5.563456124E-1,1.365363593E0
3.495397250E0,-2.413040650E0,2.803817673E0,1.045496192E0,3.844115114E0
3.505427250E0,-5.334218958E0,4.487504125E0,-3.198450351E-1,6.978100458E0
3.515458250E0,-5.047034715E0,4.404744388E0,-2.758238627E0,7.244460841E0
3.525488250E0,-1.412847515E0,2.278659940E0,-3.460006832E0,4.377222464E0
3.535519250E0,1.432126662E0,1.394669107E0,-9.759669507E-1,2.224544938E0
3.545550250E0,2.869771342E0,1.158921651E0,2.605812240E0,4.045855210E0
3.555580250E0,3.288678151E0,4.655243200E-1,5.504443100E0,6.428919871E0
3.565611250E0,3.087086913E0,-2.210177350E-1,6.773414027E0,7.447019003E0
3.575641250E0,2.538639134E0,-7.987243956E-1,6.204451293E0,6.751138064E0
3.585672250E0,1.754558360E0,-1.448664635E0,4.591595088E0,5.124436527E0
3.595702250E0,7.423689312E-1,-1.814074098E0,2.790529876E0,3.410136867E0
3.605733250E0,-4.563441914E-1,-1.739443746E0,7.928847814E-1,1.965344968E0
3.615764250E0,-7.177122460E-1,-1.653532360E0,-9.232706738E-1,2.025267605E0
3.625794250E0,-1.885585253E-1,-1.526444297E0,-1.726879833E0,2.312509561E0
3.635825250E0,1.619301590E-1,-1.282115468E0,-2.102722483E0,2.468093047E0
3.645856250E0,6.814885989E-2,-1.345643712E0,-2.169507042E0,2.553852398E0
3.655886250E0,3.805251002E-2,-1.657662833E0,-1.770662030E0,2.425806688E0
3.665917250E0,1.597079247E-1,-2.014829476E0,-7.968047547E-1,2.172542809E0
3.675947250E0,2.520679119E-1,-2.291498086E0,1.698405647E-1,2.311568197E0
3.685978250E0,4.476563984E-1,-2.390628857E0,9.184929138E-1,2.599833036E0
3.696008250E0,7.304830036E-1,-2.326210082E0,1.214038675E0,2.723737996E0
3.706039250E0,9.024436225E-1,-2.368602396E0,9.924335870E-1,2.722059188E0
3.716070250E0,1.036585328E0,-2.261940411E0,6.575129682E-1,2.573559183E0
3.726100250E0,1.250869848E0,-2.167443559E0,1.794457859E-1,2.508921631E0
3.736131250E0,1.056101141E0,-2.212120380E0,-1.543866661E-1,2.456147682E0
3.746161250E0,5.530495369E-1,-2.301728960E0,-2.342511535E-1,2.378800874E0
3.756192250E0,1.090027709E-1,-2.406544393E0,-4.013847497E-1,2.442221783E0
3.766223250E0,-2.077293527E-1,-2.344315985E0,-5.674822193E-1,2.420951258E0
3.776253250E0,-4.913429931E-1,-2.351688155E0,-5.624501055E-1,2.467428872E0
3.786284250E0,-6.531920220E-1,-2.333686332E0,-3.833966678E-1,2.453516806E0
3.796314250E0,-7.142658971E-1,-2.218078108E0,-1.250789595E-1,2.333600439E0
3.806345250E0,-8.509008551E-1,-2.057266814E0,2.014243001E-1,2.235386042E0
3.816376250E0,-7.816416089E-1,-1.879591565E0,3.435946709E-1,2.064433422E0
3.826406250E0,-6.971297546E-1,-1.701712832E0,2.050975209E-1,1.850373328E0
3.836437250E0,-6.469498269E-1,-1.423460212E0,-1.165969884E-1,1.567921526E0
3.846467250E0,-5.332483797E-1,-1.274697105E0,-5.434095249E-1,1.484756026E0
3.856498250E0,-5.958109559E-1,-1.006422173E0,-6.947679180E-1,1.360359786E0
3.866529250E0,-7.484580754E-1,-7.253143573E-1,-7.684922442E-1,1.294932715E0
3.876559250E0,-8.740263006E-1,-6.153960586E-1,-8.504792708E-1,1.365997538E0
3.886590250E0,-9.621208902E-1,-5.190000308E-1,-7.947234383E-1,1.351526168E0
3.896620250E0,-1.001494286E0,-3.477397621E-1,-6.095541054E-1,1.222894090E0
3.906651250E0,-1.022224566E0,-2.695279902E-1,-5.523586884E-1,1.192765074E0
3.916682250E0,-1.188745666E0,-3.531215394E-1,-6.119646201E-1,1.382863615E0
3.926712250E0,-1.266134735E0,-3.189884180E-1,-4.976074076E-1,1.397305947E0
3.936743250E0,-1.190880485E0,-2.472588694E-1,-2.269479811E-1,1.237270651E0
3.946773250E0,-9.837985651E-1,-1.977347070E-1,9.350545675E-2,1.007820372E0
3.956804250E0,-8.528105557E-1,-5.790439188E-2,3.453842112E-1,9.219159484E-1
3.966835250E0,-6.434834513E-1,2.138794541E-2,2.634009853E-1,6.956353034E-1
3.976865250E0,-5.470358218E-1,1.350508010E-1,2.982167691E-2,5.642483865E-1
3.986896250E0,-4.850812098E-1,2.515156424E-1,-2.294061506E-1,5.926137700E-1
3.996926250E0,-4.731895812E-1,3.113876224E-1,-3.400588596E-1,6.606895331E-1
4.006957250E0,-3.904504564E-1,2.687105495E-1,-3.081967968E-1,5.653690687E-1
4.016988250E0,-1.748450504E-1,3.066823679E-1,2.502198994E-2,3.539081328E-1
4.027018250E0,2.104233111E-1,3.478432578E-1,6.277985877E-1,7.479331311E-1
4.037049250E0,2.037598242E-1,3.845421374E-1,1.056549476E0,1.142666844E0
4.047079250E0,3.929438554E-1,6.312788504E-1,1.247107895E0,1.451962797E0
4.057110250E0,5.550266267E-1,8.917647064E-1,1.223753824E0,1.612722006E0
4.067141250E0,3.537194172E-1,9.415783060E-1,9.018441367E-1,1.350929302E0
4.077171250E0,3.636544213E-1,1.025779966E0,7.101694840E-1,1.299542139E0
4.087202250E0,6.345955373E-1,1.207623110E0,6.456190006E-1,1.509267692E0
4.097232250E0,9.583402267E-1,1.338883746E0,7.556342170E-2,1.648252258E0
4.107263250E0,1.198335685E0,1.136318069E0,-5.038703603E-1,1.726589849E0
4.117294250E0,6.244143654E-1,1.452211556E0,-5.808980709E-1,1.684118247E0
4.127324250E0,-3.095929657E-1,1.741342337E0,-1.146786778E0,2.107899630E0
4.137355250E0,1.415320010E-1,1.249248269E0,-8.881153129E-1,1.539285988E0
4.147385250E0,2.424255610E-1,1.182284201E0,-2.765176056E-1,1.238155108E0
4.157416250E0,-2.956179741E-1,1.162141128E0,-7.335530841E-1,1.405724765E0
4.167447250E0,-7.305249573E-1,1.103809889E0,-1.549931539E0,2.038222451E0
4.177477250E0,-8.395315289E-1,1.458820664E0,-2.085585025E0,2.680043995E0
4.187508250E0,-9.757497266E-2,1.885199629E0,-2.305941879E0,2.980078265E0
4.197538250E0,1.353016612E0,2.396724579E0,-1.906953756E0,3.348345157E0
4.207569250E0,3.298572809E0,2.753439233E0,-9.325037196E-1,4.396768515E0
4.217600250E0,5.003775845E0,2.951276266E0,8.036851734E-2,5.809841943E0
4.227630250E0,5.503030998E0,2.663233652E0,8.049051949E-1,6.166363273E0
4.237661250E0,5.099570194E0,2.043679054E0,1.222184723E0,5.628141410E0
4.247691250E0,4.026016138E0,1.227377928E0,1.305859549E0,4.406873232E0
4.257722250E0,2.959713798E0,4.701886439E-1,1.161359940E0,3.213991294E0
4.267753250E0,2.385846566E0,-7.161845148E-2,1.270898462E0,2.704177497E0
4.277783250E0,2.091130671E0,-5.546522588E-1,1.339964896E0,2.544793220E0
4.287814250E0,2.080572499E0,-9.209329569E-1,1.069718868E0,2.514199255E0
4.297843708E0,2.242261607E0,-1.093985982E0,5.556685048E-1,2.556034024E0
4.307874708E0,2.153985023E0,-1.161467528E0,-5.126838684E-3,2.447178903E0
4.317904708E0,1.950956393E0,-1.187787015E0,-5.317405289E-1,2.345168828E0
4.327935708E0,1.803219327E0,-1.188246022E0,-1.014500102E0,2.385946145E0
4.337966708E0,1.717787559E0,-1.166334166E0,-1.536293640E0,2.582891332E0
4.347996708E0,1.251822798E0,-1.140118759E0,-1.779220015E0,2.456126007E0
4.358027708E0,7.495836644E-1,-1.356337100E0,-1.874491038E0,2.432127186E0
4.368057708E0,3.152241267E-1,-1.571787701E0,-1.749369102E0,2.372798997E0
4.378088708E0,1.041387646E-1,-1.649181447E0,-1.477315699E0,2.216552729E0
4.388119708E0,8.125612468E-2,-1.623173617E0,-1.289564528E0,2.074673907E0
4.398149708E0,2.568543696E-1,-1.583509029E0,-1.189117257E0,1.996866261E0
4.408180708E0,4.165895569E-1,-1.395107648E0,-1.172148930E0,1.869172363E0
4.418210708E0,9.311866343E-2,-1.148516530E0,-1.101763656E0,1.594253574E0
4.428241708E0,-2.897787984E-1,-1.133272839E0,-1.034509566E0,1.561566240E0
4.438272708E0,-5.666484064E-1,-1.020088286E0,-1.006473629E0,1.540993087E0
4.448302708E0,-8.220055964E-1,-8.090967715E-1,-1.093863190E0,1.589612363E0
4.458333708E0,-1.099287141E0,-7.134655595E-1,-1.204162728E0,1.779739643E0
4.468363708E0,-1.504193157E0,-7.242554265E-1,-1.288103017E0,2.108637559E0
4.478394708E0,-1.704898542E0,-7.471683258E-1,-1.296806159E0,2.268621995E0
4.488425708E0,-1.580649302E0,-7.767669314E-1,-1.112781857E0,2.083291276E0
4.498455708E0,-1.228243901E0,-7.213224632E-1,-8.224057652E-1,1.644761508E0
4.508486708E0,-5.955501701E-1,-5.291186374E-1,-5.946308416E-1,9.940987755E-1
4.518516708E0,1.706026031E-1,-2.023323727E-1,-3.624642205E-1,4.488027945E-1
4.528547708E0,5.087986860E-1,-3.782563806E-3,-2.871791263E-1,5.842621511E-1
4.538578708E0,4.362381019E-1,5.372304797E-2,-4.658419700E-1,6.404674765E-1
4.548608708E0,3.578525215E-1,1.388766342E-1,-6.229573855E-1,7.317247097E-1
4.558639708E0,1.802778447E-1,9.849868655E-2,-6.743886173E-1,7.049837584E-1
4.568669708E0,-2.071449235E-1,-7.667746246E-2,-2.917789847E-1,3.659555007E-1
4.578700708E0,-5.134032221E-1,-2.447205931E-1,4.078473848E-1,6.998646487E-1
4.588731708E0,-7.320101501E-1,-3.404406828E-1,7.477378446E-1,1.100386570E0
4.598761708E0,-1.013021195E0,-3.068431664E-1,6.093810278E-1,1.221355766E0
4.608792708E0,-1.149826891E0,-1.964851570E-1,2.913702643E-1,1.202333119E0
4.618822708E0,-1.207525169E0,9.311690927E-3,-7.122727275E-2,1.209659897E0
4.628853708E0,-1.299900213E0,2.692484933E-1,-3.792097691E-1,1.380592396E0
4.638884708E0,-1.308159990E0,3.605422407E-1,-6.117190370E-1,1.488446655E0
4.648914708E0,-1.452182904E0,3.421913391E-1,-6.275342935E-1,1.618557812E0
4.658945708E0,-1.547588706E0,2.860697633E-1,-5.029789522E-1,1.652227145E0
4.668975708E0,-1.532175738E0,2.852201629E-1,-3.875084299E-1,1.605950129E0
4.679006708E0,-1.681197438E0,1.826126379E-1,-2.404176271E-1,1.708090406E0
4.689037708E0,-1.872131102E0,4.655085325E-2,-6.359607160E-2,1.873789291E0
4.699067708E0,-1.992274134E0,4.361555099E-2,1.553431244E-1,1.998797146E0
4.709098708E0,-1.826854796E0,1.081571174E-1,1.708901399E-1,1.838015192E0
4.719128708E0,-1.455271258E0,2.571400791E-1,-2.534300208E-2,1.478031705E0
4.729159708E0,-1.079382415E0,4.541374522E-1,-3.251135226E-1,1.215321367E0
4.739190708E0,-8.635678245E-1,5.830054075E-1,-5.737698765E-1,1.189477433E0
4.749220708E0,-7.171137835E-1,7.055542767E-1,-7.528426100E-1,1.256515424E0
4.759251708E0,-9.252135573E-1,7.427560169E-1,-8.186634010E-1,1.441497968E0
4.769281708E0,-9.476924470E-1,6.386767477E-1,-7.295038873E-1,1.355804147E0
4.779312708E0,-8.766455609E-1,4.837752342E-1,-3.562995011E-1,1.062777141E0
4.789342708E0,-7.328784616E-1,4.673808110E-1,8.266954288E-2,8.731494232E-1
4.799373708E0,-7.873129696E-1,6.365179557E-1,4.557587390E-1,1.110285030E0
4.809404708E0,-1.135299338E0,9.383781248E-1,3.586101745E-1,1.515935140E0
4.819434708E0,-1.876415065E0,1.210378903E0,-1.198018473E-1,2.236135744E0
4.829465708E0,-2.893927360E0,1.426935797E0,-7.628776015E-1,3.315560822E0
4.839495708E0,-3.498893447E0,1.951017058E0,-1.340908783E0,4.224542493E0
4.849526708E0,-2.276265505E0,2.720411235E0,-1.187031117E0,3.740463181E0
4.859557708E0,9.916956684E-1,3.300932745E0,-2.408731252E-1,3.455088588E0
4.869587708E0,4.264950326E0,3.771262892E0,1.032728650E0,5.786082746E0
4.879618708E0,6.161007650E0,3.704422785E0,2.337148468E0,7.559300655E0
4.889648708E0,6.654789809E0,3.119025866E0,3.142914666E0,7.993276071E0
4.899679708E0,6.085146459E0,2.360221581E0,3.312541223E0,7.319329388E0
4.909710708E0,4.908660942E0,1.552156844E0,2.693959016E0,5.810469713E0
4.919740708E0,3.486087168E0,8.663386738E-1,1.683844618E0,3.967200416E0
4.929771708E0,2.300322120E0,3.026588988E-1,6.949238925E-1,2.421983377E0
4.939801708E0,1.345089396E0,-7.692596912E-3,-1.512477346E-1,1.353588023E0
4.949832708E0,9.852915055E-1,-2.520003766E-1,-6.896966279E-1,1.228814461E0
4.959863708E0,1.018380606E0,-5.254606193E-1,-7.735275739E-1,1.382589176E0
4.969893708E0,1.010899094E0,-8.031185782E-1,-5.169409338E-1,1.390735186E0
4.979924708E0,9.289907125E-1,-1.089319904E0,-3.002659258E-1,1.462805942E0
4.989954708E0,9.095269395E-1,-1.316202396E0,-1.031983861E-1,1.603208629E0
4.999985708E0,8.335439801E-1,-1.534850839E0,1.327832508E-1,1.751626118E0
5.010016708E0,7.098537344E-1,-1.638220257E0,3.968864867E-1,1.828982454E0
5.020046708E0,6.572741094E-1,-1.645805265E0,6.109562677E-1,1.874553756E0
5.030077708E0,6.402495025E-1,-1.647424359E0,7.407454517E-1,1.916410777E0
5.040107708E0,7.679604399E-1,-1.594207095E0,6.876834315E-1,1.898464643E0
5.050138708E0,7.607138394E-1,-1.532208483E0,5.028269246E-1,1.783026443E0
5.060169708E0,6.672275323E-1,-1.634401440E0,3.034488577E-1,1.791240312E0
5.070199708E0,6.163563175E-1,-1.728921096E0,1.163940901E-1,1.839187552E0
5.080230708E0,5.392639951E-1,-1.804407481E0,-1.550886244E-2,1.883330172E0
5.090260708E0,4.038673313E-1,-1.902068846E0,-2.065259957E-1,1.955409856E0
5.100291708E0,3.094432770E-1,-1.923114145E0,-3.587082615E-1,1.980604648E0
5.110322708E0,2.236687164E-1,-1.921148311E0,-4.553560120E-1,1.987004687E0
5.120352708E0,2.610150290E-1,-1.921890323E0,-4.969393632E-1,2.002183805E0
5.130383708E0,6.049944466E-1,-1.830547459E0,-6.103458184E-1,2.022237448E0
5.140413708E0,9.624693842E-1,-1.622717534E0,-7.038214543E-1,2.013684223E0
5.150444708E0,1.157784367E0,-1.539789398E0,-9.351928541E-1,2.141495203E0
5.160475708E0,1.032182813E0,-1.453317849E0,-1.343146074E0,2.231944333E0
5.170505708E0,6.420299797E-1,-1.356908957E0,-1.915215434E0,2.433403906E0
5.180536708E0,2.116097112E-1,-1.418787117E0,-2.332523906E0,2.738321260E0
5.190566708E0,-3.331182146E-1,-1.310604272E0,-2.105773853E0,2.502585627E0
5.200597708E0,-7.091707796E-1,-1.074560362E0,-1.441331057E0,1.932624739E0
5.210627708E0,-8.529753010E-1,-7.119961542E-1,-6.964688730E-1,1.311325390E0
5.220658708E0,-8.096674597E-1,-3.755473655E-1,-1.629151225E-1,9.072698365E-1
5.230689708E0,-5.313049114E-1,-9.217784643E-2,2.225304097E-2,5.397007153E-1
5.240719708E0,-3.158490479E-1,2.039801180E-1,-7.425437629E-2,3.832521650E-1
5.250750708E0,-3.859111167E-1,3.236790544E-1,-3.260828447E-1,6.000212845E-1
5.260780708E0,-5.861574952E-1,3.080120248E-1,-4.794547266E-1,8.175138234E-1
5.270811708E0,-6.488273679E-1,2.374858332E-1,-3.717820510E-1,7.846007696E-1
5.280842708E0,-5.238524888E-1,1.663877839E-1,-1.856157678E-1,5.801375164E-1
5.290872708E0,-3.952688545E-1,2.963380587E-1,2.956089109E-2,4.949015646E-1
5.300904333E0,-3.222014630E-1,3.962190270E-1,6.762129486E-2,5.151465225E-1
5.310934333E0,-4.096373637E-1,4.952369463E-1,-7.059401929E-2,6.465647054E-1
5.320965333E0,-3.340907528E-1,6.516546428E-1,-3.692820740E-1,8.201461179E-1
5.330996333E0,-3.340046525E-2,9.189694619E-1,-7.460149625E-1,1.184127859E0
5.341026333E0,-7.331677526E-3,1.063490998E0,-1.057954562E0,1.500111566E0
5.351057333E0,-2.111461732E-1,9.652630377E-1,-1.230621086E0,1.578209015E0
5.361087333E0,-5.721564835E-1,8.303484768E-1,-1.276073540E0,1.626408717E0
5.371118333E0,-7.337368329E-1,8.125337648E-1,-1.372755789E0,1.755858569E0
5.381149333E0,-5.131323498E-1,1.040345380E0,-1.338601325E0,1.771292417E0
5.391179333E0,-1.801458438E-1,1.216150689E0,-1.675937429E0,2.078519013E0
5.401210333E0,-2.549361174E-1,7.898003751E-1,-2.391517341E0,2.531428895E0
5.411240333E0,-6.032459830E-1,5.360142589E-1,-2.516065081E0,2.642309690E0
5.421271333E0,-8.196626902E-1,3.988432574E-1,-1.993240679E0,2.191787233E0
5.431302333E0,-8.226259129E-1,3.625840884E-1,-1.351907834E0,1.623525610E0
5.441332333E0,-5.628069319E-1,4.801441133E-1,-7.742143294E-1,1.070839783E0
5.451363333E0,-1.753601901E-1,6.202755600E-1,-1.840472522E-1,6.703479378E-1
5.461393333E0,1.879935381E-1,7.097753817E-1,3.392607147E-1,8.088389798E-1
5.471424333E0,3.477527721E-1,7.248185134E-1,4.989891046E-1,9.461944802E-1
5.481455333E0,6.381676014E-1,6.792230952E-1,3.712800676E-1,1.003220210E0
5.491485333E0,1.048985226E0,8.246714151E-1,4.143120664E-1,1.397178383E0
5.501516333E0,1.459193862E0,9.818182594E-1,6.864566857E-1,1.887971558E0
5.511546333E0,2.063065059E0,9.830134302E-1,8.626180905E-1,2.442675339E0
5.521577333E0,2.750867043E0,1.123324386E0,1.180868005E0,3.197432784E0
5.531607333E0,3.049462711E0,1.157921192E0,1.549181195E0,3.611089405E0
5.541638333E0,2.703203757E0,9.288828313E-1,1.300306156E0,3.140211770E0
5.551669333E0,1.796546046E0,6.475966752E-1,4.961298162E-1,1.973095016E0
5.561699333E0,8.901679780E-1,4.396731949E-1,-2.975440469E-1,1.036457431E0
5.571730333E0,7.941492417E-1,3.747843039E-1,-4.789732084E-1,1.000275775E0
5.581760333E0,1.802597914E0,4.143524122E-1,1.362904108E-1,1.854621858E0
5.591791333E0,2.887229374E0,4.078193182E-1,1.074510076E0,3.107568496E0
5.601822333E0,3.859614905E0,4.942516905E-1,1.858212975E0,4.312060692E0
5.611852333E0,4.839365004E0,5.988174480E-1,2.334237725E0,5.406172559E0
5.621883333E0,5.095085964E0,5.986759454E-1,2.366138964E0,5.649506834E0
5.631913333E0,4.541606657E0,3.764267868E-1,2.107767753E0,5.021013150E0
5.641944333E0,3.870903540E0,7.293465972E-2,1.573457081E0,4.179112449E0
5.651975333E0,3.427630799E0,-2.039403570E-1,1.099819749E0,3.605530203E0
5.662005333E0,3.123808889E0,-4.267596191E-1,7.981034213E-1,3.252272254E0
5.672036333E0,2.944401695E0,-6.163941783E-1,5.346077111E-1,3.055363894E0
5.682066333E0,2.849498169E0,-7.961405110E-1,2.315061781E-1,2.967671585E0
5.692097333E0,2.822317971E0,-9.833818048E-1,-5.640399635E-2,2.989264109E0
5.702128333E0,2.672490964E0,-1.239065927E0,-2.635421956E-1,2.957523764E0
5.712158333E0,2.380061623E0,-1.517342522E0,-5.025512284E-1,2.866980885E0
5.722189333E0,2.036210113E0,-1.774035873E0,-8.090599340E-1,2.819207846E0
5.732219333E0,1.649375867E0,-1.936224772E0,-1.186601492E0,2.806676009E0
5.742250333E0,1.157577960E0,-2.025487781E0,-1.570356887E0,2.812224785E0
5.752280333E0,6.677080272E-1,-2.123530970E0,-1.822128345E0,2.876694196E0
5.762311333E0,3.157166085E-1,-2.221544922E0,-2.000198573E0,3.005949625E0
5.772342333E0,2.241566665E-1,-2.245037865E0,-2.015498398E0,3.025338827E0
5.782372333E0,2.592284122E-1,-2.218143012E0,-1.908059611E0,2.937354127E0
5.792403333E0,3.559907681E-1,-2.206189549E0,-1.719605605E0,2.819759775E0
5.802433333E0,5.064060053E-1,-2.140520639E0,-1.353285438E0,2.582567933E0
5.812464333E0,4.280442524E-1,-2.093269290E0,-1.101147067E0,2.403647866E0
5.822495333E0,7.048204511E-2,-2.082899253E0,-1.072786025E0,2.343993786E0
5.832525333E0,-3.001913738E-1,-2.015895424E0,-1.122643186E0,2.326859889E0
5.842556333E0,-7.926412448E-1,-1.978273269E0,-1.345013089E0,2.520100292E0
5.852586333E0,-1.365313014E0,-1.892945436E0,-1.708818954E0,2.892643128E0
5.862617333E0,-1.807806467E0,-1.693333188E0,-1.901078328E0,3.122441403E0
5.872648333E0,-1.964643994E0,-1.455643871E0,-1.873007015E0,3.080077983E0
5.882678333E0,-1.875822596E0,-1.207688014E0,-1.580866672E0,2.734293361E0
5.892709333E0,-1.802280849E0,-9.605741554E-1,-1.121320838E0,2.329866817E0
5.902739333E0,-1.661260333E0,-8.342234266E-1,-6.625883514E-1,1.973509043E0
5.912770333E0,-1.661034484E0,-5.904816574E-1,-2.182999492E-2,1.763003316E0
5.922800333E0,-1.664164352E0,-2.432932878E-1,4.592204368E-1,1.743421356E0
5.932831333E0,-1.637544172E0,-1.500506634E-1,5.429198205E-1,1.731712461E0
5.942862333E0,-1.704547270E0,-9.437756896E-2,4.979664266E-1,1.778302304E0
5.952892333E0,-1.904097684E0,1.001604652E-1,2.491776332E-1,1.922942953E0
5.962923333E0,-1.913409082E0,3.519129199E-1,2.816340655E-2,1.945705578E0
5.972953333E0,-1.401815427E0,6.547864115E-1,-6.544496119E-2,1.548584767E0
5.982984333E0,-6.913146986E-1,1.146519122E0,-2.412795067E-1,1.360381531E0
5.993015333E0,-3.885898724E-1,1.541147121E0,-4.329237539E-1,1.647288534E0
6.003045333E0,-4.650169279E-1,1.606286858E0,-4.381748459E-1,1.728697605E0
6.013076333E0,-6.038137476E-1,1.544934947E0,-4.059523022E-1,1.707692099E0
6.023106333E0,-7.242758918E-1,1.405802205E0,-2.416081202E-1,1.599759323E0
6.033137333E0,-8.850643820E-1,1.289451385E0,-4.253557026E-3,1.563982713E0
6.043168333E0,-1.029450701E0,1.216885684E0,5.071874857E-3,1.593927614E0
6.053198333E0,-1.210107446E0,1.141472390E0,-1.331761837E-1,1.668848448E0
6.063229333E0,-1.233148399E0,1.058057765E0,-2.130789703E-1,1.638762904E0
6.073259333E0,-1.355052174E0,9.236542511E-1,-3.240947914E-1,1.671628249E0
6.083290333E0,-1.610645957E0,9.613471574E-1,-1.647850621E-1,1.882955887E0
6.093321333E0,-1.436907492E0,1.034867123E0,-2.087695724E-1,1.783041738E0
6.103351333E0,-1.357522915E0,1.075337457E0,-5.140260968E-1,1.806499914E0
6.113382333E0,-1.342783254E0,1.146417965E0,-6.856415838E-1,1.894055278E0
6.123412333E0,-1.176781532E0,1.184495618E0,-7.152425283E-1,1.816429607E0
6.133443333E0,-1.034267930E0,1.082139523E0,-6.392401269E-1,1.627686714E0
6.143473333E0,-1.084250368E0,1.008707850E0,-4.775362551E-1,1.555998477E0
6.153504333E0,-1.184568416E0,9.754225749E-1,-2.452477196E-1,1.553962025E0
6.163535333E0,-1.023267271E0,9.602543128E-1,6.701669276E-2,1.404868496E0
6.173565333E0,-4.622343841E-1,8.236838204E-1,9.740443861E-1,1.356789640E0
6.183596333E0,-2.556269659E-1,1.086395127E0,1.421034202E0,1.806913866E0
6.193626333E0,-4.907734743E-1,1.242366681E0,7.380343902E-1,1.526115439E0
6.203657333E0,1.307661076E-1,1.397757606E0,9.326534083E-1,1.685428278E0
6.213688333E0,-3.692566386E-1,1.743964813E0,8.013606128E-1,1.954467335E0
6.223718333E0,-9.168844910E-1,1.855971737E0,-9.226994008E-2,2.072153952E0
6.233749333E0,-1.628099750E0,1.983494833E0,-8.756760925E-1,2.711414606E0
6.243779333E0,-1.820665810E0,2.197664309E0,-1.301774392E0,3.136744964E0
6.253810333E0,-9.410910867E-1,2.411898689E0,-8.301134187E-1,2.718822540E0
6.263841333E0,7.470737471E-1,2.578780562E0,5.311271560E-1,2.736845708E0
6.273871333E0,2.598889137E0,2.544159783E0,2.182001372E0,4.241238467E0
6.283902333E0,4.010486518E0,2.143678721E0,3.887735335E0,5.982795885E0
6.293931750E0,4.302695273E0,1.465144427E0,5.125006751E0,6.850221092E0
6.303962750E0,3.715928351E0,6.909122640E-1,5.472073499E0,6.650494090E0
6.313992750E0,2.886499934E0,4.575153887E-2,4.992569071E0,5.767124153E0
6.324023750E0,2.140069965E0,-3.671940333E-1,4.089794058E0,4.630458546E0
6.334054750E0,1.553615578E0,-5.490892178E-1,2.839495337E0,3.282979455E0
6.344084750E0,1.154303081E0,-7.322544175E-1,1.546400260E0,2.063968483E0
6.354115750E0,8.468130666E-1,-9.732883412E-1,5.258371800E-1,1.393157315E0
6.364145750E0,4.010995518E-1,-1.185831707E0,-1.505944544E-1,1.260855415E0
6.374176750E0,-1.652462612E-1,-1.477359261E0,-6.588110501E-1,1.626016209E0
6.384207750E0,-7.527470081E-1,-1.781409212E0,-9.473492154E-1,2.153489581E0
6.394237750E0,-1.281478852E0,-2.009493307E0,-1.030337285E0,2.596506561E0
6.404268750E0,-1.536664499E0,-2.094608887E0,-9.459555316E-1,2.764698183E0
6.414298750E0,-1.587487328E0,-2.072481269E0,-5.927743506E-1,2.677064821E0
6.424329750E0,-1.519528795E0,-2.042666901E0,-2.844670415E-1,2.561713748E0
6.434360750E0,-1.275853538E0,-1.857621236E0,2.348768055E-2,2.253688217E0
6.444390750E0,-7.516374989E-1,-1.572039716E0,3.167582899E-1,1.771045909E0
6.454421750E0,-2.018621103E-1,-1.299013921E0,5.666261870E-1,1.431520421E0
6.464451750E0,4.474391744E-2,-1.175821273E0,6.403765333E-1,1.339641665E0
6.474482750E0,2.757707700E-2,-1.125492534E0,6.685864252E-1,1.309389838E0
6.484512750E0,2.131646320E-2,-1.063072338E0,5.999371898E-1,1.220861097E0
6.494543750E0,1.036725953E-2,-9.970040631E-1,4.563465303E-1,1.096529406E0
6.504574750E0,-1.405492303E-1,-9.047250599E-1,3.733523208E-1,9.887737231E-1
6.514604750E0,-2.471138585E-1,-8.579028958E-1,3.289754623E-1,9.514659702E-1
6.524635750E0,-1.461796604E-1,-7.796800143E-1,3.351255637E-1,8.611495580E-1
6.534665750E0,-2.378545001E-2,-7.400569421E-1,4.438162395E-1,8.632629262E-1
6.544696750E0,1.014062145E-1,-7.645865965E-1,5.626629442E-1,9.547070088E-1
6.554727750E0,1.285747173E-1,-8.058854806E-1,5.549259084E-1,9.868767044E-1
6.564757750E0,1.634796712E-1,-8.570977342E-1,4.465407497E-1,9.801738468E-1
6.574788750E0,2.569208086E-1,-8.535262549E-1,3.185796976E-1,9.465771989E-1
6.584818750E0,4.379247312E-1,-8.491694945E-1,1.252701634E-1,9.636179297E-1
6.594849750E0,4.554144841E-1,-7.796490240E-1,-2.707336861E-1,9.426301935E-1
6.604879750E0,5.694135547E-2,-7.520776480E-1,-6.708756101E-1,1.009424188E0
6.614910750E0,-2.955749971E-1,-7.660799754E-1,-9.093782741E-1,1.225239549E0
6.624941750E0,-3.769119595E-1,-6.750054985E-1,-9.087508678E-1,1.193114910E0
6.634971750E0,-3.486582135E-1,-5.994740903E-1,-7.616097790E-1,1.030039412E0
6.645002750E0,-3.043621927E-1,-5.885099763E-1,-5.202776474E-1,8.424186411E-1
6.655032750E0,-3.329987852E-1,-6.355332845E-1,-4.060207146E-1,8.244049778E-1
6.665063750E0,-4.787612468E-1,-7.282607692E-1,-4.003196794E-1,9.590786856E-1
6.675094750E0,-7.243950288E-1,-7.536417782E-1,-4.436703515E-1,1.135591242E0
6.685124750E0,-7.294009763E-1,-6.591039956E-1,-5.817701831E-1,1.142322374E0
6.695155750E0,-7.558982188E-1,-5.689884621E-1,-8.163663223E-1,1.249633530E0
6.705185750E0,-8.791585480E-1,-4.442398703E-1,-9.104605937E-1,1.341345335E0
6.715216750E0,-8.533103465E-1,-2.883753204E-1,-7.925877428E-1,1.199789233E0
6.725246750E0,-6.759841762E-1,-8.437999964E-2,-5.664683121E-1,8.859802140E-1
6.735277750E0,-5.051751664E-1,1.124045348E-1,-3.565769514E-1,6.284774065E-1
6.745308750E0,-3.617781959E-1,3.223716170E-1,-2.849944603E-1,5.621643576E-1
6.755338750E0,-2.571468034E-1,5.012630868E-1,-3.132137078E-1,6.445866796E-1
6.765369750E0,-3.225297841E-1,6.520978618E-1,-2.961983103E-1,7.854874423E-1
6.775399750E0,-3.712233496E-1,7.707747048E-1,-2.536539692E-1,8.923232357E-1
6.785430750E0,-3.029404423E-1,8.327288783E-1,-2.436315492E-1,9.190030620E-1
6.795461750E0,-1.589919332E-1,9.262948537E-1,-2.312222958E-1,9.678658692E-1
6.805491750E0,6.161503494E-2,9.132924002E-1,-1.723592529E-1,9.314543107E-1
6.815522750E0,3.358677216E-1,8.866729510E-1,-8.289129853E-2,9.517704638E-1
6.825552750E0,7.386147264E-1,1.014247502E0,-1.206163645E-1,1.260475314E0
6.835583750E0,9.545256494E-1,1.089300023E0,-2.685035580E-1,1.473019999E0
6.845613750E0,8.624762955E-1,1.180770357E0,-4.980430251E-1,1.544710604E0
6.855644750E0,6.593552797E-1,1.186086645E0,-7.837257028E-1,1.567091858E0
6.865675750E0,4.826054987E-1,1.177127541E0,-9.588436720E-1,1.593084588E0
6.875705750E0,6.544659841E-1,1.157848687E0,-8.718207309E-1,1.590286355E0
6.885736750E0,9.148126763E-1,1.292833414E0,-5.553375524E-1,1.678302793E0
6.895766750E0,1.160996243E0,1.455324029E0,-4.124584991E-1,1.906830438E0
6.905797750E0,1.288336028E0,1.621956811E0,-6.235932702E-1,2.163197214E0
6.915828750E0,1.092122767E0,1.710305316E0,-1.002644580E0,2.263442635E0
6.925858750E0,6.292510360E-1,1.631573142E0,-1.459571154E0,2.277791855E0
6.935889750E0,8.610960603E-2,1.378104529E0,-2.011345413E0,2.439692056E0
6.945919750E0,-2.187332278E-1,1.031437731E0,-2.282188734E0,2.513979602E0
6.955950750E0,8.494016290E-2,9.490112865E-1,-1.952370104E0,2.172460880E0
6.965980750E0,1.212057931E0,9.404538864E-1,-1.018104618E0,1.841215618E0
6.976011750E0,2.419607658E0,8.061655623E-1,1.596973997E-1,2.555368347E0
6.986042750E0,3.324608122E0,7.154407489E-1,1.358486536E0,3.662015879E0
6.996072750E0,3.837907702E0,5.177756238E-1,2.176385121E0,4.442328142E0
7.006103750E0,3.768279935E0,2.080819398E-1,2.441656339E0,4.494988035E0
7.016133750E0,3.397862039E0,-7.151261687E-2,2.410356193E0,4.166581029E0
7.026164750E0,2.943200676E0,-3.309494823E-1,1.924002337E0,3.531818621E0
7.036195750E0,2.361160206E0,-6.332400066E-1,1.399835999E0,2.817021698E0
7.046225750E0,1.757948283E0,-9.128445035E-1,8.144633460E-1,2.141732428E0
7.056256750E0,1.273960648E0,-1.034933782E0,2.493752691E-1,1.660196281E0
7.066286750E0,1.052563868E0,-1.098189545E0,-2.225049743E-1,1.537341679E0
7.076317750E0,9.765290143E-1,-1.124629485E0,-6.578836817E-1,1.628254075E0
7.086347750E0,8.750621349E-1,-1.084891807E0,-1.012908782E0,1.722993957E0
7.096378750E0,7.877091184E-1,-9.702852112E-1,-1.097604824E0,1.663332617E0
7.106409750E0,9.347012495E-1,-9.594865733E-1,-1.040151252E0,1.695935004E0
7.116439750E0,1.146632119E0,-9.814013529E-1,-7.879719508E-1,1.702590270E0
7.126470750E0,1.223951167E0,-1.037453347E0,-5.191549820E-1,1.686383053E0
7.136500750E0,1.304561321E0,-1.092106687E0,-2.632703000E-1,1.721594757E0
7.146531750E0,1.374693410E0,-1.138135968E0,-1.171679690E-1,1.788536773E0
7.156562750E0,1.326952794E0,-1.225011560E0,-5.447909296E-2,1.806771987E0
7.166592750E0,1.106659091E0,-1.335467802E0,-2.007103550E-1,1.745982028E0
7.176623750E0,6.814177014E-1,-1.443607963E0,-5.514491540E-1,1.688913912E0
7.186653750E0,2.230673303E-1,-1.579623554E0,-8.974870840E-1,1.830424178E0
7.196684750E0,-1.729811043E-1,-1.629169351E0,-1.134308089E0,1.992679121E0
7.206714750E0,-5.364802819E-1,-1.607490215E0,-1.303739056E0,2.138123338E0
7.216745750E0,-7.945100150E-1,-1.506609372E0,-1.448030212E0,2.235600470E0
7.226776750E0,-9.166061635E-1,-1.397093362E0,-1.539901080E0,2.272296648E0
7.236806750E0,-1.018213815E0,-1.306923450E0,-1.470541992E0,2.215243108E0
7.246837750E0,-9.121523394E-1,-1.118900383E0,-1.322897458E0,1.958064770E0
7.256867750E0,-7.414671443E-1,-9.586363882E-1,-1.148553953E0,1.669710584E0
7.266898750E0,-6.456515989E-1,-8.281470001E-1,-9.886238337E-1,1.442244960E0
7.276929750E0,-5.646088976E-1,-7.060822803E-1,-8.734342700E-1,1.257069138E0
7.286959750E0,-3.914455064E-1,-5.233456814E-1,-7.547343305E-1,9.983707710E-1
7.296991125E0,-3.248286170E-1,-2.970104885E-1,-7.550410169E-1,8.739655588E-1
7.307021125E0,-4.691183111E-1,-1.861759311E-1,-8.619848371E-1,9.988750304E-1
7.317052125E0,-6.197852710E-1,-1.103568399E-1,-9.656296581E-1,1.152715512E0
7.327082125E0,-7.619588578E-1,-4.226367474E-2,-1.063948835E0,1.309333664E0
7.337113125E0,-8.587755927E-1,-9.485353231E-3,-1.009884310E0,1.325689183E0
7.347144125E0,-9.620951624E-1,2.208493352E-3,-7.975964677E-1,1.249716810E0
7.357174125E0,-1.041231379E0,4.625907719E-2,-5.922074631E-1,1.198754506E0
7.367205125E0,-9.324382308E-1,1.382837266E-1,-4.946332213E-1,1.064530632E0
7.377235125E0,-7.698245323E-1,1.965635097E-1,-4.659690008E-1,9.210831306E-1
7.387266125E0,-7.117578802E-1,1.989608681E-1,-5.565277532E-1,9.251528777E-1
7.397296125E0,-7.547455864E-1,2.946762800E-1,-7.329131064E-1,1.092536787E0
7.407327125E0,-8.143515180E-1,3.111572421E-1,-8.403977939E-1,1.210890448E0
7.417358125E0,-8.400526620E-1,2.206446826E-1,-8.480649555E-1,1.213913802E0
7.427388125E0,-1.097716067E0,9.706494927E-2,-9.777468431E-1,1.473224714E0
7.437419125E0,-1.383385296E0,8.888527930E-2,-9.695151329E-1,1.691630889E0
7.447449125E0,-1.721117256E0,5.210336924E-2,-8.861104488E-1,1.936530686E0
7.457480125E0,-1.894926180E0,7.923561931E-3,-9.768989968E-1,2.131933315E0
7.467511125E0,-1.856393614E0,1.237434554E-1,-1.078830584E0,2.150670853E0
7.477541125E0,-1.693548658E0,3.907653290E-1,-1.132434933E0,2.074418828E0
7.487572125E0,-1.476541528E0,7.478524500E-1,-1.009234684E0,1.938559470E0
7.497602125E0,-1.144749754E0,8.923991293E-1,-9.798541796E-1,1.751268803E0
7.507633125E0,-6.248574382E-1,9.634995174E-1,-7.838327068E-1,1.390385504E0
7.517663125E0,-2.096043355E-1,1.018238811E0,-2.795220512E-1,1.076511417E0
7.527694125E0,1.526028268E-1,1.106379740E0,2.241880953E-1,1.139133028E0
7.537725125E0,3.720457605E-1,1.110244750E0,5.656912172E-1,1.300410706E0
7.547755125E0,3.538025207E-1,1.088087896E0,7.485278034E-1,1.367261996E0
7.557786125E0,2.000263770E-1,9.256072211E-1,7.489628363E-1,1.207354384E0
7.567816125E0,-2.802073449E-2,9.103506660E-1,6.150347006E-1,1.098995532E0
7.577847125E0,1.095177644E-1,1.129352281E0,5.452405804E-1,1.258855832E0
7.587877125E0,2.599704970E-1,1.306072680E0,6.587812293E-1,1.485733224E0
7.597908125E0,7.368507676E-2,1.593641084E0,6.067334086E-1,1.706823607E0
7.607939125E0,-5.671633268E-1,2.059083543E0,7.177106380E-2,2.136972242E0
7.617969125E0,-1.246018413E0,2.495782260E0,-6.200913727E-1,2.857622138E0
7.628000125E0,-1.519648810E0,2.762328170E0,-1.081795122E0,3.333177179E0
7.638030125E0,-1.101447833E0,2.962637406E0,-9.817755747E-1,3.309726727E0
7.648061125E0,3.488875705E-1,3.019848318E0,1.942912817E-2,3.039997351E0
7.658092125E0,2.628596501E0,3.048487980E0,1.764391476E0,4.394983027E0
7.668122125E0,4.564759292E0,3.042893364E0,3.621645507E0,6.573624845E0
7.678153125E0,5.477021998E0,2.563478984E0,4.917211325E0,7.794110705E0
7.688183125E0,5.199383919E0,1.778838776E0,5.151754839E0,7.532492181E0
7.698214125E0,4.086351217E0,1.031450595E0,4.507533177E0,6.170900416E0
7.708244125E0,3.022592709E0,3.853303421E-1,3.308898407E0,4.498150156E0
7.718275125E0,2.429444867E0,-2.189782262E-3,2.179043266E0,3.263500684E0
7.728306125E0,2.162941642E0,-3.068180233E-1,1.297238122E0,2.540724422E0
7.738336125E0,2.113670225E0,-6.296761286E-1,5.303962541E-1,2.268350509E0
7.748367125E0,2.023810215E0,-9.853815526E-1,7.525308073E-2,2.252209497E0
7.758397125E0,2.003547859E0,-1.457162978E0,-1.220729059E-1,2.480409192E0
7.768428125E0,2.149389696E0,-1.964363912E0,-1.406196892E-1,2.915197342E0
7.778458125E0,2.383490869E0,-2.330883762E0,-6.269150734E-2,3.334363216E0
7.788489125E0,2.731722089E0,-2.540913994E0,6.129051447E-2,3.731260648E0
7.798520125E0,2.952460912E0,-2.706875516E0,3.503885508E-2,4.005674502E0
7.808550125E0,2.957622834E0,-2.901031142E0,-2.794472069E-1,4.152301200E0
7.818581125E0,2.758750843E0,-2.986208702E0,-7.133877915E-1,4.127598668E0
7.828611125E0,2.338164715E0,-3.009559557E0,-1.201783496E0,3.996091407E0
7.838642125E0,1.875685917E0,-3.042567090E0,-1.741890805E0,3.976128234E0
7.848672125E0,1.450551239E0,-2.951839938E0,-2.091099388E0,3.897454883E0
7.858703125E0,1.116604547E0,-2.737066444E0,-2.124778181E0,3.640469853E0
7.868734125E0,9.549044028E-1,-2.543842864E0,-2.019065199E0,3.385203571E0
7.878764125E0,8.655878913E-1,-2.299498247E0,-1.825253974E0,3.060798369E0
7.888795125E0,7.893535016E-1,-2.068036800E0,-1.581998109E0,2.720767019E0
7.898825125E0,7.676484910E-1,-1.897266528E0,-1.331136185E0,2.441480704E0
7.908856125E0,7.371660787E-1,-1.656403928E0,-1.082824817E0,2.111775884E0
7.918886125E0,8.412051482E-1,-1.388465211E0,-7.410854673E-1,1.784564208E0
7.928917125E0,7.095862243E-1,-1.161477469E0,-3.657649738E-1,1.409370972E0
7.938948125E0,4.632680622E-1,-8.304145503E-1,-1.530824447E-1,9.631406220E-1
7.948978125E0,2.116097843E-1,-4.306772536E-1,-2.390195578E-1,5.360894950E-1
7.959009125E0,-2.317415651E-1,-7.156056404E-2,-5.776247996E-1,6.264786321E-1
7.969039125E0,-7.732123359E-1,2.343306756E-1,-1.011940191E0,1.294909700E0
7.979070125E0,-1.233949906E0,5.216371250E-1,-1.369160628E0,1.915551745E0
7.989101125E0,-1.538287248E0,7.665226096E-1,-1.575327020E0,2.331424412E0
7.999131125E0,-1.710842236E0,9.406714028E-1,-1.573559407E0,2.507575134E0
8.009162125E0,-1.676334455E0,1.056581928E0,-1.421504903E0,2.438675617E0
8.019192125E0,-1.613031913E0,1.126280739E0,-1.128891521E0,2.268209938E0
8.029223125E0,-1.441182538E0,1.228654960E0,-8.081565392E-1,2.059057335E0
8.039253125E0,-1.133592097E0,1.432238052E0,-4.935704899E-1,1.892075239E0
8.049284125E0,-6.683202307E-1,1.651238497E0,-1.621678483E-1,1.788725501E0
8.059315125E0,-3.889461140E-1,1.752580685E0,2.325437665E-2,1.795371522E0
8.069345125E0,-6.303368640E-1,1.669953096E0,-6.889423370E-2,1.786285061E0
8.079376125E0,-9.946770906E-1,1.576590019E0,-3.537653178E-1,1.897411000E0
8.089406125E0,-1.211688386E0,1.541380425E0,-5.710110140E-1,2.042081276E0
8.099437125E0,-1.149805988E0,1.615286892E0,-5.804987061E-1,2.065958446E0
8.109467125E0,-8.606946489E-1,1.681463340E0,-4.906644237E-1,1.951631579E0
8.119498125E0,-4.423741700E-1,1.748449042E0,-3.243228328E-1,1.832472172E0
8.129529125E0,-3.248274475E-2,1.848537002E0,-1.569755208E-1,1.855474465E0
8.139559125E0,2.177275068E-1,1.881370872E0,3.931316972E-2,1.894335544E0
8.149590125E0,3.853171858E-1,1.736948154E0,3.529344285E-1,1.813841485E0
8.159620125E0,3.313880235E-1,1.539956043E0,8.855420995E-1,1.807060444E0
8.169651125E0,5.037991704E-1,1.382517423E0,1.203097365E0,1.900687060E0
8.179682125E0,8.024619359E-1,1.252376529E0,1.208786121E0,1.916652294E0
8.189712125E0,1.136799880E0,1.185646935E0,1.172915792E0,2.018366685E0
8.199743125E0,1.484783763E0,1.079149257E0,1.175614867E0,2.179728482E0
8.209773125E0,1.601349907E0,9.122217751E-1,1.306894798E0,2.259301686E0
8.219804125E0,1.574036394E0,7.149308717E-1,1.207223160E0,2.108578782E0
8.229834125E0,1.418209266E0,6.147429246E-1,8.466838431E-1,1.762413094E0
8.239865125E0,1.254014773E0,5.012940770E-1,6.475627613E-1,1.497727055E0
8.249896125E0,1.208556618E0,3.999331784E-1,5.789866161E-1,1.398492455E0
8.259926125E0,1.256289778E0,3.413896859E-1,5.160799313E-1,1.400410447E0
8.269957125E0,1.231867712E0,3.449050319E-1,3.697937053E-1,1.331617410E0
8.279987125E0,1.040639787E0,3.619069809E-1,6.267571986E-2,1.103556104E0
8.290018125E0,6.670145474E-1,4.283442146E-1,-3.985608369E-1,8.872642861E-1
8.300048375E0,5.778095716E-1,5.964996117E-1,-7.697935420E-1,1.132368220E0
8.310079375E0,1.067659624E0,8.357928193E-1,-6.452864403E-1,1.501612900E0
8.320110375E0,2.031489509E0,1.035668192E0,2.292167008E-1,2.291745738E0
8.330140375E0,3.100480837E0,1.190057489E0,1.322727889E0,3.574748567E0
8.340171375E0,4.429949981E0,1.369319088E0,2.360543178E0,5.203042927E0
8.350201375E0,5.620958228E0,1.402589160E0,3.369439309E0,6.701906371E0
8.360232375E0,5.837250828E0,9.949072516E-1,3.995620556E0,7.143411041E0
8.370262375E0,4.896633219E0,2.866299266E-1,3.755766601E0,6.177779242E0
8.380293375E0,3.399139656E0,-4.212772697E-1,2.667558838E0,4.341370186E0
8.390324375E0,2.347748593E0,-9.186279845E-1,1.422284337E0,2.894597306E0
8.400354375E0,1.915195114E0,-1.175557564E0,4.100687420E-1,2.284308273E0
8.410385375E0,1.747918261E0,-1.262762353E0,-4.405187023E-1,2.200873403E0
8.420415375E0,1.604064477E0,-1.360234269E0,-1.121872523E0,2.383664840E0
8.430446375E0,1.550420951E0,-1.428230955E0,-1.590525103E0,2.640723176E0
8.440476375E0,1.477222875E0,-1.481517801E0,-1.863497688E0,2.801732687E0
8.450507375E0,1.309550019E0,-1.589372032E0,-2.102321657E0,2.942920498E0
8.460538375E0,1.263408763E0,-1.623273604E0,-2.395440823E0,3.157428643E0
8.470568375E0,1.174071933E0,-1.685550544E0,-2.547673960E0,3.272639324E0
8.480599375E0,1.019977335E0,-1.767185276E0,-2.493305087E0,3.221780225E0
8.490629375E0,9.501111478E-1,-1.754151247E0,-2.466376027E0,3.172186706E0
8.500660375E0,8.647594871E-1,-1.765716455E0,-2.392014062E0,3.096335713E0
8.510690375E0,7.840765357E-1,-1.782434814E0,-2.081241859E0,2.850160970E0
8.520721375E0,7.470775478E-1,-1.748370690E0,-1.630563912E0,2.504728249E0
8.530752375E0,6.998854011E-1,-1.749998555E0,-1.270904016E0,2.273220521E0
8.540782375E0,5.373814841E-1,-1.693372364E0,-1.068410845E0,2.073111323E0
8.550813375E0,2.768962128E-1,-1.649381422E0,-1.071170731E0,1.986085930E0
8.560843375E0,-4.553241447E-2,-1.618731487E0,-1.192964725E0,2.011350209E0
8.570874375E0,-3.055272505E-1,-1.522098647E0,-1.246284023E0,1.990817685E0
8.580905375E0,-6.109311247E-1,-1.438172976E0,-1.215363362E0,1.979567238E0
8.590935375E0,-7.481910038E-1,-1.369226117E0,-1.205233645E0,1.971587705E0
8.600966375E0,-7.561150043E-1,-1.269286092E0,-1.272310272E0,1.949761655E0
8.610996375E0,-7.671355440E-1,-1.160851232E0,-1.207693276E0,1.842442828E0
8.621027375E0,-8.339630793E-1,-1.025658928E0,-1.044257167E0,1.684619745E0
8.631057375E0,-7.929784830E-1,-9.518723291E-1,-9.758979535E-1,1.577102603E0
8.641088375E0,-8.667554341E-1,-8.907256562E-1,-9.295038056E-1,1.551977610E0
8.651119375E0,-9.414324179E-1,-8.050399733E-1,-8.958226740E-1,1.528686567E0
8.661149375E0,-9.660914420E-1,-7.619044787E-1,-8.983919406E-1,1.523462893E0
8.671180375E0,-1.062189262E0,-6.905824810E-1,-7.490493751E-1,1.471810163E0
8.681210375E0,-1.021234779E0,-5.616958147E-1,-4.647992653E-1,1.254775286E0
8.691241375E0,-9.048643698E-1,-4.050459838E-1,-1.789131045E-1,1.007398469E0
8.701271375E0,-7.919964431E-1,-2.512566108E-1,4.569423616E-2,8.321515569E-1
8.711302375E0,-6.019813764E-1,-1.508862305E-1,2.041198665E-1,6.533093846E-1
8.721333375E0,-5.138809396E-1,-4.385762572E-2,2.511221248E-1,5.736370220E-1
8.731363375E0,-5.617218348E-1,7.603660762E-2,2.989909405E-1,6.408654835E-1
8.741394375E0,-6.407134791E-1,1.009410685E-1,2.335997736E-1,6.893995328E-1
8.751424375E0,-8.102651913E-1,1.312559581E-1,1.156813145E-1,8.289390649E-1
8.761455375E0,-1.002098011E0,2.195073992E-1,2.693344474E-2,1.026211154E0
8.771485375E0,-1.110812222E0,3.217366093E-1,-6.509412825E-2,1.158298530E0
8.781516375E0,-1.183217270E0,4.514144039E-1,-2.922906160E-1,1.299696840E0
8.791547375E0,-1.299523798E0,5.936344761E-1,-5.844713044E-1,1.543622590E0
8.801577375E0,-1.314812074E0,7.571021605E-1,-7.720195770E-1,1.702336248E0
8.811608375E0,-1.364316503E0,9.135204417E-1,-8.486216104E-1,1.848252622E0
8.821638375E0,-1.429353036E0,9.998253447E-1,-8.635472131E-1,1.946385011E0
8.831669375E0,-1.429983512E0,1.074981362E0,-8.118128031E-1,1.964555369E0
8.841699375E0,-1.426188961E0,1.113484692E0,-7.258920622E-1,1.949559539E0
8.851730375E0,-1.399472010E0,1.170679232E0,-6.423616630E-1,1.934331997E0
8.861761375E0,-1.264071545E0,1.235654077E0,-5.369158995E-1,1.847429715E0
8.871791375E0,-1.152799323E0,1.269591317E0,-4.130818123E-1,1.763928846E0
8.881822375E0,-1.085536609E0,1.235782716E0,-3.178686762E-1,1.675287780E0
8.891852375E0,-9.437631181E-1,1.176514753E0,-2.995861870E-1,1.537734590E0
8.901883375E0,-8.061171766E-1,1.143940499E0,-5.075704783E-1,1.488641179E0
8.911913375E0,-6.527989429E-1,1.079735733E0,-8.303426296E-1,1.510445164E0
8.921944375E0,-3.378882270E-1,9.471062636E-1,-1.234962351E0,1.592579900E0
8.931975375E0,1.350192261E-1,8.438397574E-1,-1.403658031E0,1.643335509E0
8.942005375E0,2.280384868E-1,7.174416661E-1,-1.418969550E0,1.606299686E0
8.952036375E0,-6.109457427E-1,5.431835300E-1,-1.325353873E0,1.557198105E0
8.962066375E0,-1.734813336E0,3.574215817E-1,-1.055448153E0,2.061867673E0
8.972097375E0,-2.292047579E0,3.513159192E-1,-4.251580667E-1,2.357469906E0
8.982127375E0,-1.663164625E0,6.329435527E-1,9.466507655E-1,2.015659143E0
8.992158375E0,1.528451939E-1,9.510162967E-1,2.784227162E0,2.946135526E0
9.002189375E0,2.501556970E0,1.180174525E0,4.164557142E0,4.999413503E0
9.012219375E0,4.378113245E0,1.405110480E0,4.960189530E0,6.763556107E0
9.022250375E0,5.503021057E0,1.547513570E0,5.036793902E0,7.618879958E0
9.032280375E0,5.712757174E0,1.555068757E0,4.260694138E0,7.294336701E0
9.042311375E0,5.335570250E0,1.548794110E0,2.999387741E0,6.313746899E0
9.052341375E0,4.728890343E0,1.587471102E0,1.738481294E0,5.282498044E0
9.062372375E0,4.089679452E0,1.510741600E0,7.240589601E-1,4.419511238E0
9.072403375E0,3.227099369E0,1.275236803E0,-1.670198679E-2,3.469968040E0
9.082433375E0,2.143112125E0,8.567755526E-1,-4.194383204E-1,2.345830862E0
9.092464375E0,1.208530305E0,3.827376866E-1,-5.658081615E-1,1.388226390E0
9.102494375E0,5.721838193E-1,6.795867920E-2,-6.087273091E-1,8.381895024E-1
9.112525375E0,2.375586310E-1,-1.728355086E-1,-7.206167042E-1,7.781996213E-1
9.122555375E0,2.352026416E-1,-3.007813579E-1,-8.997636974E-1,9.774274495E-1
9.132586375E0,1.460872744E-1,-2.880087000E-1,-8.306285584E-1,8.911982412E-1
9.142617375E0,1.543884203E-2,-3.199397600E-1,-5.975181967E-1,6.779585557E-1
9.152647375E0,1.833185430E-1,-3.132973230E-1,-3.241784066E-1,4.866749840E-1
9.162678375E0,4.359058338E-1,-2.161873502E-1,-1.058954144E-1,4.979605457E-1
9.172708375E0,5.016354083E-1,-4.032356858E-2,4.198534727E-2,5.050018241E-1
9.182739375E0,6.431577614E-1,1.090739608E-2,1.164420372E-1,6.537045398E-1
9.192769375E0,8.668048431E-1,8.006826282E-2,2.278887981E-1,8.998304657E-1
9.202800375E0,1.028414575E0,1.754901445E-1,3.745550931E-1,1.108478618E0
9.212831375E0,8.650389840E-1,1.281604421E-1,6.291732681E-1,1.077300582E0
9.222861375E0,5.636619410E-1,1.080623925E-2,8.898953515E-1,1.053444491E0
9.232892375E0,2.347013891E-1,-1.058462977E-1,1.096399713E0,1.126224005E0
9.242922375E0,1.023023003E-1,-1.302660245E-1,1.169562414E0,1.181232931E0
9.252953375E0,1.239815833E-1,-7.792759717E-2,1.090822638E0,1.100608092E0
9.262983375E0,1.468531135E-1,-6.464096904E-2,9.348680413E-1,9.485370559E-1
9.273014375E0,1.918810594E-1,-7.464497030E-2,7.374561006E-1,7.656576995E-1
9.283045375E0,2.550248489E-1,-1.128816676E-1,5.537985653E-1,6.200587031E-1
9.293075375E0,2.611783125E-1,-1.680764598E-1,4.557834435E-1,5.515454238E-1
9.303106333E0,2.129816142E-1,-3.431321561E-1,3.820348513E-1,5.559239806E-1
9.313136333E0,1.148713289E-1,-5.445202035E-1,3.676179564E-1,6.669637442E-1
9.323167333E0,8.001402989E-2,-6.669813645E-1,2.617810142E-1,7.209685742E-1
9.333197333E0,3.466141731E-2,-7.545755786E-1,1.281657046E-1,7.661671916E-1
9.343228333E0,-1.815092683E-1,-9.267322254E-1,-9.809288979E-3,9.443910494E-1
9.353259333E0,-4.275437307E-1,-1.139332893E0,-2.106938910E-1,1.235016194E0
9.363289333E0,-6.587306508E-1,-1.279774827E0,-4.206469399E-1,1.499564446E0
9.373320333E0,-8.627709952E-1,-1.347348760E0,-6.387018907E-1,1.722690505E0
9.383350333E0,-1.050990090E0,-1.435884376E0,-8.608317661E-1,1.976708233E0
9.393381333E0,-1.152964215E0,-1.467156454E0,-1.123748310E0,2.178229741E0
9.403411333E0,-1.250323425E0,-1.373846002E0,-1.413314708E0,2.334142234E0
9.413442333E0,-1.274451815E0,-1.277722455E0,-1.764186239E0,2.523718523E0
9.423473333E0,-1.390108425E0,-1.233188306E0,-2.037568713E0,2.757687635E0
9.433503333E0,-1.495610467E0,-1.174316200E0,-2.222818446E0,2.925199318E0
9.443534333E0,-1.481651848E0,-1.062456041E0,-2.323235019E0,2.953222984E0
9.453564333E0,-1.441071441E0,-9.403217393E-1,-2.259547731E0,2.840149260E0
9.463595333E0,-1.453234088E0,-8.704293859E-1,-2.207213981E0,2.782324601E0
9.473625333E0,-1.460434203E0,-7.709080213E-1,-1.979725717E0,2.578077026E0
9.483656333E0,-1.505795732E0,-6.701973331E-1,-1.610906743E0,2.304692124E0
9.493687333E0,-1.458258308E0,-5.123850757E-1,-1.363236814E0,2.060939196E0
9.503717333E0,-1.394227203E0,-3.229428899E-1,-1.334802389E0,1.957002561E0
9.513748333E0,-1.331447257E0,-1.610457677E-1,-1.436457987E0,1.965222401E0
9.523778333E0,-1.066713691E0,4.076678753E-2,-1.433582911E0,1.787372371E0
9.533809333E0,-8.214095458E-1,2.473302054E-1,-1.249073437E0,1.515278959E0
9.543839333E0,-5.571708007E-1,4.213638085E-1,-1.100001597E0,1.303069559E0
9.553870333E0,-4.021709079E-1,6.074011606E-1,-1.040645927E0,1.270284044E0
9.563901333E0,-4.563680188E-1,7.867873049E-1,-1.058453037E0,1.395574743E0
9.573931333E0,-5.106544460E-1,9.287278801E-1,-1.065100737E0,1.502578789E0
9.583962333E0,-3.016936697E-1,1.067745432E0,-8.667620122E-1,1.407968666E0
9.593992333E0,-4.456660062E-2,1.181967282E0,-3.735043484E-1,1.240378303E0
9.604023333E0,2.273831601E-1,1.303771216E0,1.444507849E-1,1.331310825E0
9.614053333E0,5.850918402E-1,1.390662594E0,5.921422666E-1,1.620773697E0
9.624084333E0,9.478823353E-1,1.499319064E0,9.260866928E-1,2.001018526E0
9.634115333E0,1.369899132E0,1.578740625E0,1.077813753E0,2.351750003E0
9.644145333E0,1.702264225E0,1.678718657E0,1.294951276E0,2.718951751E0
9.654176333E0,1.886592728E0,1.648494399E0,1.513032539E0,2.926778668E0
9.664206333E0,1.822550953E0,1.513661115E0,1.591836049E0,2.854260666E0
9.674237333E0,1.069418759E0,1.424591063E0,1.166355801E0,2.129202206E0
9.684267333E0,-1.787026048E-1,1.190231152E0,1.636670744E-1,1.214648808E0
9.694298333E0,-1.246509433E0,1.143270409E0,-1.077487478E0,2.005450637E0
9.704329333E0,-1.391914337E0,1.350729035E0,-1.923231674E0,2.731430856E0
9.714359333E0,-5.413646074E-1,1.700779032E0,-1.946521719E0,2.640960385E0
9.724390333E0,1.020410467E0,1.960650930E0,-1.140657288E0,2.487265294E0
9.734420333E0,2.993378558E0,2.149272752E0,1.048382378E-1,3.686553893E0
9.744451333E0,5.267749565E0,2.381125962E0,1.837063596E0,6.065785108E0
9.754481333E0,6.830721418E0,2.350723364E0,3.502162333E0,8.028063056E0
9.764512333E0,6.604547608E0,1.795062461E0,4.268377379E0,8.066061232E0
9.774543333E0,5.192008241E0,8.945538282E-1,3.977805260E0,6.601523371E0
9.784573333E0,3.572373360E0,-8.857830048E-2,3.039803696E0,4.691492731E0
9.794604333E0,2.370506980E0,-7.122762358E-1,1.834916498E0,3.081162010E0
9.804634333E0,1.801791729E0,-9.021160322E-1,6.540309513E-1,2.118495517E0
9.814665333E0,1.502633997E0,-8.832032132E-1,-4.004360390E-1,1.788380794E0
9.824695333E0,1.300078114E0,-8.488747948E-1,-1.226883253E0,1.978897177E0
9.834726333E0,1.128514960E0,-8.113555509E-1,-1.948992752E0,2.393828856E0
9.844757333E0,1.136982898E0,-7.359533662E-1,-2.288425959E0,2.659182363E0
9.854787333E0,1.285105734E0,-6.529205650E-1,-2.205827022E0,2.635047411E0
9.864818333E0,1.476212622E0,-6.049517620E-1,-1.963656984E0,2.530043298E0
9.874848333E0,1.597856342E0,-6.513377237E-1,-1.693434929E0,2.417665730E0
9.884879333E0,1.654209906E0,-7.821387684E-1,-1.550506175E0,2.398378799E0
9.894909333E0,1.519418722E0,-9.632977885E-1,-1.495439436E0,2.339426209E0
9.904940333E0,1.102650240E0,-1.186561439E0,-1.629753488E0,2.297795037E0
9.914971333E0,4.423268075E-1,-1.388657584E0,-1.904593089E0,2.398228039E0
9.925001333E0,-1.950213066E-1,-1.586959471E0,-2.146803765E0,2.676796608E0
9.935032333E0,-7.009422854E-1,-1.730526157E0,-2.407505091E0,3.046657452E0
9.945062333E0,-1.093134189E0,-1.785661892E0,-2.608157558E0,3.344550283E0
9.955093333E0,-1.364167252E0,-1.715201774E0,-2.655510650E0,3.443051877E0
9.965123333E0,-1.472839948E0,-1.607428234E0,-2.545245903E0,3.351322090E0
9.975154333E0,-1.492157833E0,-1.520509958E0,-2.259615558E0,3.105535059E0
9.985184333E0,-1.488651696E0,-1.411942366E0,-1.883918212E0,2.785464584E0
9.995215333E0,-1.346353417E0,-1.253736591E0,-1.525036580E0,2.389614935E0
1.000524633E1,-1.176019348E0,-1.079524063E0,-1.181557977E0,1.986069727E0
1.001527633E1,-9.563362397E-1,-9.538720769E-1,-9.687362838E-1,1.662197621E0
1.002530733E1,-8.591081531E-1,-7.966381091E-1,-9.165300035E-1,1.487523560E0
1.003533733E1,-8.950518648E-1,-5.846911597E-1,-9.376992631E-1,1.422062411E0
1.004536833E1,-1.130489711E0,-4.626048052E-1,-9.578803432E-1,1.552270899E0
1.005539833E1,-1.225507111E0,-3.617707407E-1,-1.007594540E0,1.627265346E0
1.006542933E1,-1.174027786E0,-8.898702085E-2,-1.030582284E0,1.564723546E0
1.007546033E1,-1.021086698E0,-4.151698530E-2,-8.291810802E-1,1.316010246E0
1.008549033E1,-9.302765152E-1,-8.536993325E-2,-4.260275477E-1,1.026743343E0
1.009552133E1,-8.860794586E-1,-1.461897469E-1,-1.669011694E-1,9.134354106E-1
1.010555133E1,-8.224459648E-1,-7.819130659E-2,-2.056190926E-1,8.513580074E-1
1.011558233E1,-6.564287482E-1,1.055761564E-1,-2.215507087E-1,7.008064946E-1
1.012561233E1,-4.577288121E-1,2.709588039E-1,-1.961360782E-1,5.669247746E-1
1.013564333E1,-4.074819338E-1,4.590684092E-1,-3.140524909E-1,6.895029353E-1
1.014567433E1,-7.229017961E-1,4.636765999E-1,-4.845043820E-1,9.860666774E-1
1.015570433E1,-1.185776304E0,4.158095384E-1,-5.312145719E-1,1.364240425E0
1.016573533E1,-1.525829463E0,3.922014052E-1,-5.153782654E-1,1.657586272E0
1.017576533E1,-1.596135507E0,3.462481374E-1,-3.721094951E-1,1.675112475E0
1.018579633E1,-1.547006470E0,3.060748422E-1,-1.241390195E-1,1.581872727E0
1.019582633E1,-1.469902599E0,3.472667223E-1,2.275689554E-1,1.527414632E0
1.020585733E1,-1.328471755E0,4.176911724E-1,1.161493841E-1,1.397423987E0
1.021588833E1,-9.494587447E-1,6.632034785E-1,-2.766724107E-1,1.190738588E0
1.022591833E1,-5.858959785E-1,8.890498441E-1,-4.624659339E-1,1.160843858E0
1.023594933E1,-4.999560148E-1,8.652282876E-1,-6.353689778E-1,1.184174710E0
1.024597933E1,-5.840123711E-1,7.363626713E-1,-6.641223684E-1,1.150807957E0
1.025601033E1,-7.578525775E-1,5.736305666E-1,-4.508413768E-1,1.051974573E0
1.026604033E1,-6.513106073E-1,4.293686467E-1,-4.112288296E-2,7.811875789E-1
1.027607133E1,-4.819115804E-1,2.428325272E-1,4.050933462E-1,6.747644232E-1
1.028610233E1,-4.596835363E-1,1.765543377E-1,9.868623599E-1,1.102895147E0
1.029613233E1,-4.922884879E-1,2.509379375E-1,1.162251640E0,1.286913625E0
1.030616308E1,-7.676528033E-1,4.124924129E-1,8.887791181E-1,1.244736574E0
1.031619308E1,-1.054379428E0,7.348073119E-1,6.190271795E-1,1.426482532E0
1.032622408E1,-1.687264363E0,1.139453346E0,1.046227679E-1,2.038666447E0
1.033625408E1,-3.117859347E0,1.542097878E0,-4.850972897E-1,3.512041024E0
1.034628508E1,-4.475007163E0,1.601160604E0,-1.193113829E0,4.900298460E0
1.035631508E1,-5.011661984E0,1.702841930E0,-1.366504823E0,5.466604240E0
1.036634608E1,-3.839774718E0,1.963977996E0,-5.614046234E-1,4.349282079E0
1.037637708E1,-4.274058095E-1,2.341881790E0,1.489147248E0,2.807961105E0
1.038640708E1,3.918188803E0,2.703903961E0,4.221838805E0,6.362957097E0
1.039643808E1,7.507336071E0,2.923086839E0,6.699045045E0,1.047767799E1
1.040646808E1,8.545641357E0,2.275267970E0,7.135894035E0,1.136335400E1
1.041649908E1,5.228672622E0,1.822342646E0,6.051188754E0,8.202245756E0
1.042652908E1,2.010123199E0,4.863573647E-1,4.144616967E0,4.631952997E0
1.043656008E1,2.770975032E-1,-6.684595406E-1,2.010328290E0,2.136595661E0
1.044659108E1,-6.402239209E-1,-1.004505456E0,9.669055206E-1,1.534217770E0
1.045662108E1,-8.275711955E-1,-1.142608504E0,4.780315143E-1,1.489611495E0
1.046665208E1,-6.609511310E-1,-1.255850945E0,-5.384554714E-2,1.420182149E0
1.047668208E1,-4.855552728E-1,-1.340901035E0,-6.581780890E-1,1.570661614E0
1.048671308E1,-2.179689968E-1,-1.214104164E0,-1.257092308E0,1.761204269E0
1.049674308E1,-4.799219191E-2,-1.244239544E0,-1.501957620E0,1.950977187E0
1.050677408E1,5.778028473E-2,-1.301862684E0,-1.429769650E0,1.934535154E0
1.051680508E1,-2.083162670E-1,-1.428126290E0,-1.206474717E0,1.881095853E0
1.052683508E1,-5.881801933E-1,-1.605032630E0,-9.474231827E-1,1.954404352E0
1.053686608E1,-8.337614965E-1,-1.793335778E0,-7.338448602E-1,2.109440619E0
1.054689608E1,-9.880505142E-1,-1.881620548E0,-3.312254709E-1,2.150918413E0
1.055692708E1,-1.121842848E0,-1.866018423E0,-7.387693852E-2,2.178534813E0
1.056695708E1,-1.120714920E0,-1.807964342E0,4.223619282E-2,2.127562194E0
1.057698808E1,-8.293198054E-1,-1.512451910E0,2.524900809E-1,1.743282353E0
1.058701908E1,-2.584865467E-1,-1.168052078E0,5.030991125E-1,1.297794155E0
1.059704908E1,4.889684388E-1,-7.974859554E-1,6.630456036E-1,1.146605187E0
1.060708008E1,8.994885859E-1,-5.829217923E-1,6.613241833E-1,1.259455123E0
1.061711008E1,9.191514565E-1,-3.880194765E-1,5.556097403E-1,1.141972284E0
1.062714108E1,7.362135673E-1,-4.320665520E-1,4.849207038E-1,9.817535388E-1
1.063717108E1,4.840067840E-1,-5.801882190E-1,3.062487969E-1,8.152725078E-1
1.064720208E1,2.381025682E-1,-6.600114834E-1,8.166338325E-2,7.063829694E-1
1.065723208E1,2.692745134E-2,-7.451896280E-1,-2.754857183E-2,7.461846910E-1
1.066726308E1,-2.085541025E-1,-8.184651804E-1,-7.916603744E-2,8.483202972E-1
1.067729408E1,-4.476995216E-1,-9.276730424E-1,-2.160312295E-1,1.052464549E0
1.068732408E1,-6.296597564E-1,-9.919093841E-1,-4.216283950E-1,1.248249229E0
1.069735508E1,-6.962729913E-1,-1.003930675E0,-6.053204289E-1,1.363482930E0
1.070738508E1,-6.632891402E-1,-9.536013508E-1,-7.595568216E-1,1.387888535E0
1.071741608E1,-6.852879734E-1,-8.758708048E-1,-8.088868564E-1,1.375160798E0
1.072744608E1,-7.495019495E-1,-9.389265937E-1,-7.681677237E-1,1.425979654E0
1.073747708E1,-8.507733858E-1,-1.028617619E0,-8.865747178E-1,1.602461947E0
1.074750808E1,-1.040292609E0,-1.056700042E0,-1.080952538E0,1.835015553E0
1.075753808E1,-1.224800037E0,-1.068427802E0,-1.222513922E0,2.033768273E0
1.076756908E1,-1.531313566E0,-1.031286873E0,-1.254986726E0,2.232367697E0
1.077759908E1,-1.750863650E0,-1.010758469E0,-1.195464117E0,2.348678492E0
1.078763008E1,-1.765960869E0,-9.182128322E-1,-1.078115469E0,2.263639892E0
1.079766008E1,-1.707334053E0,-7.564519501E-1,-9.996689317E-1,2.118147090E0
1.080769108E1,-1.534318450E0,-5.329228359E-1,-9.219807780E-1,1.867669246E0
1.081772208E1,-1.417795868E0,-2.200757486E-1,-9.026142150E-1,1.695078429E0
1.082775208E1,-1.403166427E0,7.203068018E-2,-1.041297599E0,1.748818209E0
1.083778308E1,-1.460818803E0,3.505575353E-1,-1.194703979E0,1.919426935E0
1.084781308E1,-1.352936798E0,6.325933045E-1,-1.274389249E0,1.963333957E0
1.085784408E1,-1.088680511E0,9.761698490E-1,-1.135899993E0,1.851594346E0
1.086787408E1,-6.397596520E-1,1.298426276E0,-8.084605944E-1,1.657954082E0
1.087790508E1,-2.208478734E-2,1.547505383E0,-4.491588405E-1,1.611522359E0
1.088793508E1,5.369692554E-1,1.812744441E0,-3.050258517E-2,1.890848698E0
1.089796608E1,1.036960865E0,1.964805962E0,4.043191749E-1,2.258146208E0
1.090799708E1,1.425904494E0,1.918457422E0,7.468315262E-1,2.504284296E0
1.091802708E1,1.780302334E0,1.798576053E0,1.052073140E0,2.740658700E0
1.092805808E1,2.031916064E0,1.612265636E0,1.346414082E0,2.922484260E0
1.093808808E1,2.099356972E0,1.525545580E0,1.446248273E0,2.970896006E0
1.094811908E1,1.959505607E0,1.491812409E0,1.364759429E0,2.815623339E0
1.095814908E1,1.750638971E0,1.559933640E0,1.242710497E0,2.653763205E0
1.096818008E1,1.629434523E0,1.692418683E0,1.086078792E0,2.588224296E0
1.097821108E1,1.359461852E0,1.837020326E0,8.619018066E-1,2.442469023E0
1.098824108E1,6.334123532E-1,1.721594535E0,3.376758268E-1,1.865240981E0
1.099827208E1,-4.885556254E-1,1.439923632E0,-4.355190405E-1,1.581690077E0
1.100830208E1,-1.609387344E0,1.246944466E0,-1.117743219E0,2.322573578E0
1.101833308E1,-1.645062668E0,1.195506510E0,-1.486319534E0,2.518851475E0
1.102836308E1,-4.396275866E-1,1.473775502E0,-1.076514209E0,1.877277148E0
1.103839408E1,1.212273693E0,1.827057256E0,-1.094224548E-1,2.195385842E0
1.104842508E1,2.668225712E0,1.865337807E0,9.718551886E-1,3.397560315E0
1.105845508E1,4.151763434E0,1.895882492E0,2.096167755E0,5.022492338E0
1.106848608E1,5.073051317E0,1.814620813E0,2.900328307E0,6.118872661E0
1.107851608E1,4.954294952E0,1.509814231E0,3.438324187E0,6.216643041E0
1.108854708E1,3.938419877E0,8.791054845E-1,3.677359532E0,5.459574224E0
1.109857708E1,2.448431361E0,1.072379351E-2,3.434497769E0,4.217903040E0
1.110860808E1,9.927319412E-1,-6.458033341E-1,2.979176255E0,3.205942890E0
1.111863808E1,2.680718873E-1,-1.000246344E0,2.481356886E0,2.688770590E0
1.112866908E1,5.554328620E-2,-1.129684988E0,1.780319876E0,2.109220730E0
1.113870008E1,-1.658665046E-1,-1.104792221E0,8.369809735E-1,1.395927899E0
1.114873008E1,-2.905215409E-1,-1.073223104E0,-1.129079801E-1,1.117568257E0
1.115876108E1,-2.269791175E-1,-9.739496613E-1,-8.112871385E-1,1.287743873E0
1.116879108E1,-3.081707767E-1,-9.187379122E-1,-1.385474945E0,1.690736349E0
1.117882208E1,-2.073720878E-1,-8.173512858E-1,-2.021363155E0,2.190199834E0
1.118885208E1,1.826385118E-1,-7.183778054E-1,-2.393741038E0,2.505877023E0
1.119888308E1,2.539072998E-1,-8.444455290E-1,-2.621300345E0,2.765641457E0
1.120891408E1,7.444528788E-2,-1.047254450E0,-2.729272983E0,2.924246056E0
1.121894408E1,-2.390175113E-1,-1.340366600E0,-2.449414717E0,2.802381924E0
1.122897508E1,-6.147237749E-1,-1.595962429E0,-1.826110591E0,2.501931511E0
1.123900508E1,-9.692688189E-1,-1.800912015E0,-1.401767626E0,2.479459338E0
1.124903608E1,-1.198110713E0,-1.908551654E0,-1.229605717E0,2.567093477E0
1.125906608E1,-1.294781122E0,-1.853220622E0,-1.121362938E0,2.523556947E0
1.126909708E1,-1.172865067E0,-1.697060788E0,-1.312979703E0,2.445310509E0
1.127912808E1,-8.964934959E-1,-1.421174535E0,-1.464052460E0,2.228651443E0
1.128915808E1,-7.634265089E-1,-1.326806322E0,-1.481971252E0,2.130604103E0
1.129918896E1,-7.717880273E-1,-1.336954749E0,-1.095330257E0,1.892842606E0
1.130921896E1,-8.888586402E-1,-1.289581193E0,1.884537140E-1,1.577531026E0
1.131924996E1,-7.991876413E-1,-1.384617743E0,1.374254430E0,2.108184626E0
1.132927996E1,-6.301748961E-1,-1.413384290E0,2.048707659E0,2.567484883E0
1.133931096E1,-2.232990262E-1,-1.241553918E0,2.529775048E0,2.826849904E0
1.134934096E1,4.142056471E-1,-1.196300561E0,2.061998965E0,2.419615896E0
1.135937196E1,9.414017200E-1,-9.718282914E-1,8.702308729E-1,1.608722847E0
1.136940296E1,8.770174438E-1,-7.978619313E-1,-2.843138444E-1,1.219252894E0
1.137943296E1,6.494533123E-1,-9.771451646E-1,-1.475732273E0,1.885308468E0
1.138946396E1,6.927938980E-1,-8.383270025E-1,-2.463049254E0,2.692464889E0
1.139949396E1,1.560775347E-1,-3.299618876E-1,-2.373203277E0,2.401109918E0
1.140952496E1,-3.085559620E-1,-3.085985005E-1,-1.887608097E0,1.937396228E0
1.141955496E1,-5.720676059E-1,-4.114890307E-1,-1.254110228E0,1.438532945E0
1.142958596E1,-8.483602399E-1,-4.696547931E-1,-6.148510981E-1,1.148186655E0
1.143961696E1,-8.569025834E-1,-4.674059540E-1,-3.135201019E-1,1.025204964E0
1.144964696E1,-6.401727578E-1,-3.729324907E-1,-3.357646644E-1,8.134111582E-1
1.145967796E1,-6.055236197E-1,-2.785788953E-1,-4.660856527E-1,8.133270502E-1
1.146970796E1,-6.683615997E-1,-2.192144537E-1,-4.180098456E-1,8.182263964E-1
1.147973896E1,-7.764757401E-1,-1.571766651E-1,-4.196116903E-1,8.964892914E-1
1.148976896E1,-7.890802905E-1,-1.060100198E-1,-5.913309655E-1,9.917449974E-1
1.149979996E1,-9.092024191E-1,3.140364110E-2,-7.256450173E-1,1.163699239E0
1.150982996E1,-1.312877231E0,3.833574915E-1,-6.055721515E-1,1.495769775E0
1.151986096E1,-1.063586819E0,3.569508809E-1,-6.316548264E-1,1.287485407E0
1.152989196E1,-9.238877012E-1,4.686876637E-1,-6.168221945E-1,1.205697404E0
1.153992196E1,-9.884270748E-1,6.430873024E-1,-4.436896473E-1,1.259924547E0
1.154995296E1,-8.997980498E-1,5.141018182E-1,-3.194187731E-1,1.084419459E0
1.155998296E1,-7.595802835E-1,4.703102660E-1,-1.164677650E-1,9.009543239E-1
1.157001396E1,-5.121348149E-1,5.218774456E-1,1.165282837E-1,7.404167595E-1
1.158004396E1,-2.372580841E-1,6.357139635E-1,4.128546479E-1,7.942748908E-1
1.159007496E1,-2.660946514E-1,7.656496203E-1,6.311885110E-1,1.027338620E0
1.160010596E1,-3.636385607E-1,8.716344970E-1,7.774466702E-1,1.223275531E0
1.161013596E1,-7.167158805E-1,9.293248808E-1,8.946462142E-1,1.475709401E0
1.162016696E1,-1.535678220E0,1.075088366E0,1.003613171E0,2.126349451E0
1.163019696E1,-2.591708756E0,1.285071820E0,1.059120204E0,3.080600504E0
1.164022796E1,-3.529918481E0,1.363720379E0,1.070883633E0,3.932791567E0
1.165025796E1,-4.123345966E0,1.408614131E0,1.063731903E0,4.485276055E0
1.166028896E1,-3.667983814E0,1.615999668E0,1.311210628E0,4.217206836E0
1.167031896E1,-1.162144270E0,1.886718736E0,2.316513060E0,3.205701117E0
1.168034996E1,2.180253347E0,2.140554553E0,3.624873170E0,4.740799927E0
1.169038096E1,4.860598583E0,2.483656889E0,4.674822602E0,7.186649879E0
1.170041096E1,6.056372311E0,2.370937774E0,5.174019282E0,8.310924559E0
1.171044196E1,5.627437527E0,1.789449719E0,5.005845174E0,7.741360948E0
1.172047196E1,4.304266127E0,1.008942908E0,4.159191737E0,6.069888680E0
1.173050296E1,2.481503359E0,2.947739285E-1,2.743921427E0,3.711314510E0
1.174053296E1,1.035049556E0,-2.453047299E-1,1.623243491E0,1.940727035E0
1.175056396E1,1.458223955E-1,-5.890952826E-1,9.423287961E-1,1.120839410E0
1.176059496E1,-3.577605741E-1,-7.647228366E-1,4.641329750E-1,9.634381473E-1
1.177062496E1,-4.703430104E-1,-8.794194800E-1,2.194720235E-1,1.021160682E0
1.178065596E1,-5.319587763E-1,-1.002473549E0,1.904797742E-1,1.150745802E0
1.179068596E1,-5.521436571E-1,-1.176593106E0,2.127208284E-1,1.316998142E0
1.180071696E1,-4.300770369E-1,-1.264338178E0,1.935729513E-1,1.349439800E0
1.181074696E1,-2.705407280E-1,-1.296037688E0,1.749276423E-1,1.335479560E0
1.182077796E1,1.268899883E-1,-1.210346158E0,5.775587261E-2,1.218349142E0
1.183080796E1,4.255018830E-1,-1.082442994E0,-9.410041094E-2,1.166871704E0
1.184083896E1,3.587779896E-1,-1.108839079E0,-1.608305901E-1,1.176482991E0
1.185086996E1,1.225431682E-1,-1.259858626E0,-2.051451758E-1,1.282320213E0
1.186089996E1,-4.089104086E-2,-1.433552506E0,-2.837858409E-1,1.461943661E0
1.187093096E1,-1.431214204E-1,-1.567773002E0,-3.114709452E-1,1.604808424E0
1.188096096E1,-3.521912473E-1,-1.660339689E0,-3.360818759E-1,1.730236280E0
1.189099196E1,-5.970952968E-1,-1.739737276E0,-4.223935032E-1,1.887226763E0
1.190102196E1,-7.522951645E-1,-1.798425779E0,-4.899516481E-1,2.010058685E0
1.191105296E1,-7.398248076E-1,-1.812390100E0,-4.947910962E-1,2.019137650E0
1.192108396E1,-7.009025243E-1,-1.652412618E0,-4.394854993E-1,1.847939207E0
1.193111396E1,-6.539939676E-1,-1.574375094E0,-3.336245835E-1,1.737144326E0
1.194114496E1,-4.925533667E-1,-1.444546441E0,-2.902294725E-1,1.553562482E0
1.195117496E1,-3.291422541E-1,-1.239193397E0,-3.159753478E-1,1.320520851E0
1.196120596E1,-3.658254924E-1,-1.155638439E0,-2.883817524E-1,1.245990581E0
1.197123596E1,-6.848408076E-1,-1.237515246E0,-1.366505992E-1,1.420958937E0
1.198126696E1,-8.829892051E-1,-1.309000381E0,1.099928507E-1,1.582798269E0
1.199129696E1,-1.049627835E0,-1.323435987E0,4.070925093E-1,1.737505601E0
1.200132796E1,-1.203367214E0,-1.308314502E0,6.531851515E-1,1.893787298E0
1.201135896E1,-1.146965703E0,-1.198944672E0,6.223615542E-1,1.772098348E0
1.202138896E1,-1.128369657E0,-1.062755418E0,5.117801812E-1,1.632356001E0
1.203141996E1,-1.116632102E0,-9.237255871E-1,3.413972872E-1,1.488854701E0
1.204144996E1,-1.118995108E0,-7.160675704E-1,1.240147662E-1,1.334272266E0
1.205148096E1,-1.074471338E0,-4.514179122E-1,-1.327095759E-1,1.172978525E0
1.206151096E1,-8.959229538E-1,-1.027759248E-1,-4.656620219E-1,1.014929529E0
1.207154196E1,-7.630664666E-1,1.074262154E-1,-7.838683748E-1,1.099209013E0
1.208157196E1,-6.315264800E-1,2.652741408E-1,-1.012518480E0,1.222452346E0
1.209160296E1,-3.901512252E-1,3.880340946E-1,-1.052375441E0,1.187553159E0
1.210163396E1,-2.497513913E-1,4.835156178E-1,-9.075571588E-1,1.058216947E0
1.211166396E1,-1.520431021E-1,4.624919540E-1,-7.156073946E-1,8.655113261E-1
1.212169496E1,3.443513006E-2,4.924396384E-1,-4.104157743E-1,6.419686000E-1
1.213172496E1,8.534128189E-2,5.769307351E-1,-1.321371335E-1,5.979903256E-1
1.214175596E1,-2.408482745E-2,6.388194197E-1,-1.650084257E-2,6.394862061E-1
1.215178596E1,-1.750953113E-1,6.992691046E-1,-1.621579081E-2,7.210399438E-1
1.216181696E1,-2.457394704E-1,7.632902688E-1,-1.152369261E-1,8.101107769E-1
1.217184796E1,-6.362179935E-2,9.032129699E-1,-1.998826817E-1,9.272510387E-1
1.218187796E1,2.273618178E-1,1.024333364E0,-2.799173230E-1,1.085958538E0
1.219190896E1,6.247970657E-1,1.047895305E0,-3.522657993E-1,1.269861070E0
1.220193896E1,9.208525577E-1,9.885940129E-1,-3.086101949E-1,1.385831089E0
1.221196996E1,9.862656516E-1,8.704720706E-1,-2.417034298E-1,1.337483499E0
1.222199996E1,4.355729811E-1,6.354637027E-1,-4.156773913E-1,8.754002701E-1
1.223203096E1,-4.332203539E-1,4.051079643E-1,-7.209657830E-1,9.335866312E-1
1.224206096E1,-1.049726799E0,3.000469476E-1,-8.211987537E-1,1.366133930E0
1.225209196E1,-1.444259927E0,3.905881584E-1,-7.542554435E-1,1.675513987E0
1.226212296E1,-1.358462855E0,6.450279933E-1,-4.860281664E-1,1.580413180E0
1.227215296E1,-8.699892367E-1,1.063319090E0,-2.677422506E-1,1.399719498E0
1.228218396E1,-4.260411425E-1,1.510383750E0,-4.394597715E-1,1.629691694E0
1.229221396E1,-2.137544699E-1,1.856631303E0,-9.875499925E-1,2.113770507E0
1.230224508E1,-3.895017457E-1,2.111664630E0,-1.562787959E0,2.655775842E0
1.231227508E1,-6.067277075E-1,1.940379218E0,-2.021575117E0,2.867046560E0
1.232230608E1,-3.339444262E-1,1.651694580E0,-1.613852862E0,2.333267007E0
1.233233708E1,6.130305675E-1,1.600484081E0,-2.393832546E-1,1.730508628E0
1.234236708E1,2.027129095E0,1.601105640E0,1.517867017E0,2.996116139E0
1.235239808E1,3.165249860E0,1.372149725E0,3.261328969E0,4.747406470E0
1.236242808E1,3.979516155E0,9.702700084E-1,4.528758570E0,6.106359546E0
1.237245908E1,4.295742641E0,6.761965764E-1,5.162982663E0,6.750336038E0
1.238248908E1,3.985639944E0,3.194637966E-1,5.115758210E0,6.492947324E0
1.239252008E1,3.253053697E0,-4.645320475E-2,4.197264127E0,5.310512443E0
1.240255008E1,2.287030229E0,-2.942430013E-1,2.859472057E0,3.673372654E0
1.241258108E1,1.606298845E0,-4.084823924E-1,1.677322342E0,2.358063630E0
1.242261208E1,1.323522233E0,-4.368022120E-1,1.008352339E0,1.720256293E0
1.243264208E1,1.337636827E0,-4.742922199E-1,5.128510988E-1,1.509053226E0
1.244267308E1,1.616650170E0,-6.440105778E-1,8.885662794E-2,1.742470344E0
1.245270308E1,1.781470608E0,-8.087927163E-1,-2.018914926E-1,1.966861297E0
1.246273408E1,1.902186375E0,-9.452795935E-1,-4.062227359E-1,2.162610327E0
1.247276408E1,1.759329688E0,-1.138655786E0,-5.501873249E-1,2.166675804E0
1.248279508E1,1.378759125E0,-1.360469327E0,-8.081854829E-1,2.098813305E0
1.249282508E1,9.462207028E-1,-1.556243463E0,-1.045071099E0,2.099857361E0
1.250285608E1,5.501200819E-1,-1.669664243E0,-1.196138594E0,2.126301560E0
1.251288708E1,3.004631232E-1,-1.754861099E0,-1.327378179E0,2.220754015E0
1.252291708E1,6.620100617E-2,-1.832395179E0,-1.470058427E0,2.350133282E0
1.253294808E1,-1.576307014E-1,-1.860316218E0,-1.653773850E0,2.494111428E0
1.254297808E1,-4.018969658E-1,-1.838433598E0,-1.914946754E0,2.684842702E0
1.255300908E1,-7.077278329E-1,-1.801330676E0,-2.132456452E0,2.879764124E0
1.256303908E1,-8.533663335E-1,-1.711429151E0,-2.215655606E0,2.926833375E0
1.257307008E1,-9.026454976E-1,-1.611380952E0,-2.224415320E0,2.891252494E0
1.258310008E1,-9.289418882E-1,-1.496848031E0,-2.101686357E0,2.742366241E0
1.259313108E1,-9.222105736E-1,-1.347951023E0,-1.826276067E0,2.450046648E0
1.260316208E1,-7.921202579E-1,-1.278735192E0,-1.355965217E0,2.025156751E0
1.261319208E1,-6.306172380E-1,-1.180528867E0,-8.334673816E-1,1.576703644E0
1.262322308E1,-4.803910120E-1,-9.696069342E-1,-5.089211851E-1,1.195790075E0
1.263325308E1,-2.518730535E-1,-6.887610734E-1,-4.044378734E-1,8.374973699E-1
1.264328408E1,-1.124888809E-1,-4.517903799E-1,-4.824680892E-1,6.704802404E-1
1.265331408E1,-1.417033245E-1,-2.858680344E-1,-5.897899318E-1,6.705613535E-1
1.266334508E1,-2.695775454E-1,-1.855988109E-1,-7.131547800E-1,7.846710851E-1
1.267337608E1,-3.319797617E-1,-1.607510680E-1,-8.170808521E-1,8.964778786E-1
1.268340608E1,-3.752456492E-1,-6.313940406E-2,-8.094911662E-1,8.944673441E-1
1.269343708E1,-4.343909664E-1,7.237274230E-2,-7.660764670E-1,8.836325474E-1
1.270346708E1,-3.671117337E-1,1.224728554E-1,-7.646570554E-1,8.570128574E-1
1.271349808E1,-3.007462746E-1,2.093823606E-1,-7.652382687E-1,8.484567770E-1
1.272352808E1,-2.501529488E-1,2.440352994E-1,-7.338053915E-1,8.127730789E-1
1.273355908E1,-2.404401389E-1,2.756710750E-1,-7.073306608E-1,7.963181938E-1
1.274358908E1,-2.416851573E-1,3.460750598E-1,-7.417058569E-1,8.534091870E-1
1.275362008E1,-2.356499536E-1,4.450298291E-1,-8.867828786E-1,1.019787391E0
1.276365108E1,-3.440716575E-1,4.937926841E-1,-9.856791759E-1,1.154893916E0
1.277368108E1,-5.261815810E-1,5.198847145E-1,-1.082257052E0,1.310888058E0
1.278371208E1,-6.291625969E-1,5.538570374E-1,-1.221378685E0,1.481340299E0
1.279374208E1,-7.553950658E-1,6.155042320E-1,-1.266208702E0,1.597733283E0
1.280377308E1,-8.369659169E-1,6.692606091E-1,-1.330201800E0,1.708174036E0
1.281380308E1,-9.538060033E-1,7.630902940E-1,-1.202265306E0,1.713912062E0
1.282383408E1,-9.060566171E-1,9.170527446E-1,-1.019481930E0,1.643553387E0
1.283386408E1,-6.839776124E-1,1.022842909E0,-8.419440901E-1,1.490940254E0
1.284389508E1,-4.016050436E-1,1.192862983E0,-6.581392050E-1,1.420336552E0
1.285392608E1,-4.673094749E-2,1.387492819E0,-5.393211517E-1,1.489358052E0
1.286395608E1,4.556309773E-1,1.512281172E0,-3.627127272E-1,1.620541407E0
1.287398708E1,1.030936917E0,1.582886885E0,-1.431912947E-1,1.894430143E0
1.288401708E1,1.456016339E0,1.764613085E0,1.835967243E-1,2.295114524E0
1.289404808E1,1.588936999E0,1.875651711E0,2.976302934E-1,2.476161125E0
1.290407808E1,1.673629240E0,1.899939875E0,2.550941384E-1,2.544774918E0
1.291410908E1,1.685346183E0,1.967412651E0,2.244722700E-1,2.600286926E0
1.292413908E1,1.220974350E0,1.877750276E0,2.317953229E-1,2.251766758E0
1.293417008E1,2.921007277E-1,1.661098073E0,3.084265924E-1,1.714554346E0
1.294420108E1,-9.583231236E-1,1.595219833E0,3.952273393E-1,1.902449519E0
1.295423108E1,-2.019751516E0,1.627154986E0,3.485706514E-1,2.616969819E0
1.296426208E1,-2.387469460E0,1.582248954E0,2.400270331E-1,2.874219051E0
1.297429208E1,-1.970441362E0,1.299857674E0,4.290803790E-1,2.399245529E0
1.298432308E1,-8.774403436E-1,1.062167189E0,1.159056137E0,1.800419901E0
1.299435308E1,2.793805486E-1,8.540057266E-1,2.077780015E0,2.263746687E0
1.300438408E1,1.233352028E0,6.395088065E-1,2.825426059E0,3.148517294E0
1.301441508E1,1.723197695E0,3.821681678E-1,3.136230714E0,3.598806176E0
1.302444508E1,1.691869191E0,6.768619895E-2,2.866700385E0,3.329410440E0
1.303447608E1,1.241174141E0,-1.987632322E-1,2.065497939E0,2.417912696E0
1.304450608E1,5.674648239E-1,-5.037317812E-1,1.078866836E0,1.318982822E0
1.305453708E1,-8.161105067E-2,-7.471157008E-1,4.106236428E-1,8.564192957E-1
1.306456708E1,-6.102260967E-1,-9.358556360E-1,1.713801366E-1,1.130297665E0
1.307459808E1,-9.669088827E-1,-1.101732958E0,2.473676276E-1,1.486579645E0
1.308462808E1,-1.080210015E0,-1.246936280E0,5.754180604E-1,1.747229151E0
1.309465908E1,-1.000449827E0,-1.316270809E0,8.576707613E-1,1.862543378E0
1.310468908E1,-9.514930641E-1,-1.403048167E0,8.801462889E-1,1.910115363E0
1.311472008E1,-8.340516646E-1,-1.456223915E0,6.549571502E-1,1.801443626E0
1.312475108E1,-5.806785811E-1,-1.458050585E0,2.590164506E-1,1.590656671E0
1.313478108E1,-4.797268414E-1,-1.487526984E0,-1.844562650E-2,1.563078569E0
1.314481208E1,-4.613393216E-1,-1.452516196E0,-2.596269000E-1,1.545976519E0
1.315484208E1,-5.492503086E-1,-1.527997318E0,-5.631921172E-1,1.718614868E0
1.316487308E1,-6.301155469E-1,-1.628812671E0,-9.249605191E-1,1.976266248E0
1.317490308E1,-6.472894040E-1,-1.523643481E0,-1.126473697E0,2.002352621E0
1.318493408E1,-5.895363088E-1,-1.604837918E0,-7.937449068E-1,1.884963867E0
1.319496408E1,-5.746161148E-1,-1.948188175E0,8.661071241E-2,2.033008180E0
1.320499508E1,-3.218450752E-1,-2.064872872E0,1.111642234E0,2.367072598E0
1.321502608E1,-1.200676033E-1,-2.035694096E0,1.825824078E0,2.737170116E0
1.322505608E1,9.207990557E-2,-1.893324335E0,1.899586118E0,2.683576563E0
1.323508708E1,3.440054378E-1,-1.560925913E0,1.441882449E0,2.152638949E0
1.324511708E1,5.169345018E-1,-1.197934273E0,7.118833029E-1,1.486285854E0
1.325514808E1,5.073487227E-1,-9.353901976E-1,2.664049923E-2,1.064456323E0
1.326517808E1,3.692249174E-1,-7.788631582E-1,-3.533343780E-1,9.315578573E-1
1.327520908E1,2.458455974E-1,-7.708232367E-1,-3.966031891E-1,9.010563854E-1
1.328524008E1,7.437702164E-2,-7.909107614E-1,-3.158607423E-1,8.548916787E-1
1.329527008E1,-2.624376565E-2,-8.327019811E-1,-1.359185278E-1,8.441298305E-1
1.330530146E1,-7.678505123E-2,-8.123571789E-1,1.883914411E-2,8.161954690E-1
1.331533146E1,-2.375959070E-1,-8.286194551E-1,1.615503824E-1,8.770179830E-1
1.332536246E1,-4.437292622E-1,-8.636770213E-1,3.000937253E-1,1.016311910E0
1.333539246E1,-7.611484337E-1,-8.120314890E-1,2.676685756E-1,1.144722038E0
1.334542346E1,-1.024806258E0,-6.624152738E-1,1.060825253E-1,1.224857283E0
1.335545346E1,-1.218634440E0,-4.776824355E-1,-1.739166588E-1,1.320415621E0
1.336548446E1,-1.268478738E0,-3.176037973E-1,-4.812615162E-1,1.393385491E0
1.337551546E1,-1.145145464E0,-1.152901357E-1,-7.827609122E-1,1.391892451E0
1.338554546E1,-7.435627864E-1,1.439169341E-1,-1.005919898E0,1.259155487E0
1.339557646E1,-3.309595688E-1,4.219105232E-1,-1.077414973E0,1.203480681E0
1.340560646E1,-1.539585038E-1,5.563315791E-1,-1.006733245E0,1.160482604E0
1.341563746E1,-1.109792760E-1,5.776476038E-1,-7.191379434E-1,9.290600279E-1
1.342566746E1,-2.287794752E-1,5.867435324E-1,-3.452161038E-1,7.181797682E-1
1.343569846E1,-4.030539836E-1,5.726365399E-1,-2.351457775E-2,7.006554474E-1
1.344572846E1,-5.386170007E-1,7.234157664E-1,2.382646823E-1,9.328497753E-1
1.345575946E1,-5.651519577E-1,1.054189832E0,3.578969604E-1,1.248520393E0
1.346579046E1,-3.603742795E-1,1.556476766E0,2.900090325E-1,1.623759460E0
1.347582046E1,-1.766892622E-1,2.041254213E0,9.533709705E-2,2.051103854E0
1.348585146E1,9.686599776E-2,2.320599679E0,-8.279189587E-2,2.324095607E0
1.349588146E1,5.094512352E-1,2.448579442E0,-6.650096834E-2,2.501900123E0
1.350591246E1,9.596497107E-1,2.425884059E0,1.772314453E-1,2.614813955E0
1.351594246E1,1.297496569E0,2.193901041E0,4.144927454E-1,2.582344547E0
1.352597346E1,1.387035713E0,1.718144678E0,6.976213592E-1,2.315721219E0
1.353600346E1,9.964918470E-1,1.136254919E0,8.979820508E-1,1.757965587E0
1.354603446E1,2.482376933E-1,6.538303918E-1,1.074856816E0,1.282354595E0
1.355606546E1,-3.772299019E-1,3.111063713E-1,9.514133227E-1,1.069708785E0
1.356609546E1,-7.196783723E-1,1.799574172E-1,6.842955548E-1,1.009248254E0
1.357612646E1,-8.209492238E-1,3.255916786E-1,4.796599638E-1,1.005008085E0
1.358615646E1,-7.522979419E-1,5.828206354E-1,4.839260924E-1,1.067621913E0
1.359618746E1,-9.057626483E-1,9.215697187E-1,5.117646861E-1,1.389820066E0
1.360621746E1,-1.228550587E0,1.074703034E0,3.806133932E-1,1.676063755E0
1.361624846E1,-1.635698499E0,9.778883457E-1,-1.683179498E-2,1.905796029E0
1.362627846E1,-1.807686307E0,7.660320282E-1,-4.101757461E-1,2.005686664E0
1.363630946E1,-1.116260511E0,7.737544459E-1,-2.712535036E-1,1.385031384E0
1.364634046E1,3.896372549E-1,9.634802216E-1,5.597703266E-1,1.180446588E0
1.365637046E1,2.219711235E0,1.089657873E0,1.685017862E0,2.992282982E0
1.366640146E1,4.148242825E0,1.182267829E0,2.863987861E0,5.177654124E0
1.367643146E1,5.367584340E0,1.235698516E0,3.742693981E0,6.659254516E0
1.368646246E1,5.467725509E0,1.038231611E0,3.871960716E0,6.779824991E0
1.369649246E1,4.800674563E0,6.603237247E-1,3.362100468E0,5.897984676E0
1.370652346E1,3.729543301E0,1.789581281E-1,2.444270044E0,4.462731819E0
1.371655346E1,2.717887869E0,-2.906978345E-1,1.227983115E0,2.996558398E0
1.372658446E1,1.999346488E0,-5.492441690E-1,1.524088454E-1,2.079010340E0
1.373661546E1,1.659134578E0,-5.996062374E-1,-7.320760775E-1,1.910023709E0
1.374664546E1,1.415980600E0,-6.776478553E-1,-1.422973723E0,2.118740638E0
1.375667646E1,1.270993917E0,-8.055995518E-1,-1.873937892E0,2.403343379E0
1.376670646E1,1.149792539E0,-9.527570128E-1,-1.886187224E0,2.405716328E0
1.377673746E1,1.052983113E0,-1.100462943E0,-1.634356416E0,2.234035143E0
1.378676746E1,1.026341444E0,-1.273037665E0,-1.551355190E0,2.254041833E0
1.379679846E1,9.289917357E-1,-1.367321094E0,-1.635634618E0,2.325487739E0
1.380682846E1,7.732476385E-1,-1.356326575E0,-1.700622911E0,2.308603902E0
1.381685946E1,8.063364471E-1,-1.277041839E0,-1.859371308E0,2.395469888E0
1.382689046E1,8.624296640E-1,-1.135055655E0,-2.053417007E0,2.499731519E0
1.383692046E1,7.405299819E-1,-1.170084570E0,-2.148260014E0,2.555876297E0
1.384695146E1,5.981108120E-1,-1.203134787E0,-2.236431348E0,2.609002690E0
1.385698146E1,3.221983932E-1,-1.290003362E0,-2.375560582E0,2.722353496E0
1.386701246E1,1.748653695E-2,-1.405800451E0,-2.568035134E0,2.927692801E0
1.387704246E1,-3.010017979E-1,-1.456407518E0,-2.707664305E0,3.089202313E0
1.388707346E1,-7.015238640E-1,-1.581701655E0,-2.643822650E0,3.159701578E0
1.389710346E1,-1.087209132E0,-1.707230265E0,-2.394096256E0,3.135020854E0
1.390713446E1,-1.207071133E0,-1.754575170E0,-1.934993348E0,2.877456169E0
1.391716446E1,-1.072825055E0,-1.613379530E0,-1.390908177E0,2.385072885E0
1.392719546E1,-8.170001605E-1,-1.453357610E0,-1.023310686E0,1.956247010E0
1.393722646E1,-6.094150878E-1,-1.300569865E0,-8.961314070E-1,1.692902898E0
1.394725646E1,-4.714197021E-1,-1.093924586E0,-9.652338016E-1,1.533161383E0
1.395728746E1,-4.351576095E-1,-9.172152972E-1,-1.026139569E0,1.443470977E0
1.396731746E1,-3.913315587E-1,-8.065052855E-1,-1.139570290E0,1.449900552E0
1.397734846E1,-4.358367636E-1,-7.518162775E-1,-1.160765862E0,1.450020271E0
1.398737846E1,-6.626948438E-1,-7.408808148E-1,-9.471010011E-1,1.372978202E0
1.399740946E1,-8.907717030E-1,-7.514765543E-1,-6.230021167E-1,1.321485102E0
1.400743946E1,-1.038566364E0,-6.632379770E-1,-3.207887757E-1,1.273346043E0
1.401747046E1,-1.088085630E0,-4.946130484E-1,-2.099068558E-1,1.213521031E0
1.402750146E1,-1.083206055E0,-3.619584364E-1,-1.147533613E-1,1.147831696E0
1.403753146E1,-1.064040636E0,-2.377688384E-1,5.623559654E-2,1.091732082E0
1.404756246E1,-9.662014427E-1,-7.685580254E-2,1.683734983E-1,9.837691178E-1
1.405759246E1,-7.780707874E-1,8.529918194E-3,3.810115886E-1,8.663929480E-1
1.406762346E1,-5.114977607E-1,1.650698215E-1,4.725509191E-1,7.156691808E-1
1.407765346E1,-4.098095642E-1,3.812788063E-1,3.399711514E-1,6.549028866E-1
1.408768446E1,-5.769215257E-1,3.936252022E-1,2.020037591E-1,7.270383521E-1
1.409771446E1,-9.347538013E-1,2.906563193E-1,5.605550230E-2,9.805039441E-1
1.410774546E1,-1.162205666E0,2.444931364E-1,-6.955204546E-2,1.189679113E0
1.411777646E1,-1.179038558E0,2.923274535E-1,-2.685626149E-2,1.215034369E0
1.412780646E1,-1.169231023E0,3.559714723E-1,1.307653767E-1,1.229193417E0
1.413783746E1,-1.118612627E0,4.229027957E-1,3.036511713E-1,1.233833464E0
1.414786746E1,-1.010725286E0,4.303088790E-1,3.867962390E-1,1.164621254E0
1.415789846E1,-8.800366536E-1,3.801309979E-1,4.150915003E-1,1.044636320E0
1.416792846E1,-7.714860186E-1,4.208755660E-1,4.492509341E-1,9.869920571E-1
1.417795946E1,-8.486800826E-1,5.285345006E-1,3.367054814E-1,1.054977337E0
1.418798946E1,-9.335588497E-1,5.842608047E-1,1.753229141E-2,1.101453674E0
1.419802046E1,-9.702799487E-1,6.617048371E-1,-3.047907937E-1,1.213339976E0
1.420805146E1,-9.240012103E-1,7.533634508E-1,-4.329219997E-1,1.268367527E0
1.421808146E1,-7.118344787E-1,7.881210548E-1,-1.925499809E-1,1.079313957E0
1.422811246E1,-4.263037556E-1,8.522784591E-1,3.878709573E-1,1.028862160E0
1.423814246E1,-2.025940356E-1,1.022627732E0,9.642742735E-1,1.420083341E0
1.424817346E1,-3.769121788E-1,1.233101183E0,1.230231954E0,1.782153747E0
1.425820346E1,-1.529477541E0,1.427260317E0,9.169767308E-1,2.284123439E0
1.426823446E1,-2.385594112E0,1.397237788E0,2.682737625E-1,2.777643519E0
1.427826446E1,-2.437784605E0,1.325684241E0,-4.256656051E-2,2.775255736E0
1.428829546E1,-2.057428197E0,1.446543850E0,-2.303744495E-2,2.515160157E0
1.429832546E1,-6.827209727E-1,1.505991907E0,5.082551873E-1,1.729867881E0
1.430835608E1,9.343305360E-1,1.448900862E0,1.273618294E0,2.143453013E0
1.431838708E1,2.195556387E0,1.283683691E0,1.840065556E0,3.139132511E0
1.432841708E1,2.706645720E0,9.743110192E-1,2.523578753E0,3.826703900E0
1.433844808E1,2.583979322E0,4.757101697E-1,3.175965468E0,4.121893491E0
1.434847808E1,1.935367278E0,-4.660172403E-2,3.420631097E0,3.930462482E0
1.435850908E1,1.383734229E0,-4.785998636E-1,3.166532739E0,3.488654158E0
1.436853908E1,1.012310904E0,-7.051882410E-1,2.592388787E0,2.870983010E0
1.437857008E1,7.057715008E-1,-7.380992943E-1,1.823863506E0,2.090306693E0
1.438860008E1,5.448504250E-1,-7.636580586E-1,1.085943722E0,1.435029401E0
1.439863108E1,3.780255617E-1,-8.900111264E-1,5.298360908E-1,1.102610273E0
1.440866208E1,8.576008871E-2,-1.056007147E0,2.874596465E-1,1.097788201E0
1.441869208E1,-2.260540880E-1,-1.198599687E0,2.465367383E-1,1.244396248E0
1.442872308E1,-3.243499493E-1,-1.301596636E0,3.649451941E-1,1.390158871E0
1.443875308E1,-1.227181461E-1,-1.422814094E0,6.145873886E-1,1.554727420E0
1.444878408E1,1.163468738E-1,-1.455467286E0,8.914173818E-1,1.710715220E0
1.445881408E1,2.235204164E-1,-1.478274935E0,1.011072464E0,1.804861681E0
1.446884508E1,2.532737540E-1,-1.512265384E0,8.574754643E-1,1.756803449E0
1.447887608E1,1.393973288E-1,-1.539237421E0,5.755659950E-1,1.649230022E0
1.448890608E1,3.911779962E-2,-1.532915996E0,2.509034389E-1,1.553806355E0
1.449893708E1,4.703222528E-2,-1.501366174E0,-1.385059208E-1,1.508474829E0
1.450896708E1,3.998238355E-2,-1.483713430E0,-4.538035762E-1,1.552076615E0
1.451899808E1,-1.156195533E-1,-1.448461152E0,-5.420123327E-1,1.550865874E0
1.452902808E1,-2.524210837E-1,-1.400294128E0,-5.459802532E-1,1.524019188E0
1.453905908E1,-3.433844635E-1,-1.356945795E0,-5.324030185E-1,1.497553924E0
1.454908908E1,-4.668536114E-1,-1.302565520E0,-4.344586480E-1,1.450304639E0
1.455912008E1,-3.314684227E-1,-1.212758135E0,-3.028407472E-1,1.293199956E0
1.456915008E1,-4.385996461E-3,-1.040552956E0,-1.892907429E-1,1.057639199E0
1.457918108E1,1.968814521E-1,-8.584870327E-1,-1.363553149E-1,8.912659891E-1
1.458921208E1,1.977850661E-1,-8.031086379E-1,-2.056682092E-1,8.522921031E-1
1.459924208E1,5.016911030E-2,-8.537279838E-1,-3.333538574E-1,9.178742856E-1
1.460927308E1,-1.039592551E-1,-7.894799477E-1,-4.786595052E-1,9.290861297E-1
1.461930308E1,-2.396217480E-1,-6.838114053E-1,-5.441418886E-1,9.061495545E-1
1.462933408E1,-3.620295531E-1,-5.992355239E-1,-5.291472888E-1,8.775793205E-1
1.463936408E1,-4.418961601E-1,-4.807452071E-1,-5.052017713E-1,8.256009933E-1
1.464939508E1,-4.746096506E-1,-4.113001657E-1,-5.367697191E-1,8.261621379E-1
1.465942508E1,-4.789435337E-1,-3.437800276E-1,-5.979134685E-1,8.396857339E-1
1.466945608E1,-5.642820382E-1,-2.772971857E-1,-5.944618571E-1,8.652703897E-1
1.467948708E1,-6.715207773E-1,-2.555467129E-1,-5.182562649E-1,8.859084789E-1
1.468951708E1,-6.730040697E-1,-2.338126123E-1,-4.965677726E-1,8.684367382E-1
1.469954808E1,-6.727823140E-1,-1.030875814E-1,-4.913286674E-1,8.394444299E-1
1.470957808E1,-7.355390909E-1,-4.446164310E-2,-5.162161714E-1,8.997075789E-1
1.471960908E1,-7.785946248E-1,-1.683530331E-2,-5.674500597E-1,9.635832022E-1
1.472963908E1,-7.230469532E-1,1.144265020E-1,-6.034934664E-1,9.487332001E-1
1.473967008E1,-6.125430559E-1,2.834817857E-1,-5.542844689E-1,8.733854765E-1
1.474970008E1,-5.091289075E-1,2.963532615E-1,-4.853305936E-1,7.632714360E-1
1.475973108E1,-4.168950740E-1,3.357839602E-1,-3.316681051E-1,6.297270064E-1
1.476976108E1,-3.041791749E-1,3.973411077E-1,-8.699136615E-2,5.079098583E-1
1.477979208E1,-2.485953967E-1,4.317256594E-1,1.782722497E-1,5.291197513E-1
1.478982308E1,-2.160749374E-1,4.601366955E-1,4.088244545E-1,6.523431549E-1
1.479985308E1,-2.068883769E-1,5.688878900E-1,5.408849895E-1,8.117837173E-1
1.480988408E1,-1.703529270E-1,6.515248346E-1,6.179758501E-1,9.140015761E-1
1.481991408E1,6.158199817E-2,7.440348029E-1,6.299872005E-1,9.768643730E-1
1.482994508E1,4.714971046E-1,8.024648595E-1,6.129870057E-1,1.114456118E0
1.483997508E1,9.222212447E-1,8.093850392E-1,6.486947823E-1,1.387948517E0
1.485000608E1,1.156241579E0,8.172179693E-1,6.680899966E-1,1.565593831E0
1.486003608E1,9.535115960E-1,8.411295730E-1,5.710063362E-1,1.393819055E0
1.487006708E1,4.285726945E-1,7.691117567E-1,3.907226443E-1,9.632609374E-1
1.488009808E1,-9.859384999E-2,7.324549770E-1,2.581884849E-1,7.828616317E-1
1.489012808E1,-2.510807557E-1,8.538425893E-1,2.699004579E-1,9.300188010E-1
1.490015908E1,1.371698320E-2,1.195363253E0,3.732400542E-1,1.252353624E0
1.491018908E1,2.751996432E-1,1.579933457E0,5.250846434E-1,1.687494727E0
1.492022008E1,2.771515900E-1,1.794273087E0,3.682085252E-1,1.852513544E0
1.493025008E1,-8.490303308E-2,1.827651333E0,3.820278347E-2,1.830021140E0
1.494028108E1,-4.193690309E-1,1.776826749E0,-4.155639553E-1,1.872345343E0
1.495031108E1,-8.035331458E-2,1.685682691E0,-5.736153638E-1,1.782418967E0
1.496034208E1,9.524168511E-1,1.712086962E0,-1.727653420E-1,1.966770828E0
1.497037308E1,2.154394767E0,1.677764391E0,4.473657918E-1,2.767028427E0
1.498040308E1,3.580010993E0,1.540770561E0,1.515877209E0,4.181905827E0
1.499043408E1,4.632574422E0,1.389948065E0,2.695347730E0,5.536930628E0
1.500046408E1,4.793818703E0,1.118335542E0,3.342760803E0,5.950245535E0
1.501049508E1,4.326582318E0,7.084790540E-1,3.514416343E0,5.618930446E0
1.502052508E1,3.434857957E0,2.478868604E-1,3.337035209E0,4.795362454E0
1.503055608E1,2.698737946E0,-1.502559006E-1,2.864367930E0,3.938320324E0
1.504058608E1,2.085564852E0,-4.420740616E-1,2.115142554E0,3.003138068E0
1.505061708E1,1.512573094E0,-5.832574224E-1,1.202769921E0,2.018594082E0
1.506064708E1,1.287379716E0,-6.259286481E-1,3.764285409E-1,1.480145821E0
1.507067808E1,1.135642131E0,-6.501273501E-1,-4.074141061E-1,1.370523577E0
1.508070908E1,8.972407700E-1,-7.352955544E-1,-1.063866974E0,1.574011909E0
1.509073908E1,7.231887482E-1,-8.999180639E-1,-1.521980533E0,1.910308674E0
1.510077008E1,5.780545700E-1,-1.035916114E0,-1.754285148E0,2.117731254E0
1.511080008E1,4.965242109E-1,-1.170527204E0,-1.749581648E0,2.162800539E0
1.512083108E1,4.281537415E-1,-1.351365797E0,-1.658041148E0,2.181422837E0
1.513086108E1,2.859718224E-1,-1.497276632E0,-1.525020500E0,2.156224645E0
1.514089208E1,-1.070625186E-2,-1.618929123E0,-1.461877003E0,2.181313939E0
1.515092208E1,-2.784948416E-1,-1.692032767E0,-1.475493414E0,2.262214640E0
1.516095308E1,-4.495441720E-1,-1.729663693E0,-1.472759841E0,2.315782374E0
1.517098308E1,-5.952230184E-1,-1.725688756E0,-1.389301363E0,2.294003138E0
1.518101408E1,-7.476203156E-1,-1.623563626E0,-1.357666757E0,2.244583259E0
1.519104508E1,-9.221696430E-1,-1.557447989E0,-1.502167243E0,2.352136798E0
1.520107508E1,-1.060074909E0,-1.524793628E0,-1.586123904E0,2.442241483E0
1.521110608E1,-1.056416306E0,-1.444071647E0,-1.610343656E0,2.407190276E0
1.522113608E1,-9.744498906E-1,-1.316680114E0,-1.413846804E0,2.163830376E0
1.523116708E1,-8.129170498E-1,-1.187482960E0,-1.073833553E0,1.795569105E0
1.524119708E1,-6.686446050E-1,-1.055209002E0,-8.915770108E-1,1.534751189E0
1.525122808E1,-4.453960110E-1,-9.352147812E-1,-1.075079010E0,1.492916331E0
1.526125808E1,-2.298908848E-1,-7.794432020E-1,-1.437965984E0,1.651704482E0
1.527128908E1,-8.649800733E-2,-5.925866550E-1,-1.853773769E0,1.948106269E0
1.528132008E1,-2.059389353E-3,-5.455428815E-1,-2.166396908E0,2.234031521E0
1.529135008E1,-1.500497863E-2,-5.941765130E-1,-2.067653807E0,2.151386331E0
1.530138108E1,-4.373234913E-2,-7.159921414E-1,-1.470709807E0,1.636320446E0
1.531141150E1,-4.937023446E-2,-8.845012951E-1,-7.193273932E-1,1.141144977E0
1.532144250E1,-9.737485170E-2,-9.326881993E-1,-2.351954788E-1,9.668019715E-1
1.533147250E1,-2.891882296E-1,-8.192697573E-1,-1.408962625E-1,8.801616466E-1
1.534150350E1,-6.480626982E-1,-6.637899542E-1,-2.459841764E-1,9.597450595E-1
1.535153350E1,-7.909342964E-1,-4.094115150E-1,-3.990327072E-1,9.759210784E-1
1.536156450E1,-7.010279471E-1,-8.418645680E-2,-7.023570192E-1,9.959080904E-1
1.537159550E1,-6.229098769E-1,1.537209606E-1,-1.158291321E0,1.324116925E0
1.538162550E1,-6.297622289E-1,3.145743549E-1,-1.386761332E0,1.555205608E0
1.539165650E1,-7.455987869E-1,3.546435696E-1,-1.397569910E0,1.623234816E0
1.540168650E1,-9.324027090E-1,3.004539138E-1,-1.348917568E0,1.667101068E0
1.541171750E1,-1.105613316E0,2.785595995E-1,-1.252015171E0,1.693374809E0
1.542174750E1,-1.311107425E0,3.252034235E-1,-1.181456820E0,1.794603066E0
1.543177850E1,-1.552119860E0,3.838065577E-1,-1.132201045E0,1.959148473E0
1.544180850E1,-1.760445775E0,4.802154493E-1,-1.074373836E0,2.117558817E0
1.545183950E1,-1.811690480E0,6.093465292E-1,-9.591152751E-1,2.138557388E0
1.546186950E1,-1.732206939E0,7.861335862E-1,-9.055863547E-1,2.106806479E0
1.547190050E1,-1.581728991E0,1.027441744E0,-9.059687626E-1,2.092434595E0
1.548193150E1,-1.353296986E0,1.134437605E0,-1.016323848E0,2.037467932E0
1.549196150E1,-1.146865423E0,1.099155505E0,-1.088584324E0,1.925735951E0
1.550199250E1,-9.668157658E-1,1.067823785E0,-9.368759751E-1,1.718347157E0
1.551202250E1,-8.221306537E-1,9.763604683E-1,-5.697667265E-1,1.397788503E0
1.552205350E1,-5.796108064E-1,9.636860436E-1,-1.319123080E-1,1.132272200E0
1.553208350E1,-4.468176153E-1,9.341587740E-1,1.779760882E-1,1.050701710E0
1.554211450E1,-5.478591098E-1,9.029586160E-1,3.065882277E-1,1.099763705E0
1.555214450E1,-7.034273520E-1,9.182151711E-1,2.595941556E-1,1.185461204E0
1.556217550E1,-8.610080597E-1,1.000077360E0,1.573801482E-1,1.329006439E0
1.557220650E1,-1.054103440E0,1.201159013E0,-1.282294393E-3,1.598098458E0
1.558223650E1,-1.231202738E0,1.368135027E0,-6.762655735E-2,1.841799931E0
1.559226750E1,-1.802054123E0,1.587711423E0,1.536431926E-1,2.406622707E0
1.560229750E1,-2.628239821E0,1.898102095E0,3.068373191E-1,3.256468219E0
1.561232850E1,-3.231306440E0,2.104615812E0,8.206976473E-2,3.857134230E0
1.562235850E1,-2.909532993E0,2.202691160E0,1.587562904E-1,3.652729684E0
1.563238950E1,-9.889284736E-1,2.397493488E0,1.081232912E0,2.809807674E0
1.564241950E1,1.608981693E0,2.573373642E0,2.451113918E0,3.901157960E0
1.565245050E1,3.624120341E0,2.585536435E0,3.659062717E0,5.762637146E0
1.566248050E1,4.607470279E0,2.146725705E0,4.421696636E0,6.737107299E0
1.567251150E1,4.390974196E0,1.274913452E0,4.343974569E0,6.306835478E0
1.568254250E1,3.355409499E0,3.862425077E-1,3.484592035E0,4.852869031E0
1.569257250E1,2.223294555E0,-2.819644332E-1,2.389188103E0,3.275784244E0
1.570260350E1,1.123014338E0,-6.784904391E-1,1.302209424E0,1.848583204E0
1.571263350E1,4.328913018E-1,-5.537704986E-1,4.955556196E-1,8.600186140E-1
1.572266450E1,7.855365855E-1,-3.831043071E-1,4.106405997E-1,9.656408956E-1
1.573269450E1,1.514791528E0,-8.276441395E-2,9.242050588E-1,1.776400380E0
1.574272550E1,1.950698238E0,-2.122948587E-2,1.359170076E0,2.377607538E0
1.575275550E1,1.867446021E0,-3.004533291E-1,1.319954262E0,2.306492163E0
1.576278650E1,1.440533058E0,-6.285329980E-1,1.007060982E0,1.866644327E0
1.577281650E1,1.118011460E0,-9.306510293E-1,5.949688107E-1,1.571638905E0
1.578284750E1,7.365144065E-1,-1.193616689E0,2.333474663E-1,1.421838708E0
1.579287850E1,4.020324750E-1,-1.414284761E0,-1.277432433E-1,1.475855627E0
1.580290850E1,1.691169718E-1,-1.557271403E0,-3.813969201E-1,1.612190554E0
1.581293950E1,1.509911880E-2,-1.626066819E0,-5.891765589E-1,1.729580961E0
1.582296950E1,-1.030862658E-1,-1.612817028E0,-7.266121468E-1,1.771939829E0
1.583300050E1,3.639687091E-2,-1.603489550E0,-6.813997212E-1,1.742644269E0
1.584303050E1,2.764379373E-1,-1.588827657E0,-5.007765985E-1,1.688658775E0
1.585306150E1,3.321784209E-1,-1.621867933E0,-3.001866961E-1,1.682530876E0
1.586309150E1,1.507630004E-1,-1.701936196E0,-1.889811328E-1,1.719020118E0
1.587312250E1,-5.698404014E-3,-1.795032055E0,-1.618252015E-1,1.802320712E0
1.588315350E1,-2.420497312E-1,-1.739664186E0,-3.183279750E-1,1.785035644E0
1.589318350E1,-3.779255743E-1,-1.635598950E0,-4.346726561E-1,1.734056511E0
1.590321450E1,-3.282131316E-1,-1.518167564E0,-5.577618080E-1,1.650349916E0
1.591324450E1,-2.771738094E-1,-1.358516942E0,-6.911306575E-1,1.549211150E0
1.592327550E1,-1.908522418E-1,-1.190107775E0,-8.213656917E-1,1.458568714E0
1.593330550E1,-6.351567239E-2,-1.089601155E0,-8.559189355E-1,1.387033576E0
1.594333650E1,2.592275351E-2,-1.008469284E0,-7.574491927E-1,1.261511619E0
1.595336650E1,1.840607008E-1,-9.072703528E-1,-6.084390414E-1,1.107797771E0
1.596339750E1,2.710472430E-1,-8.764613736E-1,-2.616357109E-1,9.539939164E-1
1.597342750E1,3.251940680E-1,-8.664801764E-1,-1.451419258E-1,9.368058799E-1
1.598345850E1,3.189240986E-1,-5.304979956E-1,-7.765979469E-2,6.238363149E-1
1.599348950E1,-8.736324906E-3,-4.830642128E-1,1.149460271E-1,4.966285797E-1
1.600351950E1,-3.146282955E-1,-6.347281229E-1,-3.031065032E-1,7.705480560E-1
1.601355050E1,-7.553610058E-1,-6.147136885E-1,-7.531912503E-1,1.231154023E0
1.602358050E1,-1.182339603E0,-5.939209896E-1,-9.332606417E-1,1.619149315E0
1.603361150E1,-1.348494668E0,-5.738188469E-1,-9.990201831E-1,1.773625458E0
1.604364150E1,-1.400249543E0,-4.727567410E-1,-9.127588418E-1,1.737045314E0
1.605367250E1,-1.174118856E0,-4.184846395E-1,-7.162038106E-1,1.437578652E0
1.606370250E1,-8.811391461E-1,-3.401342887E-1,-4.375237584E-1,1.040924862E0
1.607373350E1,-6.756524929E-1,-2.064271778E-1,-1.011217475E-1,7.136834584E-1
1.608376450E1,-4.652322516E-1,-1.349654317E-1,1.394613558E-1,5.040894617E-1
1.609379450E1,-3.112765253E-1,-3.664742410E-2,7.829158634E-2,3.230567773E-1
1.610382550E1,-3.751959479E-1,9.057921767E-2,3.801859617E-2,3.878427615E-1
1.611385550E1,-5.329257596E-1,1.126635665E-1,-2.202383012E-2,5.451495148E-1
1.612388650E1,-6.598126781E-1,9.465882003E-2,-1.632492909E-1,6.862677272E-1
1.613391650E1,-7.251731470E-1,9.219831169E-2,-2.333252469E-1,7.673443117E-1
1.614394750E1,-6.996363097E-1,9.501491547E-2,-2.998092583E-1,7.670752189E-1
1.615397750E1,-8.488911670E-1,7.123311996E-2,-3.686722094E-1,9.282292652E-1
1.616400850E1,-9.089742315E-1,-3.092650831E-2,-4.246490666E-1,1.003751679E0
1.617403850E1,-8.291728941E-1,-8.458172858E-2,-4.642168826E-1,9.540330556E-1
1.618406950E1,-4.076982808E-1,-4.147547007E-2,-3.565898153E-1,5.432259191E-1
1.619410050E1,-6.370249093E-3,1.111929917E-1,-1.540001652E-1,1.900539722E-1
1.620413050E1,-7.427951932E-2,1.741563946E-1,-1.885820603E-1,2.672285356E-1
1.621416150E1,-4.400257820E-1,8.072841346E-2,-3.368113160E-1,5.599835963E-1
1.622419150E1,-6.723321515E-1,6.836681485E-2,-4.252951840E-1,7.984864037E-1
1.623422250E1,-5.628985870E-1,1.412511885E-1,-4.663677809E-1,7.445170411E-1
1.624425250E1,-6.408317390E-1,2.979898971E-1,-6.035653871E-1,9.293839212E-1
1.625428350E1,-6.036905175E-1,5.305085206E-1,-5.644293880E-1,9.820702956E-1
1.626431350E1,-3.139650750E-1,1.013014909E0,-5.192736804E-1,1.180854957E0
1.627434450E1,4.093957275E-2,1.180618914E0,-4.725339621E-1,1.272330701E0
1.628437450E1,4.823119685E-1,1.376096011E0,-1.719180804E-1,1.468271396E0
1.629440550E1,1.206284097E0,1.608425769E0,3.463539720E-1,2.040126431E0
1.630443608E1,2.501556385E0,1.803232775E0,1.085407532E0,3.269180677E0
1.631446608E1,3.815274592E0,2.052161025E0,1.956175472E0,4.753346985E0
