"Time (s)","Linear Acceleration x (m/s^2)","Linear Acceleration y (m/s^2)","Linear Acceleration z (m/s^2)","Absolute acceleration (m/s^2)"
2.470858333E-2,6.090518296E-2,2.289477289E-2,3.239942193E-3,6.514682772E-2
3.475658334E-2,-4.190611750E-2,1.063474041E-1,1.675028479E-1,2.027883061E-1
4.480558333E-2,-8.090953097E-2,1.434123194E-1,2.184005213E-1,2.735182503E-1
5.485358334E-2,-5.506586105E-2,1.153462690E-1,2.227859330E-1,2.568473920E-1
6.490158333E-2,-1.242566948E-1,8.182593584E-2,2.589515465E-1,2.986488129E-1
7.494958333E-2,-1.031163789E-1,7.623775184E-2,2.842220432E-1,3.118130084E-1
8.499758333E-2,-4.346293867E-2,6.965261757E-2,2.756225431E-1,2.875905082E-1
9.504558332E-2,-2.152418554E-2,8.744335592E-2,2.393984574E-1,2.557757855E-1
1.050945833E-1,-5.812527046E-2,2.571020722E-2,2.977337891E-1,3.044420651E-1
1.151425833E-1,6.418342441E-3,-4.509957433E-2,3.200438404E-1,3.232695880E-1
1.251905833E-1,2.840314239E-2,-1.197416210E-1,2.423027694E-1,2.717635486E-1
1.352385833E-1,7.435085535E-2,-1.686775535E-1,1.193527812E-1,2.196024889E-1
1.452865833E-1,2.790264997E-1,-1.296701932E-1,-3.939152241E-2,3.101964516E-1
1.553355833E-1,1.603230518E-1,-1.361477387E-1,-9.984763920E-2,2.328287756E-1
1.653835833E-1,1.048239121E-1,-1.045979172E-1,1.868770123E-3,1.480954730E-1
1.754315833E-1,2.113762611E-1,-6.052979171E-2,2.168965717E-2,2.209394050E-1
1.854795833E-1,1.914790633E-1,-3.297244906E-2,-9.585866868E-2,2.166570988E-1
1.955275833E-1,2.356752428E-1,4.653506577E-2,-1.722379231E-1,2.955913304E-1
2.055765833E-1,3.983260712E-1,1.870173454E-1,-2.546351320E-1,5.084075107E-1
2.156245833E-1,3.850777423E-1,1.779576695E-1,-1.052136290E-1,4.370625899E-1
2.256725833E-1,3.703869054E-1,-1.493963599E-3,1.944918412E-1,4.183488591E-1
2.357205833E-1,4.525361922E-1,-8.824500918E-2,3.036921018E-1,5.520915501E-1
2.457685833E-1,7.483041474E-1,-1.085792863E-1,2.474190831E-1,7.955908252E-1
2.558165833E-1,6.753452218E-1,-1.894714218E-1,2.275648624E-1,7.374119302E-1
2.658655833E-1,4.759566298E-1,-2.977507460E-1,3.448769653E-1,6.588856816E-1
2.759135833E-1,3.904592273E-1,-3.622221458E-1,3.930258626E-1,6.619158706E-1
2.859615833E-1,3.694013572E-1,-3.378158677E-1,2.957387191E-1,5.814106235E-1
2.960095833E-1,3.460607341E-1,-3.185311657E-1,1.946947396E-1,5.090443761E-1
3.060575833E-1,1.428176576E-1,-3.159168756E-1,2.237507236E-1,4.126314844E-1
3.161065833E-1,2.902587086E-2,-2.938424671E-1,3.308255213E-1,4.434314177E-1
3.261545833E-1,-1.915957153E-2,-3.270447117E-1,3.523970693E-1,4.811538497E-1
3.362025833E-1,-8.464955628E-2,-3.591593742E-1,2.714049464E-1,4.580629307E-1
3.462505833E-1,-1.165753537E-1,-2.897388911E-1,1.922049952E-1,3.667167821E-1
3.562985833E-1,-2.465709445E-1,-3.342215842E-1,2.221263671E-1,4.710004469E-1
3.663475833E-1,-3.382593790E-1,-4.208977854E-1,2.630545378E-1,6.006430247E-1
3.763955833E-1,-3.840410310E-1,-4.440252775E-1,2.083117354E-1,6.229283584E-1
3.864435833E-1,-3.454511619E-1,-4.229507428E-1,6.922343194E-2,5.504686364E-1
3.964915833E-1,-5.502984220E-1,-3.925534075E-1,5.278573017E-2,6.780212860E-1
4.065395833E-1,-7.375060943E-1,-3.769758403E-1,1.341713707E-1,8.390637520E-1
4.165875833E-1,-7.686091885E-1,-3.423287487E-1,1.399203531E-1,8.529517935E-1
4.266361667E-1,-8.136046824E-1,-3.258571422E-1,7.476833741E-2,8.796168260E-1
4.366841667E-1,-8.889709067E-1,-3.579916853E-1,3.890621264E-2,9.591355551E-1
4.467321667E-1,-9.246620187E-1,-3.568421227E-1,4.111059467E-2,9.919809627E-1
4.567801667E-1,-9.480462036E-1,-3.006895566E-1,7.688562334E-2,9.975556188E-1
4.668281667E-1,-9.093752043E-1,-2.065973318E-1,1.240346559E-1,9.407604985E-1
4.768771667E-1,-9.831097631E-1,-1.520556736E-1,1.886247450E-1,1.012524088E0
4.869251667E-1,-9.771314237E-1,-3.977276087E-2,2.727995074E-1,1.015276939E0
4.969731667E-1,-8.769804601E-1,3.754614115E-2,2.805394667E-1,9.215241899E-1
5.070211667E-1,-8.360641301E-1,-5.203027904E-2,2.962567824E-1,8.885260045E-1
5.170691667E-1,-8.157416935E-1,-2.361889207E-1,3.460616112E-1,9.170487204E-1
5.271171667E-1,-7.296608850E-1,-3.500359637E-1,3.036634505E-1,8.643735733E-1
5.371661667E-1,-6.398758654E-1,-4.005500597E-1,2.046981561E-1,7.821654611E-1
5.472141667E-1,-5.825538562E-1,-4.167924553E-1,1.305373261E-1,7.280967928E-1
5.572621667E-1,-5.388902119E-1,-4.100400907E-1,1.108164493E-1,6.861602013E-1
5.673101667E-1,-4.836905958E-1,-3.907957345E-1,1.051914096E-2,6.219232677E-1
5.773581667E-1,-4.433888081E-1,-4.033549690E-1,-1.188393774E-1,6.110741884E-1
5.874071667E-1,-3.582777603E-1,-4.326916194E-1,-2.466531161E-1,6.135330070E-1
5.974551667E-1,-3.146673256E-1,-4.658108336E-1,-3.170108896E-1,6.453612652E-1
6.075031667E-1,-2.712520418E-1,-5.077692837E-1,-2.850915241E-1,6.424052403E-1
6.175511667E-1,-2.453439063E-1,-5.642463702E-1,-2.703214574E-1,6.720426244E-1
6.275991667E-1,-3.101490359E-1,-6.112258244E-1,-2.676451868E-1,7.358147721E-1
6.376481667E-1,-2.617954861E-1,-5.503989941E-1,-3.187036586E-1,6.877848146E-1
6.476961667E-1,-2.181053831E-1,-4.214164335E-1,-4.008827662E-1,6.211833552E-1
6.577441667E-1,-2.701515958E-1,-3.967938083E-1,-4.250627937E-1,6.411751630E-1
6.677921667E-1,-3.381371722E-1,-4.105938220E-1,-3.550464427E-1,6.395170134E-1
6.778401667E-1,-3.640941319E-1,-4.193400872E-1,-2.648677228E-1,6.152768126E-1
6.878881667E-1,-3.428523669E-1,-4.240020722E-1,-2.375816910E-1,5.947861486E-1
6.979371667E-1,-2.850122944E-1,-4.313409126E-1,-2.431103064E-1,5.713051828E-1
7.079851667E-1,-2.792815845E-1,-4.483089477E-1,-1.865583025E-1,5.601634728E-1
7.180331667E-1,-3.021225630E-1,-4.432107604E-1,-9.203046005E-2,5.442273668E-1
7.280811667E-1,-3.129238321E-1,-4.581474727E-1,-2.319415033E-2,5.553002792E-1
7.381291667E-1,-3.535483861E-1,-5.004088086E-1,2.134526074E-2,6.130750828E-1
7.481781667E-1,-3.557706204E-1,-5.383309257E-1,3.274148405E-2,6.460997792E-1
7.582261667E-1,-3.202897158E-1,-5.505054134E-1,2.338593900E-2,6.373292826E-1
7.682741667E-1,-2.965637612E-1,-5.661455458E-1,1.162254710E-2,6.392229088E-1
7.783221667E-1,-3.844668545E-1,-5.915943825E-1,4.580354255E-2,7.070336910E-1
7.883701667E-1,-3.988574369E-1,-5.892648518E-1,9.929036301E-2,7.184559115E-1
7.984181667E-1,-3.986415285E-1,-5.624846041E-1,5.520882547E-2,6.916299679E-1
8.084671667E-1,-3.994798730E-1,-5.803267980E-1,-5.033926427E-2,7.063266970E-1
8.185151667E-1,-4.733525723E-1,-6.054335725E-1,-4.219522577E-2,7.696706475E-1
8.285631667E-1,-4.966978732E-1,-5.734165585E-1,-2.694627207E-2,7.591056767E-1
8.386111667E-1,-6.028651831E-1,-5.309727895E-1,-1.879119694E-2,8.035742911E-1
8.486591667E-1,-6.793724915E-1,-4.608295906E-1,-1.195927363E-2,8.210078672E-1
8.587081667E-1,-6.096903455E-1,-3.485542792E-1,-9.373788357E-2,7.085190144E-1
8.687561667E-1,-8.392331748E-1,-3.855490279E-1,-4.822019678E-2,9.248165018E-1
8.788041667E-1,-1.192835648E0,-4.665236092E-1,2.281004308E-1,1.300973085E0
8.888521667E-1,-1.335766887E0,-3.977773100E-1,3.577250157E-1,1.438911795E0
8.989001667E-1,-1.296214274E0,-3.543804449E-1,2.742063475E-1,1.371475871E0
9.089491667E-1,-1.254717608E0,-3.636044276E-1,6.071050722E-2,1.307750061E0
9.189971667E-1,-1.316213652E0,-3.169126564E-1,-4.732736349E-2,1.354655635E0
9.290451667E-1,-1.387217269E0,-2.393025631E-1,-1.026306946E-2,1.407743868E0
9.390931667E-1,-1.390518022E0,-1.524293107E-1,-2.135987878E-2,1.399010832E0
9.491411667E-1,-1.370238416E0,-1.404928046E-1,-4.165965736E-2,1.378051912E0
9.591891667E-1,-1.438546613E0,-1.372072542E-1,4.599185944E-2,1.445806847E0
9.692381667E-1,-1.434996037E0,-3.322387934E-3,1.130459744E-1,1.439445747E0
9.792861667E-1,-1.398476813E0,1.669052625E-1,1.158087472E-1,1.413154779E0
9.893341667E-1,-1.349087868E0,3.954512876E-1,4.381501414E-2,1.406534590E0
9.993821667E-1,-1.283106425E0,7.275836617E-1,5.359097399E-2,1.476012220E0
1.009430167E0,-1.195871961E0,1.094292961E0,1.278762674E-1,1.626019425E0
1.019479167E0,-1.113767259E0,1.335678302E0,1.183325151E-1,1.743134136E0
1.029527167E0,-1.087927536E0,1.416811928E0,2.404550493E-2,1.786482731E0
1.039575167E0,-1.093988175E0,1.411988559E0,-4.330272496E-2,1.786727999E0
1.049623167E0,-1.106953644E0,1.327243693E0,-1.798545063E-2,1.728365028E0
1.059671167E0,-1.133585958E0,1.197916147E0,5.024738990E-2,1.650013642E0
1.069719167E0,-1.143140893E0,1.085318069E0,1.597307289E-1,1.584361170E0
1.079768167E0,-1.201254761E0,9.894927299E-1,2.323496024E-1,1.573561312E0
1.089816167E0,-1.354029788E0,9.067657381E-1,3.864214325E-1,1.674796195E0
1.099864167E0,-1.446155595E0,9.474126577E-1,5.006941527E-1,1.799903159E0
1.109912167E0,-1.491307063E0,1.019435152E0,5.590247701E-1,1.890966282E0
1.119960167E0,-1.583240203E0,9.492510223E-1,6.197481412E-1,1.947258279E0
1.130009167E0,-1.635595149E0,8.386819285E-1,5.979941601E-1,1.932913833E0
1.140057167E0,-1.665234685E0,7.221761566E-1,5.691066124E-1,1.902216416E0
1.150105167E0,-1.707766309E0,4.990645337E-1,5.622144628E-1,1.865908968E0
1.160153167E0,-1.750123977E0,2.023154157E-1,5.057812303E-1,1.832943021E0
1.170201167E0,-1.740968407E0,-1.203766286E-1,3.892339432E-1,1.788005758E0
1.180249167E0,-1.646387647E0,-4.684181070E-1,3.064519876E-1,1.738942388E0
1.190298167E0,-1.503279822E0,-8.185944039E-1,2.862293923E-1,1.735475233E0
1.200346167E0,-1.488528612E0,-1.188227311E0,3.144790453E-1,1.930414111E0
1.210394167E0,-1.319605622E0,-1.457164147E0,2.262720064E-1,1.978859614E0
1.220442167E0,-1.080033064E0,-1.433504559E0,1.406836431E-2,1.794882909E0
1.230490167E0,-1.058355242E0,-1.347045289E0,-1.778355723E-1,1.722286945E0
1.240539167E0,-1.023492096E0,-1.211012156E0,-3.003562653E-1,1.613784496E0
1.250587167E0,-8.124922496E-1,-1.036550537E0,-3.873359370E-1,1.372810912E0
1.260635167E0,-7.439538190E-1,-8.114935452E-1,-5.778176846E-1,1.243327123E0
1.270683167E0,-7.507444829E-1,-4.493731409E-1,-8.164736918E-1,1.196738396E0
1.280731167E0,-7.695865506E-1,4.936219454E-3,-8.173138636E-1,1.122626285E0
1.290779167E0,-8.218660672E-1,3.599300373E-1,-6.814093691E-1,1.126646436E0
1.300828167E0,-8.734724231E-1,3.441022092E-1,-5.762454780E-1,1.101553110E0
1.310876167E0,-1.117409197E0,1.432655543E-1,-5.816312387E-1,1.267841958E0
1.320924167E0,-1.384560733E0,-4.760218263E-3,-4.015907910E-1,1.441633187E0
1.330972167E0,-1.449859806E0,-4.510892987E-2,-4.456864715E-2,1.451245891E0
1.341020167E0,-1.413530909E0,-3.297244906E-3,3.122582728E-1,1.447613806E0
1.351069167E0,-1.287375184E0,1.480164170E-2,6.516979122E-1,1.443005240E0
1.361117167E0,-1.199833888E0,-3.562766969E-2,9.755938983E-1,1.546820656E0
1.371165167E0,-1.374169646E0,-8.693406343E-2,1.221360558E0,1.840549201E0
1.381213167E0,-1.471941669E0,-9.321338832E-2,1.361500191E0,2.007232867E0
1.391261167E0,-1.215245686E0,-9.186911345E-2,1.267612034E0,1.758437454E0
1.401310167E0,-8.496121287E-1,-9.167907894E-2,9.372887886E-1,1.268367492E0
1.411358167E0,-7.380747360E-1,-1.057199979E-1,9.469390333E-1,1.205248757E0
1.421406542E0,-7.044932994E-1,-1.458587945E-2,1.093722857E0,1.301058510E0
1.431454542E0,-6.221121705E-1,7.720371187E-2,1.071802815E0,1.241670343E0
1.441502542E0,-4.435957995E-1,1.600494021E-1,9.028755856E-1,1.018615417E0
1.451550542E0,-4.700883642E-1,1.831412262E-1,7.144677722E-1,8.746359108E-1
1.461599542E0,-5.637078416E-1,1.997923422E-1,6.041887003E-1,8.501338108E-1
1.471647542E0,-5.670018706E-1,2.805792278E-1,4.983125818E-1,8.053143818E-1
1.481695542E0,-7.209385934E-1,2.557700765E-1,5.285374242E-1,9.297970727E-1
1.491743542E0,-8.845340395E-1,2.240787524E-1,6.268127471E-1,1.107025733E0
1.501791542E0,-9.292783955E-1,2.352954662E-1,6.617808509E-1,1.164850285E0
1.511840542E0,-9.496176428E-1,1.830459166E-1,6.262794811E-1,1.152174233E0
1.521888542E0,-9.391379705E-1,9.934536338E-2,5.464410138E-1,1.091076262E0
1.531936542E0,-9.652478349E-1,3.190650165E-2,4.649892998E-1,1.071884535E0
1.541984542E0,-9.790294299E-1,9.113938093E-2,3.440221024E-1,1.041708317E0
1.552032542E0,-9.235706359E-1,1.537946355E-1,2.400656247E-1,9.665748877E-1
1.562080542E0,-9.083193433E-1,1.368979365E-1,1.926669617E-1,9.385657316E-1
1.572129542E0,-8.898131981E-1,9.098735332E-2,1.685401440E-1,9.101933894E-1
1.582177542E0,-7.674409148E-1,9.547626078E-2,1.885615951E-1,7.960130333E-1
1.592225542E0,-7.420254073E-1,7.634884894E-2,2.790461244E-1,7.964280202E-1
1.602273542E0,-7.479237860E-1,2.436066985E-2,4.001823064E-1,8.486043308E-1
1.612321542E0,-7.166031754E-1,4.044519067E-3,4.536310834E-1,8.481259511E-1
1.622370542E0,-6.375833184E-1,4.505279660E-3,3.761134126E-1,7.402662254E-1
1.632418542E0,-5.665984127E-1,-2.946996689E-4,3.079102832E-1,6.448585819E-1
1.642466542E0,-4.494959325E-1,-4.716948867E-2,3.327428234E-1,5.612391117E-1
1.652514542E0,-2.761069849E-1,-3.867523849E-2,3.869739944E-1,4.769483342E-1
1.662562542E0,-3.700088829E-2,1.803281307E-2,3.786376190E-1,3.808683429E-1
1.672610542E0,1.726674011E-1,1.014702415E-1,3.278756011E-1,3.842039186E-1
1.682659542E0,3.287219855E-1,2.435113889E-1,2.703688198E-1,4.903623548E-1
1.692707542E0,4.756975982E-1,3.296063769E-1,2.876783689E-1,6.462874070E-1
1.702755542E0,6.248001355E-1,3.490460300E-1,2.971298083E-1,7.749157782E-1
1.712803542E0,8.248675892E-1,3.906975013E-1,2.751512392E-1,9.532886665E-1
1.722851542E0,1.002347249E0,3.964535004E-1,2.757698929E-1,1.112620519E0
1.732900542E0,1.107127307E0,4.042969555E-1,3.214132218E-1,1.221676455E0
1.742948542E0,1.254242375E0,4.404912204E-1,3.812472314E-1,1.382933803E0
1.752996542E0,1.435976762E0,5.199548811E-1,4.031614262E-1,1.579532043E0
1.763044542E0,1.572427386E0,6.159515440E-1,4.002278781E-1,1.735542147E0
1.773092542E0,1.684226734E0,6.941685784E-1,4.038584143E-1,1.865902282E0
1.783140542E0,1.834020705E0,7.860458779E-1,3.498313111E-1,2.025804041E0
1.793189542E0,1.980458373E0,8.945152366E-1,2.784911871E-1,2.190874305E0
1.803237542E0,2.140625889E0,1.046043491E0,1.735564703E-1,2.388850776E0
1.813285542E0,2.241178118E0,1.165496260E0,5.116896590E-2,2.526633957E0
1.823333542E0,2.336824533E0,1.335543231E0,-6.013864953E-2,2.692218653E0
1.833381542E0,2.379444888E0,1.711481191E0,-1.949993978E-1,2.937507550E0
1.843430542E0,2.345911106E0,2.467565936E0,-2.965281115E-1,3.417617516E0
1.853478542E0,2.478102034E0,3.251215040E0,-2.564109496E-1,4.095990174E0
1.863526542E0,2.610868328E0,3.573924041E0,-1.097522378E-3,4.426010357E0
1.873574542E0,2.520921779E0,3.357278270E0,4.414238513E-1,4.221518567E0
1.883622542E0,2.459757564E0,2.954891599E0,7.201845950E-1,3.911579922E0
1.893671542E0,2.570238950E0,2.709626046E0,5.817751533E-1,3.779770350E0
1.903719542E0,2.786159082E0,2.683817605E0,1.868729192E-1,3.873045424E0
1.913767542E0,3.053695511E0,2.692599539E0,-7.233648956E-2,4.071901413E0
1.923815542E0,3.235032286E0,2.497290257E0,5.464807749E-3,4.086798549E0
1.933863542E0,3.356646770E0,2.084427130E0,2.711049843E-1,3.960481273E0
1.943911542E0,3.568553374E0,1.609613339E0,3.828470296E-1,3.933446343E0
1.953960542E0,3.737906865E0,1.254169870E0,2.318362351E-1,3.949511088E0
1.964008542E0,3.772114246E0,9.627879113E-1,1.081327418E-2,3.893060927E0
1.974056542E0,3.742023890E0,7.512555295E-1,-2.186314863E-1,3.822947474E0
1.984104542E0,3.639844381E0,6.357847148E-1,-4.250610030E-1,3.719323350E0
1.994152542E0,3.436082364E0,4.913082021E-1,-5.712390554E-1,3.517720828E0
2.004201542E0,3.274376446E0,2.608349347E-1,-6.943293768E-1,3.357330674E0
2.014249542E0,3.098022668E0,-5.921826124E-2,-7.959212404E-1,3.199178312E0
2.024297542E0,2.942925857E0,-4.110078049E-1,-8.327815032E-1,3.085978783E0
2.034345542E0,2.741957640E0,-7.269059694E-1,-7.965533245E-1,2.946391214E0
2.044393542E0,2.552886752E0,-9.023645389E-1,-7.371432745E-1,2.806220365E0
2.054441542E0,2.435964074E0,-9.485166121E-1,-6.991615158E-1,2.705999179E0
2.064490542E0,2.357961340E0,-8.675022697E-1,-7.017798259E-1,2.608646545E0
2.074538542E0,2.343297400E0,-6.633648616E-1,-7.009267902E-1,2.534244268E0
2.084586542E0,2.282781350E0,-3.810624593E-1,-6.684677267E-1,2.408972476E0
2.094634542E0,2.172292363E0,-1.279078424E-1,-5.372041672E-1,2.241384135E0
2.104682542E0,2.158201158E0,9.433254540E-2,-5.098251647E-1,2.219606399E0
2.114731542E0,2.184556313E0,2.730667251E-1,-5.990582802E-1,2.281605256E0
2.124779542E0,2.205143190E0,4.637765872E-1,-6.862298137E-1,2.355558653E0
2.134827542E0,2.191526486E0,7.344529706E-1,-6.216555029E-1,2.393462987E0
2.144875542E0,2.167567520E0,1.005934516E0,-4.456338465E-1,2.430811126E0
2.154923542E0,2.103758610E0,1.241935741E0,-3.143872440E-1,2.463137027E0
2.164971542E0,1.920989559E0,1.383129042E0,-1.191756105E-1,2.370115959E0
2.175020542E0,1.776776171E0,1.461734916E0,8.531440297E-2,2.302364236E0
2.185068542E0,1.570767069E0,1.421710140E0,1.960319978E-1,2.127674188E0
2.195116542E0,1.342297058E0,1.256493554E0,3.595832974E-1,1.873456055E0
2.205164542E0,1.094811024E0,1.052150323E0,5.132013470E-1,1.602812249E0
2.215212542E0,6.233909565E-1,8.920442033E-1,6.331107831E-1,1.259042656E0
2.225261542E0,3.583603522E-1,6.417892206E-1,7.616068554E-1,1.058470854E0
2.235309542E0,1.388497370E-1,3.657257974E-1,8.512820935E-1,9.368648841E-1
2.245357542E0,-3.174862683E-2,1.113216305E-1,9.068762505E-1,9.142346605E-1
2.255405542E0,-1.767592826E-1,-1.234323835E-1,9.434225178E-1,9.677424473E-1
2.265453542E0,-3.846152276E-1,-2.943956137E-1,9.432295597E-1,1.060320543E0
2.275501542E0,-5.467535475E-1,-4.464834470E-1,8.687278461E-1,1.119363650E0
2.285550542E0,-7.163318646E-1,-5.982917833E-1,7.178135490E-1,1.177429696E0
2.295598542E0,-8.529830486E-1,-6.982072502E-1,5.062683034E-1,1.213004963E0
2.305646542E0,-9.476708123E-1,-7.487488282E-1,3.523941457E-1,1.258128137E0
2.315694542E0,-1.071379477E0,-7.690182012E-1,3.028039098E-1,1.353119797E0
2.325742542E0,-1.277253508E0,-7.246600538E-1,2.148863447E-1,1.484144487E0
2.335790542E0,-1.478051571E0,-7.059284985E-1,1.420592737E-1,1.644126616E0
2.345839542E0,-1.665063069E0,-7.287162673E-1,1.033378422E-1,1.820478270E0
2.355887542E0,-1.785043257E0,-7.792841578E-1,1.276096344E-1,1.951908667E0
2.365935542E0,-1.916844614E0,-7.434939355E-1,1.958162355E-1,2.065289448E0
2.375983542E0,-2.069889929E0,-6.975155246E-1,3.109268618E-1,2.206274629E0
2.386031542E0,-2.256027415E0,-6.995737445E-1,4.230261719E-1,2.399586269E0
2.396080542E0,-2.422906657E0,-6.729472786E-1,4.368665314E-1,2.552290554E0
2.406128542E0,-2.593107410E0,-6.427230209E-1,3.770284653E-1,2.698045475E0
2.416176542E0,-2.849220718E0,-6.131688541E-1,3.410786140E-1,2.934343089E0
2.426224417E0,-3.051233833E0,-5.886134720E-1,3.591851020E-1,3.128179608E0
2.436272417E0,-3.212419641E0,-6.589104527E-1,3.956810832E-1,3.303084385E0
2.446320417E0,-3.410466882E0,-7.390898126E-1,3.041090083E-1,3.502858889E0
2.456369417E0,-3.582226503E0,-7.362550825E-1,1.481017955E-1,3.660102786E0
2.466417417E0,-3.812259475E0,-6.688033569E-1,9.993124525E-2,3.871770459E0
2.476465417E0,-3.972434592E0,-5.200297254E-1,8.781582355E-2,4.007290746E0
2.486513417E0,-4.132368804E0,-3.462878984E-1,1.193064968E-2,4.146869854E0
2.496561417E0,-4.349659816E0,-2.023955226E-1,-4.268467426E-4,4.354366159E0
2.506610417E0,-4.494081365E0,-2.033720076E-2,-2.199721615E-2,4.494181215E0
2.516658417E0,-4.660560073E0,9.682228982E-2,-7.513906002E-2,4.662171236E0
2.526706417E0,-4.787771512E0,1.405161935E-1,-1.240416634E-1,4.791438948E0
2.536754417E0,-4.886714587E0,1.986334240E-1,-1.414897732E-1,4.892796138E0
2.546802417E0,-5.057610574E0,5.499914432E-1,-9.755727570E-2,5.088362480E0
2.556850417E0,-5.134107358E0,1.161357601E0,1.075431415E-1,5.264919312E0
2.566899417E0,-5.244631428E0,1.782866338E0,3.152128708E-1,5.548344830E0
2.576947417E0,-5.458316755E0,2.169878340E0,5.677810486E-1,5.901183705E0
2.586995417E0,-5.653072890E0,2.301026709E0,8.641483068E-1,6.164309313E0
2.597043417E0,-5.796522047E0,2.278915463E0,1.049917856E0,6.316284591E0
2.607091417E0,-5.897447913E0,2.073393434E0,1.082734770E0,6.344380726E0
2.617140417E0,-5.869909866E0,1.833869262E0,1.159679450E0,6.258096734E0
2.627188417E0,-5.748154464E0,1.579567421E0,1.439123733E0,6.132486453E0
2.637236417E0,-5.618810545E0,1.326547875E0,1.767011029E0,6.037639372E0
2.647284417E0,-5.509026148E0,1.013214299E0,2.034990238E0,5.959627302E0
2.657332417E0,-5.373594693E0,6.111971730E-1,2.221744312E0,5.846813636E0
2.667380417E0,-5.110993314E0,1.566621101E-1,2.166138461E0,5.553282949E0
2.677429417E0,-4.790742775E0,-3.172810310E-1,1.936769732E0,5.177157578E0
2.687477417E0,-4.490738512E0,-7.130533308E-1,1.670157748E0,4.844027698E0
2.697525417E0,-4.227739230E0,-8.734810477E-1,1.537260038E0,4.582566592E0
2.707573417E0,-3.903610817E0,-1.016925527E0,1.550797366E0,4.321722737E0
2.717621417E0,-3.597410260E0,-1.239037276E0,1.482873770E0,4.083563220E0
2.727670417E0,-3.300167930E0,-1.452726111E0,1.333820057E0,3.844554260E0
2.737718417E0,-2.918584483E0,-1.534381893E0,1.113238524E0,3.480195855E0
2.747766417E0,-2.515372771E0,-1.500561597E0,8.402519059E-1,3.047098382E0
2.757814417E0,-2.240585649E0,-1.281066477E0,5.432917035E-1,2.637521800E0
2.767862417E0,-1.953758671E0,-8.999098778E-1,2.759499872E-1,2.168676815E0
2.777910417E0,-1.753923790E0,-5.115582794E-1,2.427763939E-2,1.827164453E0
2.787959417E0,-1.591847012E0,-1.445314765E-1,-3.149082309E-1,1.629120454E0
2.798007417E0,-1.479321733E0,1.384731764E-1,-5.744673032E-1,1.592978434E0
2.808055417E0,-1.399383717E0,3.851946867E-1,-7.163137382E-1,1.618565755E0
2.818103417E0,-1.207247134E0,7.259557968E-1,-7.086831218E-1,1.576923977E0
2.828151417E0,-1.117331137E0,1.134660968E0,-5.531869465E-1,1.685793635E0
2.838199417E0,-1.286432175E0,1.219599962E0,-2.934144509E-1,1.796781524E0
2.848248417E0,-1.357460642E0,1.204663834E0,-3.879510641E-2,1.815329008E0
2.858296417E0,-1.211402165E0,1.274052157E0,1.981164936E-1,1.769167672E0
2.868344417E0,-9.935881197E-1,1.199123012E0,4.525779998E-1,1.621709036E0
2.878392417E0,-9.997706732E-1,1.155726147E0,6.281254470E-1,1.652206374E0
2.888440417E0,-8.814432013E-1,1.230476367E0,7.116839129E-1,1.672575320E0
2.898489417E0,-7.203415927E-1,1.208614798E0,8.005955046E-1,1.618825161E0
2.908537417E0,-6.500764793E-1,1.202907915E0,8.993105382E-1,1.636565405E0
2.918585417E0,-6.005309746E-1,1.143684976E0,1.021384029E0,1.646778100E0
2.928633417E0,-5.352906659E-1,1.130318826E0,1.111397821E0,1.673129362E0
2.938681417E0,-3.319721603E-1,1.210613961E0,1.241030592E0,1.765204976E0
2.948729417E0,-1.534458491E-1,1.235848789E0,1.407379199E0,1.879250933E0
2.958778417E0,-1.651399881E-2,1.290523179E0,1.600867074E0,2.056331242E0
2.968826417E0,1.593193772E-1,1.437765425E0,1.776050824E0,2.290613152E0
2.978874417E0,4.246543291E-1,1.532682692E0,1.881342806E0,2.463513403E0
2.988922417E0,6.611092982E-1,1.502368972E0,1.895991250E0,2.507780065E0
2.998970417E0,8.667321914E-1,1.489180577E0,1.929761260E0,2.587056629E0
3.009019417E0,1.154682419E0,1.512018047E0,1.980706880E0,2.746395785E0
3.019067417E0,1.489722029E0,1.571206487E0,1.984734442E0,2.937198045E0
3.029115417E0,1.796822473E0,1.609503996E0,1.970647330E0,3.114887640E0
3.039163417E0,2.047208433E0,1.520851436E0,2.092548913E0,3.298910792E0
3.049211417E0,2.349478492E0,1.504298553E0,2.179440876E0,3.540187263E0
3.059259417E0,2.649937668E0,1.520989430E0,2.169264382E0,3.747170459E0
3.069308417E0,2.881254689E0,1.470237352E0,2.120319679E0,3.867684320E0
3.079356417E0,3.018018724E0,1.433788149E0,2.137004124E0,3.966228952E0
3.089404417E0,3.177320268E0,1.484667696E0,2.168851569E0,4.123532391E0
3.099452417E0,3.442148266E0,1.609673565E0,2.092921965E0,4.338174273E0
3.109500417E0,3.691945996E0,1.616262792E0,1.940559897E0,4.473091031E0
3.119549417E0,3.689746274E0,1.474861330E0,1.950438184E0,4.426471802E0
3.129597417E0,3.734214349E0,1.430747012E0,2.035179541E0,4.487020122E0
3.139645417E0,3.914110955E0,1.497349722E0,1.923725764E0,4.611186569E0
3.149693417E0,4.101063396E0,1.533144037E0,1.756950309E0,4.717639877E0
3.159741417E0,4.074086097E0,1.469699993E0,1.684261233E0,4.647034700E0
3.169789417E0,4.091259370E0,1.376553848E0,1.713513829E0,4.644290405E0
3.179838417E0,4.241562048E0,1.353543300E0,1.733752066E0,4.777951894E0
3.189886417E0,4.342513057E0,1.356706644E0,1.635668532E0,4.834613130E0
3.199934417E0,4.366084937E0,1.359007523E0,1.529891231E0,4.821842626E0
3.209982417E0,4.262457658E0,1.425165845E0,1.482128835E0,4.732478088E0
3.220030417E0,4.241757345E0,1.569879169E0,1.392390447E0,4.732417684E0
3.230079417E0,4.359950624E0,1.865821956E0,1.136748936E0,4.876746780E0
3.240127417E0,4.273318276E0,2.031198757E0,8.859011185E-1,4.813713564E0
3.250175417E0,4.171690745E0,2.039835094E0,8.307266454E-1,4.717418536E0
3.260223417E0,4.181698839E0,2.185862288E0,6.896124279E-1,4.768664847E0
3.270271417E0,4.174421979E0,2.472907367E0,5.692989858E-1,4.885199182E0
3.280319417E0,4.109803814E0,2.675127473E0,5.136393400E-1,4.930580064E0
3.290368417E0,4.064438192E0,2.741326141E0,3.831505001E-1,4.917451691E0
3.300416417E0,4.004878453E0,2.907636157E0,2.551818466E-1,4.955655075E0
3.310464417E0,3.938870405E0,3.272364419E0,1.266740799E-1,5.122413033E0
3.320512417E0,3.772199031E0,3.629856167E0,3.252219519E-2,5.235112131E0
3.330560417E0,3.680928673E0,3.841827675E0,-4.532761574E-3,5.320610522E0
3.340608417E0,3.673516742E0,3.963833338E0,5.951880813E-2,5.404650079E0
3.350657417E0,3.607071322E0,3.721240547E0,2.196167421E-1,5.187179026E0
3.360705417E0,3.504840358E0,3.201488564E0,4.167813456E-1,4.765201113E0
3.370753417E0,3.313297852E0,2.600188973E0,5.286912060E-1,4.244813276E0
3.380801417E0,3.203569588E0,1.952468922E0,4.088513517E-1,3.773877638E0
3.390849417E0,3.143432729E0,1.256680664E0,1.984393148E-1,3.391134586E0
3.400898417E0,2.973469373E0,6.850264567E-1,1.846902450E-2,3.051413191E0
3.410946417E0,2.779380405E0,2.963579392E-1,-7.834567308E-2,2.796233450E0
3.420994458E0,2.566983220E0,6.715234816E-2,-1.696242177E-1,2.573457725E0
3.431042458E0,2.312753885E0,4.454993606E-3,-3.087780100E-1,2.333279717E0
3.441090458E0,2.130624227E0,-1.278248119E-1,-4.675690913E-1,2.185067421E0
3.451138458E0,1.987948657E0,-2.382945031E-1,-6.377248210E-1,2.101289385E0
3.461187458E0,1.774235848E0,-1.699557549E-1,-6.813432956E-1,1.908147397E0
3.471235458E0,1.514395525E0,6.188751519E-2,-6.235347980E-1,1.638908025E0
3.481283458E0,1.377681191E0,4.297925699E-1,-6.359115994E-1,1.577057602E0
3.491331458E0,1.140786219E0,6.826495636E-1,-6.770988017E-1,1.491933782E0
3.501379458E0,7.547814006E-1,9.237097996E-1,-6.714673483E-1,1.368869299E0
3.511428458E0,4.788311210E-1,1.048430910E0,-5.253325653E-1,1.266673170E0
3.521476458E0,2.976121670E-1,1.072343683E0,-3.380772382E-1,1.163095093E0
3.531524458E0,1.857321274E-1,1.084926306E0,-2.309913307E-1,1.124685960E0
3.541572458E0,1.729998153E-1,1.109126762E0,-1.188475817E-1,1.128811702E0
3.551620458E0,9.724504352E-2,1.133264653E0,4.937973619E-2,1.138500650E0
3.561668458E0,-5.523806155E-2,1.111949213E0,2.464846981E-1,1.140279353E0
3.571717458E0,-1.502845520E-1,1.138705487E0,3.766554129E-1,1.208761736E0
3.581765458E0,-1.964146981E-1,1.127563618E0,4.440258622E-1,1.227655250E0
3.591813458E0,-2.988447601E-1,1.002554240E0,3.232177091E-1,1.094939671E0
3.601861458E0,-3.983225629E-1,8.840598303E-1,5.371954878E-2,9.711377027E-1
3.611909458E0,-5.159235182E-1,7.185812885E-1,-2.021768367E-1,9.074203095E-1
3.621958458E0,-7.055934530E-1,4.280933690E-1,-4.174818420E-1,9.248876375E-1
3.632006458E0,-8.323827231E-1,1.682974845E-1,-6.154574543E-1,1.048795938E0
3.642054458E0,-9.447784871E-1,1.777261198E-2,-7.772610211E-1,1.223542786E0
3.652102458E0,-1.188331099E0,-8.472615480E-2,-8.018123102E-1,1.436040495E0
3.662150458E0,-1.366067159E0,-1.356717753E-1,-8.059854680E-1,1.591904170E0
3.672198458E0,-1.535917664E0,-1.432690626E-1,-9.101220399E-1,1.791058687E0
3.682247458E0,-1.764095899E0,-3.816419184E-2,-1.085330422E0,2.071577411E0
3.692295458E0,-1.883436401E0,9.708775342E-2,-1.300706105E0,2.290981249E0
3.702343458E0,-1.965014707E0,2.394095671E-1,-1.469576617E0,2.465411766E0
3.712391458E0,-2.156307391E0,4.378395081E-1,-1.419009311E0,2.618196407E0
3.722439458E0,-2.288360617E0,4.954322433E-1,-1.243512735E0,2.651107569E0
3.732487458E0,-2.365169495E0,4.420448256E-1,-1.199591959E0,2.688577921E0
3.742536458E0,-2.370791008E0,3.829055017E-1,-1.300874505E0,2.731216049E0
3.752584458E0,-2.458279973E0,4.105259943E-1,-1.314905484E0,2.817915621E0
3.762632458E0,-2.673556911E0,3.667443824E-1,-1.155591661E0,2.935608981E0
3.772680458E0,-2.920831568E0,1.459950346E-1,-1.096534125E0,3.123292924E0
3.782728458E0,-3.146022753E0,-5.112513006E-2,-1.091064640E0,3.330239480E0
3.792777458E0,-3.346648616E0,-1.700171506E-1,-1.084632264E0,3.522128609E0
3.802825458E0,-3.516584783E0,-2.999598241E-1,-1.073266958E0,3.688935672E0
3.812873458E0,-3.727612550E0,-4.166445208E-1,-1.065275568E0,3.899166580E0
3.822921458E0,-3.995998287E0,-5.987028426E-1,-1.099363081E0,4.187486906E0
3.832969458E0,-4.172106482E0,-7.911440653E-1,-1.162475004E0,4.402695715E0
3.843017458E0,-4.349246418E0,-9.154318964E-1,-1.246218241E0,4.615952758E0
3.853066458E0,-4.467742582E0,-9.976308846E-1,-1.291906630E0,4.756575859E0
3.863114458E0,-4.529019648E0,-1.116639265E0,-1.296163988E0,4.841378244E0
3.873162458E0,-4.632215111E0,-1.152175718E0,-1.324569177E0,4.953726801E0
3.883210458E0,-4.641732624E0,-1.064396147E0,-1.359504536E0,4.952461357E0
3.893258458E0,-4.648492590E0,-9.702121210E-1,-1.383731451E0,4.946160900E0
3.903307458E0,-4.619177866E0,-8.743364954E-1,-1.403216566E0,4.906147694E0
3.913355458E0,-4.591914931E0,-7.288764811E-1,-1.336393417E0,4.837653462E0
3.923403458E0,-4.522979182E0,-5.572355586E-1,-1.209230582E0,4.714879717E0
3.933451458E0,-4.495480896E0,-4.150178254E-1,-1.037011955E0,4.632168183E0
3.943499458E0,-4.418711632E0,-2.649069357E-1,-8.749405859E-1,4.512284256E0
3.953547458E0,-4.272731216E0,-1.898140687E-1,-7.800309934E-1,4.347494655E0
3.963596458E0,-4.140515145E0,-9.639544308E-2,-7.245286377E-1,4.204533208E0
3.973644458E0,-3.975711664E0,-3.291339219E-2,-5.797164217E-1,4.017889702E0
3.983692458E0,-3.926129907E0,-9.392090142E-2,-3.044984329E-1,3.939040045E0
3.993740458E0,-3.916233787E0,-2.069481647E-1,-4.536744989E-2,3.921960329E0
4.003788458E0,-3.823953614E0,-2.357813698E-1,6.160326742E-2,3.831710983E0
4.013836458E0,-3.718436514E0,-1.117133939E-1,1.273482639E-1,3.722293322E0
4.023885458E0,-3.607955129E0,1.112842083E-1,3.402196580E-1,3.625668739E0
4.033933458E0,-3.436147561E0,3.906916541E-1,6.026940789E-1,3.510411683E0
4.043981458E0,-3.283538741E0,6.136968577E-1,8.013199747E-1,3.435165818E0
4.054029458E0,-3.152754068E0,7.844612825E-1,9.140471296E-1,3.375014055E0
4.064077458E0,-3.023214853E0,9.334904373E-1,9.096718043E-1,3.292223448E0
4.074126458E0,-2.901802682E0,9.271777833E-1,8.638161850E-1,3.166432669E0
4.084174458E0,-2.799405072E0,7.765570164E-1,8.316518211E-1,3.021813083E0
4.094222458E0,-2.732381363E0,6.504653192E-1,9.862305683E-1,2.976854678E0
4.104270458E0,-2.631750197E0,6.183196664E-1,1.314656977E0,3.006118972E0
4.114318458E0,-2.440772678E0,5.518251300E-1,1.689662306E0,3.019410695E0
4.124366458E0,-2.257050677E0,4.496736878E-1,2.142112252E0,3.144062513E0
4.134415458E0,-2.148088252E0,4.534708697E-1,2.550954248E0,3.365603444E0
4.144463458E0,-1.836625054E0,4.462524819E-1,2.761041782E0,3.345995307E0
4.154511458E0,-1.589778560E0,4.155048984E-1,2.851336241E0,3.290920623E0
4.164559458E0,-1.450884676E0,3.851748061E-1,2.977909164E0,3.334871656E0
4.174607458E0,-1.565136785E0,4.587123138E-1,3.043924813E0,3.453338734E0
4.184656458E0,-1.620683872E0,6.095272082E-1,3.173002684E0,3.614704090E0
4.194704458E0,-1.726182699E0,6.486012268E-1,3.234455166E0,3.723182843E0
4.204752458E0,-1.995457797E0,5.684733224E-1,3.060471264E0,3.697498898E0
4.214800458E0,-2.088173441E0,4.238868821E-1,2.890162922E0,3.590708861E0
4.224848458E0,-2.407944071E0,2.038590807E-1,3.018115788E0,3.866364711E0
4.234896458E0,-2.675211089E0,4.719229281E-2,3.321310292E0,4.264983416E0
4.244945458E0,-2.735541783E0,-1.615369338E-1,3.690168443E0,4.596370977E0
4.254993458E0,-2.747119854E0,-4.257807952E-1,3.867183541E0,4.762674177E0
4.265041458E0,-2.734131727E0,-6.333668911E-1,3.840027902E0,4.756305731E0
4.275089458E0,-2.707336569E0,-8.006335115E-1,3.797278908E0,4.731808579E0
4.285137458E0,-2.736976397E0,-9.628206557E-1,3.854155945E0,4.824166400E0
4.295185458E0,-2.772913092E0,-9.915755081E-1,3.898415859E0,4.885684723E0
4.305234458E0,-2.831501023E0,-1.021673466E0,3.979616143E0,4.989845625E0
4.315282458E0,-2.877128601E0,-9.845600188E-1,4.050463346E0,5.064926528E0
4.325330458E0,-2.909283902E0,-8.305583918E-1,4.171631688E0,5.153277695E0
4.335378458E0,-2.994505316E0,-6.402648515E-1,4.235392066E0,5.226427759E0
4.345426458E0,-3.099103233E0,-5.664367372E-1,4.266164793E0,5.303343612E0
4.355475458E0,-3.252046222E0,-4.713288510E-1,4.422658503E0,5.509797070E0
4.365523458E0,-3.467271997E0,-3.854151267E-1,4.552328696E0,5.735347983E0
4.375571458E0,-3.642337049E0,-3.509604084E-1,4.601890866E0,5.879387037E0
4.385619458E0,-3.845036919E0,-3.398881209E-1,4.714014734E0,6.092763557E0
4.395667458E0,-4.073049971E0,-2.578937852E-1,4.820815297E0,6.316368055E0
4.405715458E0,-4.183365296E0,-1.842481041E-1,4.823534253E0,6.387564109E0
4.415764458E0,-4.229147825E0,-2.051133084E-1,4.802797687E0,6.402704773E0
4.425812542E0,-4.291505164E0,-3.093907982E-1,4.968456323E0,6.572541173E0
4.435860542E0,-4.377189969E0,-2.456327587E-1,5.088089186E0,6.716306950E0
4.445908542E0,-4.419616489E0,8.840171456E-2,5.067420448E0,6.724550154E0
4.455956542E0,-4.461091082E0,2.966906458E-1,5.169123409E0,6.834412615E0
4.466005542E0,-4.574312181E0,4.064171559E-1,5.464585555E0,7.138011075E0
4.476053542E0,-4.454328485E0,5.439916152E-1,5.867678568E0,7.386922289E0
4.486101542E0,-4.384405141E0,5.339478528E-1,6.220115983E0,7.628758195E0
4.496149542E0,-4.389487833E0,5.485729086E-1,6.429228787E0,7.804070635E0
4.506197542E0,-4.221214030E0,5.353856832E-1,6.523131562E0,7.788230293E0
4.516245542E0,-4.096792005E0,5.345922160E-1,6.539752858E0,7.735493586E0
4.526294542E0,-3.982693532E0,4.634304321E-1,6.595099093E0,7.718286570E0
4.536342542E0,-3.857340923E0,4.294201022E-1,6.632405498E0,7.684548348E0
4.546390542E0,-3.735345785E0,7.118178141E-1,6.672715033E0,7.680144442E0
4.556438542E0,-3.590766946E0,9.123498291E-1,6.770089885E0,7.717519454E0
4.566486542E0,-3.368282729E0,9.594403803E-1,6.790025382E0,7.640045751E0
4.576535542E0,-2.978284555E0,9.954393482E-1,6.634647321E0,7.340274072E0
4.586583542E0,-2.655427034E0,1.031223139E0,6.444953120E0,7.046427081E0
4.596631542E0,-2.274235644E0,1.136740238E0,6.290178491E0,6.784590745E0
4.606679542E0,-1.887976179E0,1.186660842E0,6.113653389E0,6.507639800E0
4.616727542E0,-1.619253205E0,1.215574738E0,5.927771573E0,6.264030548E0
4.626775542E0,-1.335779459E0,1.227120066E0,5.834169345E0,6.109636844E0
4.636824542E0,-1.193454429E0,1.153555661E0,5.724793668E0,5.960560936E0
4.646872542E0,-1.079040499E0,1.113989891E0,5.539494234E0,5.752503650E0
4.656920542E0,-8.795033875E-1,1.045384510E0,5.360894541E0,5.532227875E0
4.666968542E0,-6.770162098E-1,8.837709779E-1,5.205226457E0,5.322948859E0
4.677016542E0,-5.301476012E-1,7.027809423E-1,4.967143039E0,5.044548295E0
4.687064542E0,-4.047647327E-1,4.989136755E-1,4.627457231E0,4.671842225E0
4.697113542E0,-2.685170066E-1,3.361605209E-1,4.308351284E0,4.329780141E0
4.707161542E0,-1.484912109E-1,2.890606141E-1,3.983851866E0,3.997084108E0
4.717209542E0,-1.319541156E-2,2.561051220E-1,3.567582736E0,3.576787739E0
4.727257542E0,1.178699273E-1,2.340541023E-1,3.115657285E0,3.126658754E0
4.737305542E0,1.917845803E-1,3.486297083E-1,2.747141197E0,2.775807766E0
4.747354542E0,3.768752682E-1,4.509501350E-1,2.429347365E0,2.499423856E0
4.757402542E0,5.723944652E-1,4.490579760E-1,2.096126239E0,2.218791045E0
4.767450542E0,7.106925175E-1,4.921730053E-1,1.843173351E0,2.035830574E0
4.777498542E0,8.701282543E-1,6.349356991E-1,1.582412091E0,1.914234716E0
4.787546542E0,1.114147474E0,8.477690864E-1,1.290411497E0,1.903995496E0
4.797594542E0,1.359995703E0,1.048250231E0,9.949283016E-1,1.984514848E0
4.807643542E0,1.497105601E0,1.028878990E0,8.071146385E-1,1.987800592E0
4.817691542E0,1.632534424E0,9.087958914E-1,6.419599593E-1,1.975649566E0
4.827739542E0,1.819723970E0,8.721303409E-1,3.995882292E-1,2.057104132E0
4.837787542E0,2.052695753E0,9.085216570E-1,1.991421318E-1,2.253581381E0
4.847835542E0,2.206572542E0,1.063664660E0,8.855492989E-2,2.451160310E0
4.857884542E0,2.366729532E0,1.203841715E0,6.426791668E-2,2.656082439E0
4.867932542E0,2.660987444E0,1.272486273E0,4.922885975E-2,2.949999826E0
4.877980542E0,3.046958641E0,1.299824930E0,-2.581662655E-2,3.312728227E0
4.888028542E0,3.288305098E0,1.283491318E0,5.536143780E-3,3.529919409E0
4.898076542E0,3.363948481E0,1.323633623E0,1.091429762E-1,3.616637601E0
4.908124542E0,3.604987959E0,1.344592382E0,4.633216739E-2,3.847858304E0
4.918173542E0,3.808859027E0,1.273163965E0,-1.365161316E-1,4.018331771E0
4.928221542E0,4.017053233E0,1.181494242E0,-3.745796514E-1,4.203921412E0
4.938269542E0,4.252232340E0,1.138279225E0,-7.207488513E-1,4.460564804E0
4.948317542E0,4.342985804E0,1.143071603E0,-9.144460559E-1,4.583050292E0
4.958365542E0,4.404807831E0,1.204088468E0,-9.188408232E-1,4.657942628E0
4.968413542E0,4.361743380E0,1.260000713E0,-8.048914540E-1,4.610884662E0
4.978462542E0,4.235236823E0,1.302010619E0,-6.449420393E-1,4.477545402E0
4.988510542E0,4.162047809E0,1.346342454E0,-5.246344078E-1,4.405737308E0
4.998558542E0,4.055479088E0,1.350951814E0,-4.700155663E-1,4.300336739E0
5.008606542E0,3.976875845E0,1.333095002E0,-3.537261415E-1,4.209252422E0
5.018654542E0,3.827884989E0,1.369188110E0,-2.094671452E-1,4.070780768E0
5.028703542E0,3.641079021E0,1.395135130E0,-7.352640708E-2,3.899905717E0
5.038751542E0,3.490779558E0,1.436627557E0,-7.765453219E-2,3.775641785E0
5.048799542E0,3.424765663E0,1.423308769E0,-1.821746814E-1,3.713221689E0
5.058847542E0,3.382316339E0,1.338911228E0,-2.952247671E-1,3.649644470E0
5.068895542E0,3.214869625E0,1.333940510E0,-3.003352153E-1,3.493563400E0
5.078943542E0,2.950747970E0,1.343021235E0,-1.407319558E-1,3.245061649E0
5.088992542E0,2.709017351E0,1.189372780E0,-4.059721828E-2,2.958890121E0
5.099040542E0,2.476182100E0,8.752410597E-1,-8.300941229E-2,2.627625405E0
5.109088542E0,2.290528033E0,5.780914074E-1,-2.470343363E-1,2.375233528E0
5.119136542E0,2.117129438E0,2.799892437E-1,-2.651677215E-1,2.151963047E0
5.129184542E0,1.896487094E0,2.974478602E-3,-1.155667273E-1,1.900007320E0
5.139232542E0,1.594304159E0,-1.675583965E-1,5.750267903E-2,1.604115995E0
5.149281542E0,1.381271966E0,-2.769323194E-1,1.499085760E-1,1.416713216E0
5.159329542E0,1.289130372E0,-3.486320472E-1,1.238323331E-1,1.341169590E0
5.169377542E0,1.231335616E0,-4.314742291E-1,2.415017009E-2,1.304967678E0
5.179425542E0,1.158071173E0,-5.553545094E-1,-4.873303413E-2,1.285271326E0
5.189473542E0,1.057487662E0,-6.633864963E-1,-8.161251247E-2,1.251008553E0
5.199522542E0,9.019987956E-1,-7.333437538E-1,-7.627927164E-2,1.164995028E0
5.209570542E0,7.646377596E-1,-7.598795879E-1,-1.115175122E-1,1.083754606E0
5.219618542E0,6.460948178E-1,-7.667073816E-1,-1.444478522E-1,1.012987613E0
5.229666542E0,5.194394490E-1,-7.849653125E-1,-1.032507187E-1,9.469153045E-1
5.239714542E0,3.899417487E-1,-7.255944389E-1,-6.877086659E-2,8.266022558E-1
5.249762542E0,1.695508352E-1,-6.526422375E-1,1.438997945E-2,6.744601155E-1
5.259811542E0,-8.551231295E-2,-5.934000027E-1,1.276628349E-1,6.129712214E-1
5.269859542E0,-3.044168642E-1,-5.029295433E-1,1.325575483E-1,6.026435566E-1
5.279907542E0,-5.180815794E-1,-4.135560215E-1,7.958353777E-2,6.676605764E-1
5.289955542E0,-7.648146379E-1,-3.452693135E-1,1.596933980E-2,8.392897884E-1
5.300003542E0,-1.053281175E0,-2.872169870E-1,-2.413436433E-2,1.092006089E0
5.310052542E0,-1.338695612E0,-2.671668845E-1,3.437870443E-2,1.365527729E0
5.320100542E0,-1.632640405E0,-3.114045793E-1,1.246918921E-1,1.666744003E0
5.330148542E0,-1.907997046E0,-4.362800556E-1,1.401448770E-1,1.962252176E0
5.340196542E0,-2.208978817E0,-5.282719606E-1,7.387723088E-2,2.272469257E0
5.350244542E0,-2.535277278E0,-5.873902345E-1,-2.665221194E-2,2.602569596E0
5.360292542E0,-2.897977726E0,-6.871764779E-1,-1.216150689E-1,2.980818115E0
5.370341542E0,-3.222948138E0,-7.687264252E-1,-2.477038425E-1,3.322603228E0
5.380389542E0,-3.500330693E0,-8.491618931E-1,-3.826195729E-1,3.622124876E0
5.390437542E0,-3.722947934E0,-8.244521445E-1,-4.461192020E-1,3.839151599E0
5.400485542E0,-3.930425856E0,-6.706727117E-1,-4.922145206E-1,4.017502263E0
5.410533542E0,-4.127292252E0,-4.461267668E-1,-5.701620348E-1,4.190304902E0
5.420581542E0,-4.300194711E0,-2.402164829E-1,-6.390913153E-1,4.354057443E0
5.430630667E0,-4.485721601E0,-4.078023612E-2,-6.628368580E-1,4.534612884E0
5.440678667E0,-4.588037350E0,1.696522844E-1,-6.827420226E-1,4.641659756E0
5.450726667E0,-4.690146107E0,3.291760218E-1,-7.535763625E-1,4.761691369E0
5.460774667E0,-4.828417847E0,3.976282060E-1,-8.651581210E-1,4.921404847E0
5.470822667E0,-4.964655048E0,3.989414907E-1,-9.661062793E-1,5.073491441E0
5.480871667E0,-5.120206187E0,2.614219952E-1,-9.906808841E-1,5.221714419E0
5.490919667E0,-5.255290902E0,9.371624887E-2,-8.865454817E-1,5.330368476E0
5.500967667E0,-5.345571327E0,-1.280253714E-1,-7.392471758E-1,5.397963477E0
5.511015667E0,-5.349077902E0,-3.412458444E-1,-6.811094069E-1,5.403054058E0
5.521063667E0,-5.236422522E0,-9.911966085E-2,-6.870127559E-1,5.282227945E0
5.531111667E0,-4.954658064E0,6.711855125E-1,-6.175764122E-1,5.037909005E0
5.541160667E0,-4.804221484E0,1.375387913E0,-5.696146258E-1,5.029582170E0
5.551208667E0,-4.847552860E0,1.806207839E0,-6.978183373E-1,5.219971832E0
5.561256667E0,-4.765592146E0,2.034945652E0,-8.360916120E-1,5.248897170E0
5.571304667E0,-4.638070220E0,2.094596023E0,-9.160657346E-1,5.170899757E0
5.581352667E0,-4.630231735E0,2.156585864E0,-9.071709502E-1,5.187761333E0
5.591400667E0,-4.623470892E0,2.196415928E0,-7.091291913E-1,5.167551667E0
5.601449667E0,-4.649625195E0,2.041774616E0,-4.079778143E-1,5.094536675E0
5.611497667E0,-4.764519475E0,1.717686256E0,-1.810824946E-1,5.067926871E0
5.621545667E0,-4.818772280E0,1.369312071E0,-9.972952545E-2,5.010541669E0
5.631593667E0,-4.832289581E0,1.075673672E0,-6.777796369E-2,4.951029216E0
5.641641667E0,-4.834439310E0,7.542276692E-1,-4.845412195E-2,4.893159574E0
5.651690667E0,-4.753622019E0,4.189261043E-1,4.157077968E-2,4.772226892E0
5.661738667E0,-4.587290660E0,1.115870941E-1,2.204909009E-1,4.593942046E0
5.671786667E0,-4.342725019E0,-1.512130898E-1,3.808490725E-1,4.362014672E0
5.681834667E0,-3.974365343E0,-4.053453612E-1,4.238383867E-1,4.017402608E0
5.691882667E0,-3.550291935E0,-6.348930144E-1,3.641949964E-1,3.624955166E0
5.701930667E0,-3.145913703E0,-7.734948295E-1,3.156146111E-1,3.254946983E0
5.711979667E0,-2.728231886E0,-7.656168759E-1,2.861153716E-1,2.848030974E0
5.722027667E0,-2.231686625E0,-6.653049678E-1,1.756579596E-1,2.335361131E0
5.732075667E0,-1.780260381E0,-4.729953074E-1,8.940977454E-3,1.842045473E0
5.742123667E0,-1.440799984E0,-1.101410776E-1,-3.931667805E-2,1.445538464E0
5.752171667E0,-1.211419415E0,4.285319102E-1,2.695018239E-3,1.284983992E0
5.762219667E0,-1.061518148E0,9.033527184E-1,-4.098952990E-2,1.394470169E0
5.772268667E0,-9.270076293E-1,1.181662642E0,-1.119034650E-1,1.506051835E0
5.782316667E0,-7.805682063E-1,1.377168975E0,-9.939627070E-2,1.586114980E0
5.792364667E0,-5.790439188E-1,1.516473041E0,-8.340468407E-3,1.623284296E0
5.802412667E0,-4.997451496E-1,1.572507493E0,1.821571581E-1,1.660032006E0
5.812460667E0,-5.266239229E-1,1.729457286E0,4.633859932E-1,1.866301647E0
5.822509667E0,-4.434385094E-1,1.951591839E0,7.389705294E-1,2.133407102E0
5.832557667E0,-4.635447451E-1,2.067490085E0,9.611091757E-1,2.326611233E0
5.842605667E0,-4.751327571E-1,2.117606571E0,1.138697301E0,2.450844807E0
5.852653667E0,-4.595461267E-1,2.088098597E0,1.313827257E0,2.509478124E0
5.862701667E0,-4.984917989E-1,2.017244961E0,1.530810413E0,2.580920733E0
5.872749667E0,-5.128692251E-1,1.950623540E0,1.718748111E0,2.649917377E0
5.882798667E0,-4.586006320E-1,1.813853073E0,1.892695760E0,2.661329508E0
5.892846667E0,-4.080219242E-1,1.673781268E0,2.030941479E0,2.663221530E0
5.902894667E0,-2.682228917E-1,1.564532475E0,2.169382496E0,2.688108220E0
5.912942667E0,-8.821109533E-2,1.478629861E0,2.234447973E0,2.680836662E0
5.922990667E0,8.641775429E-2,1.510153955E0,2.235555435E0,2.699211200E0
5.933039667E0,3.111285907E-1,1.579710678E0,2.200401975E0,2.726546474E0
5.943087667E0,5.375339502E-1,1.622592988E0,2.157658828E0,2.752679126E0
5.953135667E0,7.404738486E-1,1.691629894E0,1.975070164E0,2.703851951E0
5.963183667E0,1.037169757E0,1.762474759E0,1.709344618E0,2.665313753E0
5.973231667E0,1.396101674E0,1.845470138E0,1.489757112E0,2.752133021E0
5.983279667E0,1.738637415E0,1.862318889E0,1.447997468E0,2.930492855E0
5.993328667E0,2.105152001E0,1.820702502E0,1.433517423E0,3.130749870E0
6.003376667E0,2.513564812E0,1.770920477E0,1.284050896E0,3.332109558E0
6.013424667E0,2.881790879E0,1.730872312E0,1.078967993E0,3.530553719E0
6.023472667E0,3.171882942E0,1.693885750E0,8.994467783E-1,3.706628500E0
6.033520667E0,3.378491383E0,1.687983570E0,6.572334713E-1,3.833464281E0
6.043568667E0,3.627666970E0,1.698847697E0,3.502517259E-1,4.021035614E0
6.053617667E0,3.925897772E0,1.668226413E0,1.226909931E-1,4.267400352E0
6.063665667E0,4.145248466E0,1.607689605E0,7.760424614E-3,4.446100644E0
6.073713667E0,4.317592809E0,1.584652745E0,-4.372957170E-2,4.599417817E0
6.083761667E0,4.530653068E0,1.582213871E0,-1.543045493E-1,4.801461012E0
6.093809667E0,4.753936599E0,1.592987950E0,-3.368545854E-1,5.025036797E0
6.103857667E0,4.938812109E0,1.600211016E0,-4.855580503E-1,5.214240785E0
6.113906667E0,5.149299594E0,1.566053336E0,-5.737983086E-1,5.412675296E0
6.123954667E0,5.345621613E0,1.544988157E0,-6.050085530E-1,5.597204140E0
6.134002667E0,5.475207607E0,1.605670561E0,-5.630530266E-1,5.733507216E0
6.144050667E0,5.585661510E0,1.749975166E0,-5.842467713E-1,5.882463079E0
6.154098667E0,5.686464000E0,1.907524883E0,-6.813555747E-1,6.036453381E0
6.164147667E0,5.772936133E0,2.074821324E0,-7.404609116E-1,6.178993242E0
6.174195667E0,5.759238446E0,2.246960430E0,-7.035347215E-1,6.221946621E0
6.184243667E0,5.695453509E0,2.414362705E0,-6.008255281E-1,6.215169287E0
6.194291667E0,5.649730037E0,2.489186016E0,-4.681239921E-1,6.191497120E0
6.204339667E0,5.634460033E0,2.459979174E0,-4.592672876E-1,6.165189684E0
6.214387667E0,5.612997828E0,2.377170321E0,-5.801157866E-1,6.123170558E0
6.224436667E0,5.530785976E0,2.426451824E0,-7.627085439E-1,6.087609242E0
6.234484667E0,5.423949160E0,2.997131301E0,-1.020323344E0,6.280372620E0
6.244532667E0,5.440307330E0,3.983378826E0,-1.199434742E0,6.848568786E0
6.254580667E0,5.311830554E0,4.672827532E0,-1.215266590E0,7.178282097E0
6.264628667E0,5.085387772E0,4.738940830E0,-1.143442828E0,7.044585899E0
6.274677667E0,4.934458272E0,4.456639012E0,-1.017518508E0,6.726503820E0
6.284725667E0,4.846493930E0,4.237572493E0,-8.863502578E-1,6.498549132E0
6.294773667E0,4.712138363E0,4.339002973E0,-8.143948605E-1,6.457122714E0
6.304821667E0,4.486363918E0,4.637006319E0,-7.182971138E-1,6.491936502E0
6.314869667E0,4.196262499E0,4.638732417E0,-4.880215553E-1,6.274123241E0
6.324917667E0,3.834919775E0,4.067628433E0,-2.587259171E-1,5.596351476E0
6.334966667E0,3.476754427E0,3.224153541E0,-1.804655768E-1,4.745055872E0
6.345014667E0,3.057649398E0,2.480278952E0,-2.267363119E-1,3.943654761E0
6.355062667E0,2.648036739E0,1.892615068E0,-4.113410596E-1,3.280745621E0
6.365110667E0,2.349611809E0,1.498046710E0,-5.214219475E-1,2.834907484E0
6.375158667E0,1.972843544E0,1.415206282E0,-3.782060945E-1,2.457226144E0
6.385206667E0,1.393107315E0,1.468019503E0,-1.530508697E-1,2.029594497E0
6.395255667E0,8.389052922E-1,1.582115638E0,-7.594832380E-2,1.792378344E0
6.405303667E0,4.221315479E-1,1.685311977E0,-3.666812325E-1,1.775648228E0
6.415351667E0,1.343257463E-1,1.792590843E0,-7.392552888E-1,1.943688174E0
6.425399958E0,1.026888013E-2,1.943020990E0,-8.996678030E-1,2.141223523E0
6.435447958E0,-2.476939023E-2,2.102127237E0,-8.047651541E-1,2.251044068E0
6.445496958E0,-4.639063954E-2,2.192103022E0,-4.653740466E-1,2.241437207E0
6.455544958E0,1.020339131E-2,2.073241991E0,-1.767500002E-2,2.073342439E0
6.465592958E0,8.956823409E-2,1.863789464E0,3.882317670E-1,1.905900716E0
6.475640958E0,1.466791588E-1,1.639706619E0,6.311262381E-1,1.763086186E0
6.485688958E0,1.657679790E-1,1.521591693E0,7.477314126E-1,1.703473677E0
6.495736958E0,1.682033443E-1,1.471952925E0,7.805681332E-1,1.674581855E0
6.505785958E0,1.902461779E-1,1.410756551E0,7.707624257E-1,1.618796581E0
6.515833958E0,1.682086068E-1,1.311813476E0,7.869709074E-1,1.538984061E0
6.525881958E0,1.330294186E-1,1.194638783E0,8.018403038E-1,1.444924399E0
6.535929958E0,1.457573453E-1,1.024510535E0,8.614597571E-1,1.346469440E0
6.545977958E0,1.145434463E-1,7.699081475E-1,9.219551233E-1,1.206598527E0
6.556025958E0,4.398246378E-2,5.433133382E-1,1.019359138E0,1.155948482E0
6.566074958E0,-5.391395956E-2,4.352632248E-1,1.105380963E0,1.189213128E0
6.576122958E0,-2.093256426E-1,4.268625301E-1,1.146416722E0,1.241088291E0
6.586170958E0,-4.211585712E-1,4.589228135E-1,1.091664564E0,1.256867619E0
6.596218958E0,-7.531032497E-1,4.983453262E-1,1.071005328E0,1.400915765E0
6.606266958E0,-1.047332218E0,4.276764625E-1,1.044127870E0,1.539485284E0
6.616315958E0,-1.291478907E0,2.629001713E-1,9.923041443E-1,1.649758098E0
6.626363958E0,-1.639218084E0,5.132861316E-2,1.028945136E0,1.936078161E0
6.636411958E0,-2.039364393E0,-1.314974481E-1,1.041891968E0,2.293869565E0
6.646459958E0,-2.436847296E0,-2.687935799E-1,1.012783432E0,2.652584591E0
6.656507958E0,-2.868392569E0,-3.659567624E-1,9.130006242E-1,3.032353941E0
6.666555958E0,-3.244718783E0,-4.579246938E-1,8.363002845E-1,3.381906737E0
6.676604958E0,-3.626662418E0,-4.895821041E-1,8.349063814E-1,3.753590228E0
6.686652958E0,-3.905150682E0,-6.013001758E-1,7.781662432E-1,4.027071697E0
6.696700958E0,-4.198630621E0,-7.007092738E-1,6.097325186E-1,4.300147245E0
6.706748958E0,-4.497452577E0,-7.824551028E-1,5.022419838E-1,4.592555137E0
6.716796958E0,-4.807545626E0,-8.488613462E-1,5.307728513E-1,4.910680233E0
6.726845958E0,-5.114829673E0,-8.716052610E-1,4.778005493E-1,5.210515490E0
6.736893958E0,-5.300710904E0,-9.621300995E-1,3.418304928E-1,5.398155102E0
6.746941958E0,-5.458502111E0,-1.229100518E0,2.329811017E-1,5.600019069E0
6.756989958E0,-5.638430293E0,-1.492459111E0,2.095256539E-1,5.836371421E0
6.767037958E0,-5.776387745E0,-1.667813015E0,2.473115309E-1,6.017426246E0
6.777085958E0,-5.804029287E0,-1.723964412E0,2.314936066E-1,6.059075717E0
6.787134958E0,-5.933212407E0,-1.725478256E0,1.720285928E-1,6.181413958E0
6.797182958E0,-6.101160813E0,-1.641051478E0,4.605146449E-2,6.318174891E0
6.807230958E0,-6.113307234E0,-1.465171909E0,-2.119791273E-1,6.290007092E0
6.817278958E0,-6.082097136E0,-1.176665611E0,-4.984470677E-1,6.214893162E0
6.827326958E0,-6.131513125E0,-9.228245312E-1,-6.988182843E-1,6.239824141E0
6.837374958E0,-6.202456807E0,-6.630011648E-1,-7.995704877E-1,6.288827709E0
6.847423958E0,-6.251469339E0,-3.762566328E-1,-9.326636410E-1,6.331848025E0
6.857471958E0,-6.275519521E0,-1.449138844E-1,-1.101899019E0,6.373172424E0
6.867519958E0,-6.345474440E0,-6.390188098E-2,-1.306272070E0,6.478848357E0
6.877567958E0,-6.402926257E0,-1.694873929E-1,-1.397475185E0,6.555846820E0
6.887615958E0,-6.444242683E0,-3.851210117E-1,-1.334238718E0,6.592175279E0
6.897663958E0,-6.496932528E0,-6.700599235E-1,-1.182581239E0,6.637590750E0
6.907712958E0,-6.449411622E0,-8.799702877E-1,-1.087648770E0,6.599411930E0
6.917760958E0,-6.397639790E0,-8.704574525E-1,-9.709909701E-1,6.529189423E0
6.927808958E0,-6.285547496E0,-2.745326221E-1,-8.832365423E-1,6.353234001E0
6.937856958E0,-6.009240244E0,7.467414790E-1,-8.997888404E-1,6.121945043E0
6.947904958E0,-5.991146620E0,1.598714713E0,-1.008117281E0,6.282199218E0
6.957953958E0,-6.105213518E0,1.923784236E0,-1.286544149E0,6.529148010E0
6.968001958E0,-6.241815585E0,1.872273189E0,-1.712134325E0,6.737734979E0
6.978049958E0,-6.109450411E0,1.630606012E0,-1.968242955E0,6.622555445E0
6.988097958E0,-5.741775736E0,1.398278008E0,-1.780347358E0,6.171937030E0
6.998145958E0,-5.595149787E0,1.000305401E0,-1.204769669E0,5.810144748E0
7.008193958E0,-5.641759697E0,4.265865415E-1,-6.862046707E-1,5.699324996E0
7.018242958E0,-5.530709378E0,3.011316061E-3,-5.106491105E-1,5.554234223E0
7.028290958E0,-5.160736747E0,-3.502476329E-1,-5.524373700E-1,5.202025012E0
7.038338958E0,-4.775992881E0,-6.839131469E-1,-4.826297647E-1,4.848791260E0
7.048386958E0,-4.362586548E0,-8.270126402E-1,-3.138370210E-1,4.451359902E0
7.058434958E0,-3.928494813E0,-8.335504121E-1,-1.766531740E-1,4.019836331E0
7.068483958E0,-3.542475961E0,-7.461737144E-1,-7.483326891E-2,3.620982072E0
7.078531958E0,-3.110723405E0,-4.311251503E-1,-5.295647800E-2,3.140903275E0
7.088579958E0,-2.717685263E0,1.065836316E-1,-3.455118815E-2,2.719993942E0
7.098627958E0,-2.372921003E0,7.512420809E-1,-5.000536542E-3,2.489004571E0
7.108675958E0,-2.093447337E0,1.364592783E0,-4.117726207E-2,2.499266050E0
7.118723958E0,-1.933674509E0,1.859529183E0,-8.085529804E-2,2.683930600E0
7.128772958E0,-1.821606189E0,2.163013124E0,1.651020725E-2,2.827922819E0
7.138820958E0,-1.646947518E0,2.226203983E0,1.793668485E-1,2.774994193E0
7.148868958E0,-1.498060451E0,2.207976458E0,4.626141242E-1,2.708017168E0
7.158916958E0,-1.429564705E0,2.115214475E0,9.182829988E-1,2.713122037E0
7.168964958E0,-1.321743218E0,2.025358558E0,1.271218597E0,2.732229701E0
7.179012958E0,-1.213127679E0,1.954190342E0,1.454855082E0,2.721606505E0
7.189061958E0,-1.220078556E0,1.926757545E0,1.661943580E0,2.821886387E0
7.199109958E0,-1.203007903E0,1.992332899E0,1.874754163E0,2.988531674E0
7.209157958E0,-1.189020193E0,2.054738477E0,2.014749370E0,3.113668938E0
7.219205958E0,-1.185904212E0,2.147323875E0,2.169603374E0,3.274835481E0
7.229253958E0,-1.141304867E0,2.241394465E0,2.321203111E0,3.422632004E0
7.239302958E0,-1.101316051E0,2.328627321E0,2.455956874E0,3.559090672E0
7.249350958E0,-1.043044162E0,2.473886191E0,2.530459757E0,3.689346906E0
7.259398958E0,-9.739207175E-1,2.596481254E0,2.585163968E0,3.791214740E0
7.269446958E0,-8.817145121E-1,2.726019300E0,2.639237849E0,3.895404745E0
7.279494958E0,-7.060518748E-1,2.822472630E0,2.726727397E0,3.987468282E0
7.289542958E0,-4.597788459E-1,2.872197937E0,2.784324811E0,4.026584437E0
7.299591958E0,-2.398714972E-1,2.911135715E0,2.876952893E0,4.099891149E0
7.309639958E0,3.114460945E-2,2.987031405E0,2.985477215E0,4.223316328E0
7.319687958E0,3.579700506E-1,3.030547553E0,2.953918623E0,4.247116229E0
7.329735958E0,7.063851660E-1,3.031055676E0,2.846434812E0,4.217637924E0
7.339783958E0,1.049754719E0,3.030733495E0,2.834823704E0,4.280602284E0
7.349831958E0,1.452881062E0,3.048413721E0,2.868296674E0,4.430667603E0
7.359880958E0,1.862183234E0,3.054308299E0,2.857272042E0,4.578267041E0
7.369928958E0,2.240940721E0,3.005498081E0,2.825647084E0,4.694583632E0
7.379976958E0,2.625502154E0,2.855246859E0,2.762724026E0,4.762178097E0
7.390024958E0,3.054141068E0,2.746151848E0,2.650519466E0,4.888187914E0
7.400072958E0,3.535014330E0,2.778506246E0,2.472764403E0,5.131372824E0
7.410121958E0,3.815339203E0,2.882628785E0,2.290050170E0,5.301951690E0
7.420169958E0,4.135215229E0,2.920274913E0,2.162819581E0,5.505070308E0
7.430217292E0,4.522942345E0,2.875819117E0,2.036806383E0,5.733752985E0
7.440265292E0,4.881481914E0,2.724735251E0,1.945431944E0,5.919269660E0
7.450313292E0,5.195176848E0,2.599210734E0,1.822262539E0,6.088218104E0
7.460361292E0,5.522327394E0,2.512922203E0,1.650625563E0,6.287721574E0
7.470410292E0,5.779835848E0,2.407467669E0,1.522924858E0,6.443733632E0
7.480458292E0,6.048580896E0,2.287316743E0,1.361018819E0,6.608291834E0
7.490506292E0,6.327566757E0,2.233869683E0,1.150274642E0,6.808186732E0
7.500554292E0,6.527515805E0,2.244178324E0,1.018663173E0,6.977282680E0
7.510602292E0,6.827190285E0,2.230075425E0,8.802339971E-1,7.235922572E0
7.520650292E0,6.973158422E0,2.299004742E0,8.952951090E-1,7.396750267E0
7.530699292E0,6.829042098E0,2.495164794E0,1.107503721E0,7.354469921E0
7.540747292E0,6.603063000E0,2.814019895E0,1.334236671E0,7.300639455E0
7.550795292E0,6.456672694E0,3.060591717E0,1.480589994E0,7.297122081E0
7.560843292E0,6.434084315E0,3.114952404E0,1.529065604E0,7.310158075E0
7.570891292E0,6.490996435E0,3.007954204E0,1.521680425E0,7.314118848E0
7.580940292E0,6.408784583E0,2.967331551E0,1.398329025E0,7.199506957E0
7.590988292E0,6.245640834E0,3.127570987E0,1.175918483E0,7.083255889E0
7.601036292E0,6.147647932E0,3.680070886E0,8.147921057E-1,7.211129107E0
7.611084292E0,5.962749032E0,4.530318607E0,4.322811449E-1,7.501001913E0
7.621132292E0,5.686368105E0,5.192553787E0,2.041368234E-1,7.703185633E0
7.631180292E0,5.477191567E0,5.375599118E0,1.797330303E-1,7.676522475E0
7.641229292E0,5.285312846E0,5.120515505E0,3.943352003E-1,7.369512275E0
7.651277292E0,5.168555059E0,4.671982609E0,6.586362914E-1,6.998227252E0
7.661325292E0,4.905924445E0,4.199456248E0,8.562417018E-1,6.514343965E0
7.671373292E0,4.668415807E0,3.942310322E0,9.667999783E-1,6.186325163E0
7.681421292E0,4.474833793E0,3.831756431E0,1.020598602E0,5.978972849E0
7.691469292E0,4.089315755E0,3.636582220E0,1.105459535E0,5.582944955E0
7.701518292E0,3.504262068E0,3.380941951E0,9.951821438E-1,4.970010928E0
7.711566292E0,3.087433945E0,3.089437786E0,6.980009897E-1,4.423130066E0
7.721614292E0,2.807894352E0,2.730661989E0,3.818535876E-1,3.935301482E0
7.731662292E0,2.505240716E0,2.402061333E0,2.281877370E-1,3.478246589E0
7.741710292E0,2.300410997E0,2.268992738E0,1.720239151E-1,3.235708737E0
7.751759292E0,2.054598729E0,2.346259600E0,1.930306220E-1,3.124671322E0
7.761807292E0,1.735140780E0,2.530320008E0,1.985890583E-1,3.074519553E0
7.771855292E0,1.473421746E0,2.718452418E0,9.537641957E-2,3.093550040E0
7.781903292E0,1.290162991E0,2.839698527E0,-4.643741727E-2,3.119385309E0
7.791951292E0,1.113528546E0,2.889410970E0,-1.854456139E-1,3.102101168E0
7.801999292E0,8.860970002E-1,2.861634357E0,-2.670225314E-1,3.007560493E0
7.812048292E0,7.203483170E-1,2.735525703E0,-2.343155459E-1,2.838469014E0
7.822096292E0,4.830115879E-1,2.507197779E0,-3.755659305E-2,2.553576197E0
7.832144292E0,2.293628812E-1,2.317279045E0,1.977831658E-1,2.336986881E0
7.842192292E0,5.366223693E-2,2.173598923E0,2.997773179E-1,2.194829915E0
7.852240292E0,-1.510166234E-1,2.080153985E0,3.804911864E-1,2.120051925E0
7.862288292E0,-3.331784409E-1,2.005279219E0,5.013660709E-1,2.093685878E0
7.872337292E0,-5.357756925E-1,1.860564725E0,5.992998433E-1,2.026799692E0
7.882385292E0,-7.288782352E-1,1.656655943E0,6.064544964E-1,1.908811004E0
7.892433292E0,-8.729065588E-1,1.483984156E0,5.896064023E-1,1.819838055E0
7.902481292E0,-1.050463694E0,1.335370154E0,5.532038303E-1,1.786818933E0
7.912529292E0,-1.261117824E0,1.179951162E0,5.661298314E-1,1.817472392E0
7.922578292E0,-1.469929789E0,1.054632466E0,5.883678158E-1,1.902398462E0
7.932626292E0,-1.677241943E0,8.825664514E-1,6.251631745E-1,1.995718685E0
7.942674292E0,-1.859779151E0,6.593425620E-1,6.156357213E-1,2.067007123E0
7.952722292E0,-1.989740244E0,4.676363343E-1,5.543874530E-1,2.117804388E0
7.962770292E0,-2.184293188E0,3.531659782E-1,5.272422659E-1,2.274609273E0
7.972818292E0,-2.571143222E0,1.594436306E-1,4.431640557E-1,2.613923128E0
7.982867292E0,-2.524389178E0,1.270494711E-1,6.938084630E-1,2.621078494E0
7.992915292E0,-2.744690336E0,3.400799096E-2,6.863087511E-1,2.829399457E0
8.002963292E0,-3.071738556E0,-1.841329139E-1,5.508626783E-1,3.126168962E0
8.013011292E0,-3.279849732E0,-2.879759556E-1,5.607772171E-1,3.339882558E0
8.023059292E0,-3.489381489E0,-3.498734111E-1,6.351690030E-1,3.563935219E0
8.033107292E0,-3.719444282E0,-4.489036095E-1,6.235307050E-1,3.797969294E0
8.043156292E0,-3.945701707E0,-5.617829382E-1,5.616262329E-1,4.024870937E0
8.053204292E0,-4.095345404E0,-6.805445659E-1,4.951411251E-1,4.180928081E0
8.063252292E0,-4.230773351E0,-8.360980439E-1,4.024323515E-1,4.331334076E0
8.073300292E0,-4.367471897E0,-9.857271230E-1,2.683181282E-1,4.485361006E0
8.083348292E0,-4.511793458E0,-1.133916618E0,1.410722637E-1,4.654239840E0
8.093397292E0,-4.651968759E0,-1.312812181E0,2.433377266E-2,4.833723336E0
8.103445292E0,-4.780693165E0,-1.530873563E0,-1.038979689E-1,5.020895916E0
8.113493292E0,-4.933962429E0,-1.766464314E0,-2.287278736E-1,5.245636078E0
8.123541292E0,-5.055921898E0,-1.957213937E0,-3.717109708E-1,5.434261834E0
8.133589292E0,-5.130995470E0,-2.043366228E0,-5.169523358E-1,5.547044237E0
8.143637292E0,-5.181926472E0,-2.079026642E0,-6.589016819E-1,5.622176195E0
8.153686292E0,-5.283869169E0,-2.004430788E0,-7.648391962E-1,5.702805904E0
8.163734292E0,-5.343938200E0,-1.848516537E0,-8.718713093E-1,5.721437621E0
8.173782292E0,-5.383000524E0,-1.650238039E0,-1.024414056E0,5.722709532E0
8.183830292E0,-5.405970141E0,-1.353582476E0,-1.137009210E0,5.687661086E0
8.193878292E0,-5.438895228E0,-1.021773453E0,-1.272568134E0,5.678470916E0
8.203926292E0,-5.523483973E0,-7.603865415E-1,-1.418323433E0,5.753147335E0
8.213975292E0,-5.620885137E0,-4.599829137E-1,-1.483503515E0,5.831527818E0
8.224023292E0,-5.652850696E0,-2.309012836E-1,-1.507659532E0,5.855004155E0
8.234071292E0,-5.728851635E0,-1.513329577E-1,-1.561966133E0,5.939897383E0
8.244119292E0,-5.894557049E0,-2.083666992E-1,-1.504059986E0,6.086987427E0
8.254167292E0,-6.016424718E0,-2.481838989E-1,-1.309433805E0,6.162270566E0
8.264216292E0,-6.104860346E0,-3.194743216E-1,-1.066854317E0,6.205607289E0
8.274264292E0,-6.257959163E0,-2.892214125E-1,-8.210478956E-1,6.318213479E0
8.284312292E0,-6.308210135E0,2.106266481E-1,-6.450110364E-1,6.344597538E0
8.294360292E0,-6.200114998E0,1.089267279E0,-5.861968543E-1,6.322306220E0
8.304408292E0,-6.150815368E0,1.826346819E0,-5.458931663E-1,6.439415482E0
8.314456292E0,-6.370556656E0,2.098984358E0,-5.987443944E-1,6.734108872E0
8.324505292E0,-6.576946996E0,2.061639946E0,-8.824699724E-1,6.948765668E0
8.334553292E0,-6.579973515E0,1.883921428E0,-1.227496626E0,6.953557318E0
8.344601292E0,-6.394339036E0,1.661664668E0,-1.227324134E0,6.719748932E0
8.354649292E0,-6.248344002E0,1.325605304E0,-8.444022596E-1,6.442984352E0
8.364697292E0,-6.152267817E0,7.452989709E-1,-4.080760840E-1,6.210667914E0
8.374745292E0,-5.984577273E0,7.725165904E-2,-1.671847959E-1,5.987410435E0
8.384794292E0,-5.656964797E0,-4.197751200E-1,-6.437729616E-2,5.672883420E0
8.394842292E0,-5.339296095E0,-7.534008729E-1,3.474587303E-2,5.392300339E0
8.404890292E0,-4.956247337E0,-9.631428373E-1,8.195691347E-2,5.049628573E0
8.414938292E0,-4.527828278E0,-8.809385866E-1,1.049271154E-1,4.613923646E0
8.424986292E0,-4.095723134E0,-6.391363388E-1,9.444364250E-2,4.146367429E0
8.435035292E0,-3.683077524E0,-2.245020908E-1,-6.613845924E-2,3.690506135E0
8.445083292E0,-3.249458537E0,2.858639413E-1,-2.808289039E-1,3.274074502E0
8.455131292E0,-2.760798538E0,6.291340917E-1,-3.309149837E-1,2.850846015E0
8.465179292E0,-2.262493850E0,7.916504341E-1,-2.656565670E-1,2.411672085E0
8.475227292E0,-1.922919140E0,1.088466795E0,-2.309281808E-1,2.221644843E0
8.485275292E0,-1.776479132E0,1.682145125E0,-1.734944898E-1,2.452670110E0
8.495324292E0,-1.769445517E0,2.122614711E0,-8.620021960E-2,2.764753357E0
8.505372292E0,-1.867908828E0,2.159666762E0,-7.838543415E-2,2.856464281E0
8.515420292E0,-1.816546008E0,2.092885712E0,1.267512631E-1,2.774180219E0
8.525468292E0,-1.604581225E0,2.026377143E0,4.874958175E-1,2.630311275E0
8.535516292E0,-1.463424177E0,1.859179519E0,7.855927187E-1,2.493053294E0
8.545565292E0,-1.376172317E0,1.804764161E0,1.003224331E0,2.481427610E0
8.555613292E0,-1.043099418E0,1.838794956E0,1.216714361E0,2.439183700E0
8.565661292E0,-7.275570568E-1,1.759963380E0,1.419357805E0,2.375160405E0
8.575709292E0,-4.181019393E-1,1.770554441E0,1.584163917E0,2.412311667E0
8.585757292E0,-5.279392540E-2,1.878939600E0,1.663118870E0,2.509813857E0
8.595805292E0,2.009930679E-1,2.066017172E0,1.705284312E0,2.686413920E0
8.605854292E0,4.091428354E-1,2.366946464E0,1.689828951E0,2.936895522E0
8.615902292E0,8.688026905E-1,2.580500813E0,1.700129406E0,3.210022206E0
8.625950292E0,1.231451098E0,2.723060609E0,1.787587380E0,3.482384173E0
8.635998292E0,1.479360178E0,2.931171784E0,1.771957773E0,3.730966217E0
8.646046292E0,2.044567831E0,3.245543826E0,1.382708627E0,4.077461893E0
8.656094292E0,3.127199104E0,3.447770948E0,1.026427325E0,4.766555549E0
8.666143292E0,3.144520311E0,3.800633456E0,1.285610933E0,5.097609060E0
8.676191292E0,2.739351536E0,3.697313740E0,1.922468612E0,4.986989202E0
8.686239292E0,3.137183225E0,3.110966649E0,2.314967641E0,4.987896075E0
8.696287292E0,3.354639421E0,2.394994973E0,2.179122788E0,4.662422406E0
8.706335292E0,3.595729478E0,1.513409100E0,1.480212117E0,4.172613749E0
8.716384292E0,3.966031891E0,5.899051219E-1,9.889326397E-1,4.129816555E0
8.726432292E0,4.096864511E0,1.003616095E-2,7.927350926E-1,4.172868135E0
8.736480292E0,4.226122475E0,-8.200603008E-2,5.844128688E-1,4.267127203E0
8.746528292E0,4.224853629E0,3.681991696E-2,4.363543518E-1,4.247487377E0
8.756576292E0,4.310694264E0,1.409319305E-1,2.246196564E-1,4.318842534E0
8.766624292E0,4.384670897E0,2.263088804E-1,2.021757404E-1,4.395159794E0
8.776673292E0,4.517648275E0,4.638233650E-1,3.232761812E-1,4.552887605E0
8.786721292E0,4.807315246E0,7.915650648E-1,3.112683392E-1,4.881981473E0
8.796769292E0,4.972499088E0,8.946929920E-1,3.074722902E-1,5.061695560E0
8.806817292E0,5.031594558E0,7.690661484E-1,4.817240310E-1,5.112774646E0
8.816865292E0,5.252194802E0,7.289998573E-1,6.471382535E-1,5.341889080E0
8.826913292E0,5.470467269E0,7.206465250E-1,6.410781991E-1,5.554846966E0
8.836962292E0,5.576847417E0,6.891844118E-1,5.616800272E-1,5.647272503E0
8.847010292E0,5.619024553E0,6.242668694E-1,4.685338819E-1,5.672977177E0
8.857058292E0,5.687718228E0,6.934289056E-1,3.184066566E-1,5.738672763E0
8.867106292E0,5.798773810E0,8.937270319E-1,1.755263972E-1,5.869866712E0
8.877154292E0,5.886211903E0,1.192439645E0,1.727887309E-1,6.008265875E0
8.887203292E0,5.950163485E0,1.480331985E0,2.441726724E-1,6.136403555E0
8.897251292E0,6.030177954E0,1.699126024E0,2.574576195E-1,6.270275897E0
8.907299292E0,6.151095450E0,1.924091215E0,2.260580349E-1,6.448969256E0
8.917347292E0,6.258900565E0,2.013348961E0,2.004671474E-1,6.577810988E0
8.927395292E0,6.163023185E0,1.955298389E0,2.177655137E-1,6.469425662E0
8.937443292E0,5.950445321E0,1.830281410E0,1.787014353E-1,6.228134854E0
8.947492292E0,5.745253075E0,1.929089414E0,-1.537346285E-2,6.060491334E0
8.957540292E0,5.723690883E0,2.719958661E0,-3.120764244E-1,6.344777706E0
8.967588292E0,5.865078312E0,3.867802176E0,-3.663864962E-1,7.035145794E0
8.977636292E0,5.634008628E0,4.604762433E0,-9.307714820E-2,7.276987951E0
8.987684292E0,5.077836678E0,4.569785559E0,3.064338613E-1,6.838221047E0
8.997732292E0,4.759032447E0,4.393152868E0,5.651450872E-1,6.501351469E0
9.007781292E0,4.992391900E0,4.456811505E0,5.239643168E-1,6.712800033E0
9.017829292E0,5.335994173E0,4.521346055E0,3.141942859E-1,7.001008642E0
9.027877292E0,5.239920911E0,4.376743827E0,3.570778386E-1,6.836677721E0
9.037925292E0,4.866303127E0,3.807308637E0,6.006868760E-1,6.207844224E0
9.047973292E0,4.523294932E0,2.931664705E0,6.227191114E-1,5.426106714E0
9.058022292E0,4.434057065E0,2.028097394E0,3.878249104E-1,4.891262542E0
9.068070292E0,4.169082302E0,1.396096997E0,1.777319670E-1,4.400218485E0
9.078118292E0,3.869699013E0,1.046442271E0,-3.032139458E-2,4.008806714E0
9.088166292E0,3.560270793E0,9.830368191E-1,-2.433073211E-1,3.701498070E0
9.098214292E0,3.213358412E0,1.182619831E0,-4.106920552E-1,3.448612752E0
9.108262292E0,2.824837244E0,1.432119938E0,-4.912281684E-1,3.204992681E0
9.118311292E0,2.545436815E0,1.636947318E0,-6.756247187E-1,3.100856956E0
9.128359292E0,2.204823055E0,1.784842113E0,-8.985335163E-1,2.975612298E0
9.138407292E0,1.939175861E0,1.873151441E0,-1.146844811E0,2.929906545E0
9.148455292E0,1.692147665E0,1.953937742E0,-1.334761459E0,2.909093428E0
9.158503292E0,1.470009896E0,2.058663713E0,-1.403349298E0,2.892821223E0
9.168552292E0,1.258160887E0,1.995139562E0,-1.302110606E0,2.694261072E0
9.178600292E0,1.033848538E0,1.718528255E0,-1.009292572E0,2.245184549E0
9.188648292E0,9.536466667E-1,1.420647701E0,-6.291943181E-1,1.823065371E0
9.198696292E0,9.111754158E-1,1.218939811E0,-3.474801457E-1,1.561024456E0
9.208744292E0,8.385486120E-1,1.088988951E0,-1.954595919E-1,1.388259761E0
9.218792292E0,7.481980205E-1,9.469425416E-1,-1.171232378E-1,1.212525591E0
9.228841292E0,6.080449390E-1,8.474398881E-1,-7.916548926E-2,1.046011561E0
9.238889292E0,5.647954237E-1,8.634577507E-1,-1.255607700E-1,1.039383791E0
9.248937292E0,4.995796734E-1,9.110394681E-1,-2.296318166E-1,1.064097521E0
9.258985292E0,3.666458568E-1,9.416473031E-1,-2.844565165E-1,1.049782995E0
9.269033292E0,1.968213719E-1,9.134760028E-1,-2.235764400E-1,9.608139699E-1
9.279081292E0,1.158859670E-2,8.329335308E-1,-9.554818153E-2,8.384760088E-1
9.289130292E0,-1.489019778E-1,7.480658734E-1,7.091853976E-2,7.660311934E-1
9.299178292E0,-4.306877786E-1,6.522919893E-1,2.221720119E-1,8.126113492E-1
9.309226292E0,-6.803507307E-1,6.396421230E-1,3.375024934E-1,9.929386161E-1
9.319274292E0,-8.817737152E-1,7.556467885E-1,3.659959753E-1,1.217571356E0
9.329322292E0,-1.150163106E0,8.134055847E-1,3.300940347E-1,1.446881435E0
9.339371292E0,-1.405808930E0,8.199369246E-1,2.691578615E-1,1.649557899E0
9.349419292E0,-1.662170452E0,8.672151715E-1,2.566834847E-1,1.892289401E0
9.359467292E0,-1.924863778E0,8.238738549E-1,3.054327448E-1,2.115929548E0
9.369515292E0,-2.268387697E0,6.591969663E-1,3.212390113E-1,2.383971034E0
9.379563292E0,-2.615934355E0,5.090644419E-1,3.229686177E-1,2.684505147E0
9.389611292E0,-2.899685405E0,4.205896372E-1,2.746284433E-1,2.942871366E0
9.399660292E0,-3.181361863E0,4.629515451E-1,1.542928549E-1,3.218570136E0
9.409708292E0,-3.384028112E0,5.329415470E-1,1.520720458E-1,3.429110506E0
9.419756292E0,-3.739382703E0,4.590947217E-1,3.313652194E-1,3.782003949E0
9.429804458E0,-4.106179418E0,3.926873088E-1,5.320323415E-1,4.159082969E0
9.439852458E0,-4.367290633E0,4.458273894E-1,5.200806693E-1,4.420686987E0
9.449900458E0,-4.464078425E0,3.789393353E-1,4.803675500E-1,4.505812267E0
9.459949458E0,-4.604628824E0,1.321646154E-1,5.135036480E-1,4.635057723E0
9.469997458E0,-4.712130176E0,-1.436122942E-1,5.764570376E-1,4.749431335E0
9.480045458E0,-4.768695264E0,-3.945128095E-1,5.366551137E-1,4.814986354E0
9.490093458E0,-4.740236865E0,-5.648188126E-1,3.641048761E-1,4.787633882E0
9.500141458E0,-4.750855116E0,-6.689109457E-1,2.064722744E-1,4.802155452E0
9.510190458E0,-4.768411674E0,-6.604336524E-1,8.098276734E-2,4.814611169E0
9.520238458E0,-4.755556862E0,-5.361762267E-1,-2.989681363E-2,4.785781006E0
9.530286458E0,-4.814462882E0,-3.863460034E-1,-1.209367554E-1,4.831453382E0
9.540334458E0,-4.869125578E0,-1.815607238E-1,-2.131239939E-1,4.877168238E0
9.550382458E0,-4.919256096E0,7.440523446E-2,-2.652928885E-1,4.926966308E0
9.560430458E0,-5.056792549E0,3.840696824E-1,-3.218201880E-1,5.081557698E0
9.570479458E0,-5.301311413E0,6.101166075E-1,-4.389177346E-1,5.354324771E0
9.580527458E0,-5.497674948E0,7.204904044E-1,-5.258166782E-1,5.569561871E0
9.590575458E0,-5.774154693E0,7.383466315E-1,-4.782355821E-1,5.840781406E0
9.600623458E0,-6.118048741E0,5.932093835E-1,-3.119010079E-1,6.154648651E0
9.610671458E0,-6.450759990E0,3.140440124E-1,-1.575532258E-1,6.460321285E0
9.620720458E0,-6.728629033E0,2.107628882E-2,-4.615908980E-2,6.728820367E0
9.630768458E0,-7.044299741E0,1.595237374E-2,7.418589078E-2,7.044708430E0
9.640816458E0,-7.160441816E0,5.105437875E-1,1.908765078E-1,7.181156996E0
9.650864458E0,-7.235104913E0,1.142182242E0,2.302808940E-1,7.328325365E0
9.660912458E0,-7.667990659E0,1.572863004E0,7.879240036E-2,7.828038517E0
9.670960458E0,-8.158252210E0,1.763568188E0,-5.104626574E-2,8.346847165E0
9.681009458E0,-8.335293621E0,1.700893053E0,-6.717171706E-2,8.507330308E0
9.691057458E0,-8.435780361E0,1.400037435E0,-6.357334055E-2,8.551405538E0
9.701105458E0,-8.577071310E0,1.151242502E0,1.185674270E-1,8.654800390E0
9.711153458E0,-8.625588582E0,8.856900340E-1,4.765574678E-1,8.684027421E0
9.721201458E0,-8.578516157E0,6.786091375E-1,6.767169785E-1,8.631882511E0
9.731249458E0,-8.375366344E0,4.188044822E-1,7.159061873E-1,8.416334134E0
9.741298458E0,-8.015343336E0,4.484931350E-2,6.020258152E-1,8.038045492E0
9.751346458E0,-7.520249646E0,-2.840787864E-1,4.929589077E-1,7.541741442E0
9.761394458E0,-6.951888590E0,-5.429344386E-1,4.534212049E-1,6.987783881E0
9.771442458E0,-6.348093992E0,-6.000383466E-1,4.010816081E-1,6.388991298E0
9.781490458E0,-5.732719569E0,-3.188673806E-1,2.959065707E-1,5.749200880E0
9.791539458E0,-5.136068514E0,1.834335870E-1,2.157704071E-1,5.143870579E0
9.801587458E0,-4.558661231E0,8.838358819E-1,1.311062328E-1,4.645400621E0
9.811635458E0,-4.038783825E0,1.476942939E0,5.715181869E-2,4.300744303E0
9.821683458E0,-3.533672101E0,1.750561057E0,-4.737644356E-2,3.943798557E0
9.831731458E0,-3.045159745E0,1.879668163E0,-1.438227757E-1,3.581457143E0
9.841779458E0,-2.573128644E0,1.901792858E0,-3.151649237E-3,3.199658892E0
9.851828458E0,-2.177477966E0,1.883931368E0,2.278811967E-1,2.888345120E0
9.861876458E0,-1.855152250E0,2.177138243E0,3.655001314E-1,2.883593443E0
9.871924458E0,-1.607171541E0,2.714945843E0,4.197143090E-1,3.182780450E0
9.881972458E0,-1.558730283E0,3.104918874E0,4.342306431E-1,3.501245144E0
9.892020458E0,-1.542770454E0,3.437541829E0,2.858960645E-1,3.778699652E0
9.902068458E0,-1.456435731E0,3.707354579E0,1.268647357E-1,3.985194810E0
9.912117458E0,-1.363885563E0,3.642508957E0,2.084310551E-1,3.895060826E0
9.922165458E0,-1.250007822E0,3.323103048E0,6.060990588E-1,3.601789762E0
9.932213458E0,-1.078320560E0,3.057063507E0,1.128933620E0,3.432623433E0
9.942261458E0,-8.608022377E-1,2.841145713E0,1.581890520E0,3.363847065E0
9.952309458E0,-6.122736454E-1,2.704471141E0,1.888116220E0,3.354702077E0
9.962358458E0,-2.954875812E-1,2.651208268E0,2.033145880E0,3.354087113E0
9.972406458E0,5.461299419E-2,2.697491904E0,2.075396690E0,3.403926640E0
9.982454458E0,4.245005473E-1,2.927183399E0,1.962262277E0,3.549517799E0
9.992502458E0,8.116040576E-1,3.120739101E0,1.872879546E0,3.728993359E0
1.000255046E1,1.171566254E0,3.245506988E0,1.780333325E0,3.882714237E0
1.001259846E1,1.524756791E0,3.257314855E0,1.701919970E0,3.978883628E0
1.002264746E1,1.906430869E0,3.265210935E0,1.716452494E0,4.152383686E0
1.003269546E1,2.250348599E0,3.234648124E0,1.791674438E0,4.328638885E0
1.004274346E1,2.534215131E0,3.202210110E0,1.937154479E0,4.519841081E0
1.005279146E1,2.837094178E0,3.149374085E0,2.097000106E0,4.729172226E0
1.006283946E1,3.100917040E0,3.087277240E0,2.161269046E0,4.880374077E0
1.007288746E1,3.365347427E0,2.985564339E0,2.118432198E0,4.972616283E0
1.008293646E1,3.583099492E0,2.893240312E0,1.981641411E0,5.013615876E0
1.009298446E1,3.763184379E0,2.782446100E0,1.854980049E0,5.034333516E0
1.010303246E1,3.855251128E0,2.655245771E0,1.748134901E0,4.996925754E0
1.011308046E1,3.922577139E0,2.594855728E0,1.706632826E0,5.003247271E0
1.012312846E1,3.996920977E0,2.511221833E0,1.687547222E0,5.012926093E0
1.013317746E1,4.100840617E0,2.344138815E0,1.697651503E0,5.019352665E0
1.014322546E1,4.283964887E0,2.228783190E0,1.700257899E0,5.119639302E0
1.015327346E1,4.545409101E0,2.177969717E0,1.686618684E0,5.314976817E0
1.016332146E1,4.797461518E0,2.157872252E0,1.620917176E0,5.504491090E0
1.017336946E1,5.059438414E0,2.098456355E0,1.589136389E0,5.703226333E0
1.018341746E1,5.309217433E0,2.026537356E0,1.470747668E0,5.870071730E0
1.019346646E1,5.548075608E0,1.991049435E0,1.307260834E0,6.037743924E0
1.020351446E1,5.799380166E0,1.946067975E0,1.206144934E0,6.234964031E0
1.021356246E1,5.975933919E0,1.998050306E0,1.090245080E0,6.394734206E0
1.022361046E1,6.046917363E0,2.213019682E0,9.597362494E-1,6.510281052E0
1.023365846E1,6.164110767E0,2.523720841E0,8.627286029E-1,6.716377675E0
1.024370746E1,6.264436709E0,2.816903742E0,7.885894167E-1,6.913753484E0
1.025375546E1,6.336781969E0,2.974337685E0,7.760436308E-1,7.042991843E0
1.026380346E1,6.440242603E0,3.012924630E0,7.687555882E-1,7.151602951E0
1.027385146E1,6.563779652E0,2.923834698E0,6.686383192E-1,7.216584362E0
1.028389946E1,6.592002992E0,2.783421416E0,5.311388505E-1,7.175238442E0
1.029394746E1,6.571998498E0,2.725020595E0,4.462057042E-1,7.128534283E0
1.030399646E1,6.565411025E0,3.006642966E0,2.544977224E-1,7.225599833E0
1.031404446E1,6.687768105E0,3.725839967E0,7.543609858E-2,7.655966059E0
1.032409246E1,6.776720043E0,4.304673386E0,1.266494485E-1,8.029332947E0
1.033414046E1,6.629915754E0,4.339246802E0,2.822918773E-1,7.928715811E0
1.034418846E1,6.426074799E0,3.984549438E0,3.992805561E-1,7.571690466E0
1.035423646E1,6.187292638E0,3.700903931E0,2.435669374E-1,7.213778826E0
1.036428546E1,5.951344623E0,3.716362799E0,-1.420698718E-1,7.017837211E0
1.037433346E1,5.778716691E0,3.818338240E0,-4.830044981E-1,6.943094904E0
1.038438146E1,5.478299614E0,3.648430433E0,-6.177628653E-1,6.610933538E0
1.039442946E1,5.083595601E0,3.160983147E0,-5.596392759E-1,6.012316925E0
1.040447746E1,4.696422216E0,2.536867136E0,-4.888740063E-1,5.360137525E0
1.041452646E1,4.249548760E0,1.952119843E0,-5.333151841E-1,4.706788887E0
1.042457446E1,4.050369791E0,1.304753548E0,-5.074155271E-1,4.285481044E0
1.043462267E1,3.947837110E0,6.881389296E-1,-5.546434148E-1,4.045563292E0
1.044467067E1,3.559403651E0,5.291847110E-1,-7.087421787E-1,3.667656784E0
1.045471867E1,3.178118412E0,7.432904524E-1,-8.363424575E-1,3.369330207E0
1.046476667E1,2.915586031E0,9.494778943E-1,-9.987874639E-1,3.224860706E0
1.047481567E1,2.568887658E0,1.208025983E0,-1.107784241E0,3.047244083E0
1.048486367E1,2.171151863E0,1.545146617E0,-1.075650283E0,2.873743554E0
1.049491167E1,1.975743763E0,1.824126631E0,-1.077545950E0,2.896913299E0
1.050495967E1,1.850744326E0,1.940325424E0,-1.022306135E0,2.869708547E0
1.051500767E1,1.757654899E0,2.000347093E0,-8.223512399E-1,2.786933942E0
1.052505567E1,1.616025980E0,2.073385833E0,-5.592102364E-1,2.687598346E0
1.053510467E1,1.350074732E0,2.011189000E0,-3.354045490E-1,2.445420043E0
1.054515267E1,1.180675632E0,1.726827208E0,-1.586758912E-1,2.097881120E0
1.055520067E1,1.114250677E0,1.473779011E0,2.055179358E-2,1.847701686E0
1.056524867E1,1.124633578E0,1.379883252E0,2.845500720E-1,1.802733263E0
1.057529667E1,1.089128115E0,1.367488909E0,4.859469632E-1,1.814489024E0
1.058534567E1,9.070832419E-1,1.378432558E0,4.741121987E-1,1.716874690E0
1.059539367E1,9.868629447E-1,1.406268228E0,3.160022449E-1,1.746810299E0
1.060544167E1,1.103621024E0,1.372728015E0,3.587160822E-1,1.797509053E0
1.061548967E1,9.510475793E-1,1.382198750E0,5.088795968E-1,1.753260770E0
1.062553767E1,7.819414249E-1,1.495504925E0,5.015553745E-1,1.760546838E0
1.063558567E1,6.281026429E-1,1.607902443E0,3.999086932E-1,1.771945304E0
1.064563467E1,3.422860640E-1,1.629117311E0,2.610430956E-1,1.685030107E0
1.065568267E1,6.796978891E-2,1.611180393E0,1.229002869E-1,1.617289903E0
1.066573067E1,-2.058056188E-1,1.573089876E0,6.295470513E-2,1.587743998E0
1.067577867E1,-5.036455348E-1,1.462434243E0,9.278361797E-3,1.546757521E0
1.068582667E1,-8.945517817E-1,1.288069687E0,-3.215603158E-2,1.568559983E0
1.069587567E1,-1.266822660E0,1.084644470E0,-1.033857163E-1,1.670922465E0
1.070592367E1,-1.595357242E0,8.828026789E-1,-2.456695962E-1,1.839798590E0
1.071597167E1,-1.953109484E0,6.712895930E-1,-4.144893102E-1,2.106434846E0
1.072601967E1,-2.307146697E0,4.483223963E-1,-4.879676513E-1,2.400423147E0
1.073606767E1,-2.791926483E0,3.639692938E-1,-5.262494087E-1,2.864308917E0
1.074611567E1,-3.105367355E0,2.437575567E-1,-5.891642797E-1,3.170148058E0
1.075616467E1,-3.362574677E0,1.011433822E-1,-7.523015964E-1,3.447186699E0
1.076621267E1,-3.630053803E0,1.248380542E-3,-9.449404550E-1,3.751027144E0
1.077626067E1,-3.908299992E0,-5.904635310E-2,-1.068447683E0,4.052144587E0
1.078630867E1,-4.271957045E0,-1.228991175E-1,-1.129318367E0,4.420416401E0
1.079635667E1,-4.551613874E0,-2.376074553E-1,-1.236301364E0,4.722508573E0
1.080640567E1,-4.783344293E0,-3.598592860E-1,-1.335650235E0,4.979341611E0
1.081645367E1,-4.869734273E0,-4.638432455E-1,-1.402578635E0,5.088878980E0
1.082650167E1,-4.980093452E0,-6.291399390E-1,-1.402202075E0,5.211844060E0
1.083654967E1,-5.099546805E0,-6.943428254E-1,-1.298404641E0,5.307856836E0
1.084659767E1,-5.059233177E0,-7.319883692E-1,-1.243094659E0,5.260886963E0
1.085664567E1,-5.026726166E0,-8.497770202E-1,-1.217424797E0,5.241394859E0
1.086669467E1,-4.972965111E0,-8.600464851E-1,-1.262992734E0,5.202423723E0
1.087674267E1,-4.844434833E0,-7.441716278E-1,-1.365911915E0,5.088030623E0
1.088679067E1,-4.806367412E0,-5.568350244E-1,-1.493018689E0,5.063628911E0
1.089683867E1,-4.805275152E0,-3.042423248E-1,-1.482597781E0,5.037988573E0
1.090688667E1,-4.710606977E0,-3.504587173E-2,-1.448681592E0,4.928460678E0
1.091693467E1,-4.521189057E0,2.082725590E-1,-1.425672213E0,4.745215402E0
1.092698367E1,-4.515917500E0,3.322399628E-1,-1.250337020E0,4.697577772E0
1.093703167E1,-4.568797379E0,4.140968889E-1,-1.024224021E0,4.700470250E0
1.094707967E1,-4.552637137E0,4.821327513E-1,-9.291471255E-1,4.671431394E0
1.095712767E1,-4.556303926E0,3.587863219E-1,-9.126591468E-1,4.660641566E0
1.096717567E1,-4.584903827E0,1.740844738E-1,-8.516364348E-1,4.666576167E0
1.097722467E1,-4.555784108E0,7.706337869E-2,-8.070210099E-1,4.627352431E0
1.098727267E1,-4.588858591E0,7.366205335E-2,-7.062407398E-1,4.643471250E0
1.099732067E1,-4.528217410E0,4.898586774E-1,-5.983514249E-1,4.593771747E0
1.100736867E1,-4.395100576E0,1.121768442E0,-5.549849653E-1,4.569822953E0
1.101741667E1,-4.471997016E0,1.655502287E0,-6.837254512E-1,4.817356706E0
1.102746467E1,-4.616964110E0,1.897242554E0,-8.263133132E-1,5.059513870E0
1.103751367E1,-4.710873610E0,1.721885726E0,-8.823694003E-1,5.092719939E0
1.104756167E1,-4.751697992E0,1.210408723E0,-7.866656828E-1,4.966141962E0
1.105760967E1,-4.740533319E0,6.935990596E-1,-4.693209171E-1,4.813937881E0
1.106765767E1,-4.729505762E0,3.785154122E-1,-9.771515965E-2,4.745634513E0
1.107770567E1,-4.697229424E0,4.938558340E-2,2.222281086E-1,4.702742661E0
1.108775467E1,-4.652313453E0,-1.377779424E-1,3.886656304E-1,4.670552879E0
1.109780267E1,-4.513445005E0,-2.205885494E-1,4.579142054E-1,4.541974299E0
1.110785067E1,-4.382911470E0,-2.705524224E-1,5.040499429E-1,4.420087998E0
1.111789867E1,-4.271524935E0,-2.676463562E-1,5.735007950E-1,4.318155047E0
1.112794667E1,-4.151404707E0,-4.512904429E-1,7.011793169E-1,4.234321261E0
1.113799467E1,-4.015325381E0,-7.076662910E-1,9.483178067E-1,4.186040630E0
1.114804367E1,-3.833540709E0,-7.684048283E-1,1.258106800E0,4.107226931E0
1.115809167E1,-3.554541106E0,-7.755752689E-1,1.521394057E0,3.943465399E0
1.116813967E1,-3.145893822E0,-7.011647719E-1,1.725361311E0,3.655838021E0
1.117818767E1,-2.899290426E0,-4.908035874E-1,1.900236329E0,3.501095720E0
1.118823567E1,-2.788614328E0,-1.608440387E-1,2.021359062E0,3.447917217E0
1.119828467E1,-2.589171357E0,2.065581554E-1,2.038375629E0,3.301734361E0
1.120833267E1,-2.378443844E0,5.131762040E-1,2.142588215E0,3.242071744E0
1.121838067E1,-2.176074049E0,7.361451548E-1,2.357327210E0,3.291534525E0
1.122842867E1,-2.117887676E0,8.983896017E-1,2.612613137E0,3.481134799E0
1.123847667E1,-2.130366511E0,1.188536628E0,2.849344679E0,3.750979324E0
1.124852467E1,-2.135032004E0,1.416297373E0,3.208497037E0,4.105936329E0
1.125857367E1,-2.189866169E0,1.721583425E0,3.656313064E0,4.596519178E0
1.126862167E1,-2.099439564E0,2.049642629E0,4.154298202E0,5.085948775E0
1.127866967E1,-1.833800118E0,2.121951637E0,4.528619406E0,5.326715249E0
1.128871767E1,-1.672275610E0,1.972043061E0,4.679474062E0,5.346301249E0
1.129876567E1,-1.536759224E0,2.190016150E0,4.476854006E0,5.215363980E0
1.130881467E1,-1.303542736E0,2.258413956E0,4.237885319E0,4.975874721E0
1.131886267E1,-1.355828246E0,1.881307138E0,4.341249181E0,4.921791466E0
1.132891067E1,-1.572256209E0,1.661352426E0,4.688489299E0,5.216705222E0
1.133895867E1,-1.542167460E0,1.594469050E0,5.037292085E0,5.504082446E0
1.134900667E1,-1.439752893E0,1.288255044E0,5.332040870E0,5.671256412E0
1.135905467E1,-1.402256892E0,1.039292296E0,5.576547455E0,5.843315359E0
1.136910367E1,-1.129637479E0,8.734278381E-1,5.555987476E0,5.736545463E0
1.137915167E1,-7.448450808E-1,8.889685678E-1,5.492265104E0,5.613380023E0
1.138919967E1,-4.627964477E-1,1.130543944E0,5.471292311E0,5.606010142E0
1.139924767E1,-1.722043017E-1,1.188181118E0,5.330746297E0,5.464273490E0
1.140929567E1,1.184455857E-1,1.073637087E0,5.115691552E0,5.228482190E0
1.141934467E1,3.691224450E-1,9.631486845E-1,4.922484344E0,5.029389514E0
1.142939229E1,5.574600917E-1,8.897117490E-1,4.725629936E0,4.840860155E0
1.143944029E1,7.407939836E-1,8.536338437E-1,4.617436273E0,4.753754748E0
1.144948829E1,8.805427301E-1,8.621707785E-1,4.436424018E0,4.604405718E0
1.145953629E1,1.139476150E0,9.181444198E-1,4.257365610E0,4.501839292E0
1.146958429E1,1.354070719E0,9.909481019E-1,4.117288835E0,4.446071637E0
1.147963329E1,1.368459547E0,1.252481779E0,3.892679740E0,4.312116383E0
1.148968129E1,1.559122047E0,1.451972989E0,3.788444935E0,4.346424064E0
1.149972929E1,1.718566262E0,1.426159871E0,3.719958837E0,4.338835757E0
1.150977729E1,1.970898761E0,1.475201638E0,3.582453375E0,4.346795829E0
1.151982529E1,2.015772925E0,1.449475059E0,3.550985707E0,4.332876403E0
1.152987429E1,1.942265823E0,1.461543127E0,3.542590567E0,4.296330151E0
1.153992229E1,2.039431344E0,1.523175704E0,3.332194884E0,4.193192957E0
1.154997029E1,2.026072795E0,1.449783207E0,3.093607728E0,3.972058798E0
1.156001829E1,2.001383512E0,1.337548242E0,2.897070823E0,3.766641821E0
1.157006629E1,2.019800195E0,1.357046367E0,2.603457566E0,3.563587935E0
1.158011429E1,2.028374259E0,1.466956480E0,2.292984010E0,3.394707516E0
1.159016329E1,1.954118421E0,1.658528806E0,2.041177176E0,3.276537940E0
1.160021129E1,1.970471914E0,1.896690577E0,1.807885112E0,3.278512359E0
1.161025929E1,2.077009937E0,2.129238437E0,1.552551531E0,3.355300710E0
1.162030729E1,2.298735185E0,2.337368324E0,1.352983429E0,3.546553016E0
1.163035529E1,2.336724545E0,2.408395622E0,1.374607894E0,3.626320164E0
1.164040329E1,2.517053846E0,2.432128301E0,1.404070552E0,3.771236170E0
1.165045229E1,2.751932405E0,2.366346540E0,1.321629928E0,3.862568262E0
1.166050029E1,2.844016696E0,2.241193321E0,1.279347396E0,3.840326578E0
1.167054829E1,2.969056479E0,2.147500461E0,1.208815065E0,3.858534497E0
1.168059629E1,3.204195825E0,2.165620982E0,9.799573830E-1,3.989624242E0
1.169064429E1,3.526653396E0,2.399495575E0,6.968372476E-1,4.322088076E0
1.170069329E1,3.869659837E0,2.985490664E0,4.932930395E-1,4.912306971E0
1.171074129E1,4.143256904E0,3.648770156E0,4.222916155E-1,5.537005656E0
1.172078929E1,4.446286517E0,4.065807610E0,3.595638554E-1,6.035688981E0
1.173083729E1,4.753146055E0,4.176795364E0,1.999512403E-1,6.330718556E0
1.174088529E1,4.941532819E0,3.862939047E0,2.398409455E-1,6.276827890E0
1.175093329E1,4.919722120E0,3.277698834E0,4.005402656E-1,5.925150452E0
1.176098229E1,4.808665368E0,2.618963798E0,4.353614581E-1,5.492883905E0
1.177103029E1,4.625506015E0,1.889054114E0,3.817400055E-1,5.010943701E0
1.178107829E1,4.248024976E0,1.029960725E0,3.391443551E-1,4.384239293E0
1.179112629E1,3.940984173E0,1.921564633E-1,2.984652758E-1,3.956938448E0
1.180117429E1,3.626367719E0,-3.969072443E-1,1.811036177E-1,3.652516490E0
1.181122329E1,3.450375883E0,-8.167349893E-1,6.653064296E-2,3.546346867E0
1.182127129E1,3.195730226E0,-1.049751796E0,1.533943936E-2,3.363763637E0
1.183131929E1,2.880412105E0,-9.914778596E-1,-3.677299306E-2,3.046498727E0
1.184136729E1,2.630850018E0,-6.447373867E-1,-1.182422487E-1,2.711280019E0
1.185141529E1,2.595141656E0,-8.642067790E-2,-3.171658409E-1,2.615878996E0
1.186146329E1,2.503106774E0,3.845041305E-1,-5.167159621E-1,2.584643561E0
1.187151229E1,2.289980149E0,7.268621153E-1,-4.569831459E-1,2.445643313E0
1.188156029E1,2.171792718E0,1.017638887E0,-3.244467938E-1,2.420235162E0
1.189160829E1,2.195831499E0,1.266953638E0,-1.406277291E-1,2.539020214E0
1.190165629E1,2.398103645E0,1.328424831E0,-6.614224166E-3,2.741469929E0
1.191170429E1,2.553071817E0,1.364866433E0,2.202597897E-1,2.903368812E0
1.192175329E1,2.488121238E0,1.400475392E0,7.246221931E-1,2.945701264E0
1.193180129E1,2.411391443E0,1.305130693E0,1.048443335E0,2.935542240E0
1.194184929E1,2.445479541E0,1.091254163E0,9.944466372E-1,2.856594116E0
1.195189729E1,2.418798403E0,8.519445831E-1,8.757993226E-1,2.709874488E0
1.196194529E1,2.203080000E0,6.071216637E-1,9.051464979E-1,2.457935797E0
1.197199329E1,2.006676411E0,4.207486814E-1,9.906621730E-1,2.277101494E0
1.198204229E1,1.729912784E0,3.526151705E-1,1.021666449E0,2.039788723E0
1.199209029E1,1.477937843E0,2.603045923E-1,9.558630538E-1,1.779250664E0
1.200213829E1,1.187171596E0,1.615638310E-1,7.446967077E-1,1.410692190E0
1.201218629E1,8.364181790E-1,1.532286251E-1,5.551005940E-1,1.015485623E0
1.202223429E1,4.673235083E-1,2.103570914E-1,4.688683426E-1,6.946070040E-1
1.203228329E1,2.775661576E-1,2.277163053E-1,4.708387081E-1,5.921036874E-1
1.204233129E1,-1.501769632E-2,2.217959994E-1,4.618442287E-1,5.125613018E-1
1.205237929E1,-3.993312076E-1,3.049773198E-1,3.769688237E-1,6.281576816E-1
1.206242729E1,-6.748411918E-1,3.595821279E-1,1.938806610E-1,7.888597160E-1
1.207247529E1,-9.271682815E-1,3.515673494E-1,9.936612099E-3,9.916346907E-1
1.208252329E1,-1.342418388E0,3.497301543E-1,-3.828771427E-2,1.387755114E0
1.209257229E1,-1.698246895E0,3.427702135E-1,-2.353153467E-2,1.732653361E0
1.210262029E1,-2.056445718E0,4.135162604E-1,-4.912231252E-2,2.098184380E0
1.211266829E1,-2.403639058E0,4.604863590E-1,-8.439023226E-2,2.448805856E0
1.212271629E1,-2.609001312E0,4.790886909E-1,-2.185326684E-1,2.661610480E0
1.213276429E1,-2.873413281E0,5.439676416E-1,-5.062938850E-1,2.967951848E0
1.214281329E1,-3.191371711E0,5.824481678E-1,-6.343271501E-1,3.305521170E0
1.215286129E1,-3.601508281E0,5.529741079E-1,-7.224983382E-1,3.714652893E0
1.216290929E1,-4.040271065E0,4.079725152E-1,-8.123666807E-1,4.141276551E0
1.217295729E1,-4.471484800E0,1.378200424E-1,-9.269099808E-1,4.568624825E0
1.218300529E1,-4.788920783E0,-2.481061310E-1,-1.016793380E0,4.901957537E0
1.219305329E1,-5.023168720E0,-5.783884460E-1,-1.050611263E0,5.164352932E0
1.220310229E1,-5.262551390E0,-8.312214661E-1,-1.025064851E0,5.425507737E0
1.221315029E1,-5.455744565E0,-1.001690022E0,-1.026231955E0,5.641071146E0
1.222319829E1,-5.541830197E0,-1.050234776E0,-1.115746980E0,5.749762285E0
1.223324629E1,-5.600323988E0,-1.008119620E0,-1.229281197E0,5.821603405E0
1.224329429E1,-5.692462074E0,-9.193547934E-1,-1.246750338E0,5.899468120E0
1.225334329E1,-5.714019588E0,-8.765800720E-1,-1.170980948E0,5.898271684E0
1.226339129E1,-5.677465720E0,-8.401425630E-1,-1.104263048E0,5.844557588E0
1.227343929E1,-5.638594599E0,-7.064272660E-1,-1.094900486E0,5.787192377E0
1.228348729E1,-5.563663116E0,-5.680242562E-1,-1.062149062E0,5.692552982E0
1.229353529E1,-5.421664068E0,-4.217228276E-1,-1.037137012E0,5.536058579E0
1.230358329E1,-5.303514644E0,-1.880996650E-1,-9.829988122E-1,5.397122912E0
1.231363229E1,-5.219609438E0,-2.068686426E-2,-8.311887217E-1,5.285416287E0
1.232368029E1,-5.139632392E0,2.875719130E-2,-5.930339670E-1,5.173812655E0
1.233372829E1,-5.005781440E0,8.099387705E-2,-3.483607364E-1,5.018541923E0
1.234377629E1,-4.889113115E0,1.821214718E-1,4.899966717E-4,4.892504014E0
1.235382429E1,-4.674160405E0,1.546933526E-1,4.097459757E-1,4.694634947E0
1.236387329E1,-4.486255744E0,1.414382994E-1,8.538069212E-1,4.568969430E0
1.237392129E1,-4.383004441E0,2.418045866E-1,1.175704329E0,4.544389734E0
1.238396929E1,-4.320487180E0,4.426383179E-1,1.178865334E0,4.500251285E0
1.239401729E1,-4.149881215E0,8.198936552E-1,1.171920011E0,4.389434613E0
1.240406529E1,-3.961509947E0,1.318616127E0,1.410774093E0,4.407107111E0
1.241411329E1,-3.871661046E0,1.735116806E0,1.712421423E0,4.575235155E0
1.242416229E1,-3.819332559E0,2.092377005E0,1.903934108E0,4.752926237E0
1.243421042E1,-3.697038921E0,2.270990147E0,1.990579319E0,4.773667255E0
1.244425842E1,-3.539597085E0,2.297872721E0,2.036561823E0,4.685781752E0
1.245430642E1,-3.393457916E0,2.181456411E0,2.225142714E0,4.607121531E0
1.246435442E1,-3.178910710E0,1.893940047E0,2.471625073E0,4.449877831E0
1.247440342E1,-2.962663426E0,1.520986506E0,2.565189879E0,4.203685721E0
1.248445142E1,-2.711624916E0,1.073523651E0,2.469997208E0,3.821812257E0
1.249449942E1,-2.462963885E0,5.840269160E-1,2.387964281E0,3.479892519E0
1.250454742E1,-2.205259696E0,1.223237514E-2,2.422012618E0,3.275586219E0
1.251459542E1,-1.934383484E0,-3.470427740E-1,2.519396825E0,3.195252495E0
1.252464342E1,-1.563985176E0,-3.248473281E-1,2.654016101E0,3.097640535E0
1.253469242E1,-1.231984511E0,-3.015514362E-1,2.745970584E0,3.024743551E0
1.254474042E1,-1.066781373E0,-3.235498309E-1,2.643988127E0,2.869386729E0
1.255478842E1,-1.265985339E0,2.101863527E-1,2.298243434E0,2.632265196E0
1.256483642E1,-1.581678266E0,9.885600990E-1,1.932324825E0,2.685672436E0
1.257488442E1,-2.171831895E0,1.498351350E0,1.738450011E0,3.159765654E0
1.258493342E1,-2.854717686E0,1.702222710E0,1.697155513E0,3.731931410E0
1.259498142E1,-3.310687363E0,1.769042936E0,2.083986250E0,4.293385892E0
1.260502942E1,-3.860358963E0,1.585449135E0,2.730436871E0,4.987113974E0
1.261507742E1,-4.186272824E0,1.105412611E0,3.480752753E0,5.555398898E0
1.262512542E1,-4.507955931E0,7.860143030E-1,4.016997392E0,6.088986222E0
1.263517342E1,-4.713920886E0,6.985849804E-1,4.327478696E0,6.437091188E0
1.264522242E1,-4.834099002E0,5.029891849E-1,4.637823175E0,6.717954680E0
1.265527042E1,-4.774272630E0,1.528035325E-1,4.822829078E0,6.787982645E0
1.266531842E1,-4.820269752E0,-2.084240019E-2,4.993710448E0,6.940646866E0
1.267536642E1,-4.899677864E0,-2.258019269E-2,5.087115040E0,7.063008740E0
1.268541442E1,-4.789429198E0,1.598511815E-1,5.052955606E0,6.963946065E0
1.269546342E1,-4.679705904E0,5.363943279E-1,5.093035930E0,6.937318013E0
1.270551142E1,-4.536852578E0,7.551638085E-1,5.389755228E0,7.085390964E0
1.271555942E1,-4.410004544E0,9.134719098E-1,5.795487090E0,7.339634978E0
1.272560742E1,-4.110290303E0,1.166310192E0,6.157401087E0,7.494554956E0
1.273565542E1,-3.672407233E0,1.326136231E0,6.427424921E0,7.520439037E0
1.274570342E1,-3.385502487E0,1.336486387E0,6.646186216E0,7.577573106E0
1.275575242E1,-3.130293451E0,1.528541109E0,6.779465311E0,7.622094522E0
1.276580042E1,-3.023648131E0,1.831028684E0,6.775034291E0,7.641740882E0
1.277584842E1,-2.815625833E0,2.187129965E0,6.643045092E0,7.539319227E0
1.278589642E1,-2.601461912E0,2.597851256E0,6.567366918E0,7.526403090E0
1.279594442E1,-2.593624012E0,2.822870826E0,6.753039404E0,7.765244774E0
1.280599342E1,-2.565784541E0,2.898673545E0,7.009703520E0,8.007590278E0
1.281604142E1,-2.494885297E0,2.826304311E0,7.172601686E0,8.103003372E0
1.282608942E1,-2.396543754E0,2.691714855E0,7.277386129E0,8.120905103E0
1.283613742E1,-2.290216377E0,2.702927476E0,7.359824853E0,8.168104422E0
1.284618542E1,-2.154662423E0,2.664695456E0,7.392604344E0,8.148237295E0
1.285623342E1,-1.883387577E0,2.537335498E0,7.333831640E0,7.985631266E0
1.286628242E1,-1.538832647E0,2.407431416E0,7.185590106E0,7.732815600E0
1.287633042E1,-1.186079628E0,2.361730748E0,7.074540371E0,7.552064517E0
1.288637842E1,-8.310975051E-1,2.332901051E0,6.918489879E0,7.348377548E0
1.289642642E1,-5.678377301E-1,2.344693716E0,6.651932859E0,7.075891398E0
1.290647442E1,-3.096954381E-1,2.354394246E0,6.347453138E0,6.777111838E0
1.291652342E1,-7.099484593E-2,2.283617209E0,6.053504836E0,6.470306687E0
1.292657142E1,1.620245916E-1,2.102920704E0,5.798492559E0,6.170173693E0
1.293661942E1,4.785180026E-1,1.998163158E0,5.491471052E0,5.863266138E0
1.294666742E1,8.394470367E-1,1.982255223E0,5.163078557E0,5.593870510E0
1.295671542E1,1.176197249E0,1.963697914E0,4.889931141E0,5.399164382E0
1.296676442E1,1.438053693E0,1.978931081E0,4.749567267E0,5.342523362E0
1.297681242E1,1.668579000E0,2.053949103E0,4.603003591E0,5.309473124E0
1.298686042E1,2.024326816E0,2.124178841E0,4.371818425E0,5.265247492E0
1.299690842E1,2.376021343E0,2.190080470E0,4.146109761E0,5.256629722E0
1.300695642E1,2.694785812E0,2.240317993E0,3.933300347E0,5.267992683E0
1.301700442E1,2.983645282E0,2.204442401E0,3.734004434E0,5.263505921E0
1.302705342E1,3.262023911E0,2.046949986E0,3.644511336E0,5.302194557E0
1.303710142E1,3.618913103E0,1.901053185E0,3.523007949E0,5.396491478E0
1.304714942E1,3.961169639E0,1.640037571E0,3.329283848E0,5.428141402E0
1.305719742E1,4.285651516E0,1.384163414E0,2.995105825E0,5.408639032E0
1.306724542E1,4.381249399E0,1.367066156E0,2.608944594E0,5.279281018E0
1.307729442E1,4.471011468E0,1.844993005E0,2.376907488E0,5.389214409E0
1.308734242E1,4.460071620E0,2.644286335E0,2.256520335E0,5.654765521E0
1.309739042E1,4.342446983E0,3.310578312E0,2.051998472E0,5.833307149E0
1.310743842E1,4.341259414E0,3.474306782E0,1.755911551E0,5.831000454E0
1.311748642E1,4.446947252E0,3.256428418E0,1.527313486E0,5.719471338E0
1.312753442E1,4.622560188E0,2.908254792E0,1.389565072E0,5.635326053E0
1.313758342E1,4.744841255E0,2.699181749E0,1.282136518E0,5.607403561E0
1.314763142E1,4.755938101E0,2.917336687E0,1.155957697E0,5.697897750E0
1.315767942E1,4.725996264E0,3.179742769E0,1.038986194E0,5.790103373E0
1.316772742E1,4.547241326E0,3.194650245E0,1.009827007E0,5.648269156E0
1.317777542E1,4.426276468E0,2.971455007E0,8.437650593E-1,5.397537189E0
1.318782442E1,4.149955767E0,2.484219975E0,5.496672150E-1,4.867814274E0
1.319787242E1,3.870675791E0,1.852313719E0,2.969353518E-1,4.301321633E0
1.320792042E1,3.517007829E0,1.285215662E0,4.238763571E-2,3.744718958E0
1.321796842E1,3.084884267E0,8.029723978E-1,-1.881321171E-1,3.193222401E0
1.322801642E1,2.698851382E0,3.956231958E-1,-4.329816413E-1,2.761845324E0
1.323806542E1,2.222846512E0,1.236341125E-1,-6.010234563E-1,2.305983783E0
1.324811342E1,1.827454574E0,5.583857059E-2,-7.358754520E-1,1.970842674E0
1.325816142E1,1.659795021E0,9.254563630E-2,-9.207199721E-1,1.900318255E0
1.326820942E1,1.470442590E0,2.112961543E-1,-1.092037836E0,1.843744589E0
1.327825742E1,1.282016065E0,4.840091228E-1,-1.037670132E0,1.718891889E0
1.328830542E1,1.270405249E0,8.481158262E-1,-9.559965165E-1,1.801987595E0
1.329835442E1,1.374754952E0,1.205828015E0,-1.002024336E0,2.085191873E0
1.330840242E1,1.402770132E0,1.559757639E0,-1.054143054E0,2.347727734E0
1.331845042E1,1.410153703E0,1.874044896E0,-8.999062233E-1,2.512052736E0
1.332849842E1,1.542326212E0,2.048404189E0,-6.811165698E-1,2.653045353E0
1.333854642E1,1.588146748E0,1.887602250E0,-5.295519161E-1,2.523029445E0
1.334859542E1,1.641366059E0,1.622944990E0,-5.481764674E-1,2.372452406E0
1.335864342E1,1.624580457E0,1.337326047E0,-5.561323352E-1,2.176461760E0
1.336869142E1,1.506285729E0,1.074032943E0,-4.479600151E-1,1.903447303E0
1.337873942E1,1.356443519E0,8.324762785E-1,-4.058903217E-1,1.642468486E0
1.338878742E1,1.137601533E0,6.200551200E-1,-3.578997378E-1,1.344134600E0
1.339883542E1,1.003262046E0,4.367156732E-1,-3.790317214E-1,1.157981156E0
1.340888442E1,8.371508351E-1,3.004398805E-1,-5.179394189E-1,1.029245784E0
1.341893242E1,6.638159743E-1,2.029130012E-1,-5.997278595E-1,9.173324584E-1
1.342898042E1,4.275469467E-1,1.995362341E-2,-5.864172578E-1,7.260025750E-1
1.343902858E1,1.878567132E-1,-1.017696190E-1,-6.488632552E-1,6.831330207E-1
1.344907658E1,3.656059295E-2,-1.385252166E-1,-8.003622007E-1,8.130839839E-1
1.345912558E1,-2.187994476E-1,-2.192787731E-1,-9.038906622E-1,9.554970998E-1
1.346917358E1,-4.349015746E-1,-2.543556350E-1,-9.469518971E-1,1.072638832E0
1.347922158E1,-6.003554119E-1,-2.952762043E-1,-1.009690182E0,1.211234462E0
1.348926958E1,-7.399448217E-1,-3.412078375E-1,-1.093664385E0,1.363833903E0
1.349931758E1,-8.414736816E-1,-4.353690594E-1,-1.127739619E0,1.472895388E0
1.350936558E1,-9.405299002E-1,-4.910573566E-1,-1.132790444E0,1.552078610E0
1.351941458E1,-1.047383819E0,-4.675123733E-1,-1.144272621E0,1.620166817E0
1.352946258E1,-1.219350286E0,-4.678187674E-1,-1.151126727E0,1.740908458E0
1.353951058E1,-1.399860849E0,-4.770053279E-1,-1.170667537E0,1.886161966E0
1.354955858E1,-1.462849541E0,-4.915467685E-1,-1.255460351E0,1.989403855E0
1.355960658E1,-1.558512913E0,-5.473321295E-1,-1.333997812E0,2.123225170E0
1.356965558E1,-1.677715275E0,-5.940940672E-1,-1.367570770E0,2.244532494E0
1.357970358E1,-1.788740598E0,-6.267057431E-1,-1.446045082E0,2.383988128E0
1.358975158E1,-1.938609705E0,-6.835968125E-1,-1.502015800E0,2.545891524E0
1.359979958E1,-2.140658488E0,-8.203567547E-1,-1.528896035E0,2.755526638E0
1.360984758E1,-2.407709743E0,-9.413678062E-1,-1.561639273E0,3.020257733E0
1.361989558E1,-2.645369239E0,-1.011660694E0,-1.636291845E0,3.270915280E0
1.362994458E1,-2.812631181E0,-1.022247663E0,-1.787653454E0,3.485912982E0
1.363999258E1,-2.927898513E0,-9.960603225E-1,-2.022082947E0,3.695070407E0
1.365004058E1,-3.130696909E0,-9.202792382E-1,-2.201660880E0,3.936430825E0
1.366008858E1,-3.345598164E0,-7.447896785E-1,-2.242198457E0,4.095753003E0
1.367013658E1,-3.506807069E0,-5.478735816E-1,-2.303190179E0,4.231140069E0
1.368018558E1,-3.709513371E0,-2.885331953E-1,-2.429091842E0,4.443447764E0
1.369023358E1,-3.948356051E0,-7.496773660E-2,-2.387704664E0,4.614788102E0
1.370028158E1,-4.192200438E0,6.155188501E-2,-2.443756658E0,4.852863047E0
1.371032958E1,-4.444155207E0,2.262217569E-1,-2.509025034E0,5.108512347E0
1.372037758E1,-4.562427130E0,3.470281559E-1,-2.520728821E0,5.224006474E0
1.373042658E1,-4.831998390E0,4.869841862E-1,-2.538545287E0,5.479924653E0
1.374047458E1,-4.940720056E0,5.387495863E-1,-2.463547145E0,5.547074032E0
1.375052258E1,-5.099262630E0,5.292601401E-1,-2.345744460E0,5.637828726E0
1.376057058E1,-5.283671533E0,5.559374768E-1,-2.198250346E0,5.749657027E0
1.377061858E1,-5.370457662E0,6.885020417E-1,-2.096617405E0,5.806173878E0
1.378066758E1,-5.393086386E0,1.230572262E0,-2.093346912E0,5.914540570E0
1.379071558E1,-5.389652901E0,1.800617316E0,-1.936013541E0,6.003226595E0
1.380076358E1,-5.520377932E0,2.094166837E0,-1.879652960E0,6.196224859E0
1.381081158E1,-5.609904066E0,2.214786125E0,-1.964334092E0,6.343099372E0
1.382085958E1,-5.520574983E0,1.994514495E0,-2.015855517E0,6.206328196E0
1.383090758E1,-5.550928465E0,1.535741370E0,-1.955106016E0,6.082248590E0
1.384095658E1,-5.662984505E0,1.274246285E0,-1.721419703E0,6.054451494E0
1.385100458E1,-5.637033393E0,1.111059267E0,-1.424874653E0,5.919532578E0
1.386105258E1,-5.549875381E0,8.286650634E-1,-1.176767864E0,5.733461881E0
1.387110058E1,-5.422973844E0,5.942133504E-1,-9.250879153E-1,5.533310264E0
1.388114858E1,-5.225366607E0,3.581524837E-1,-7.203845698E-1,5.286935152E0
1.389119758E1,-4.926611309E0,7.428770542E-2,-6.879301840E-1,4.974963878E0
1.390124558E1,-4.637020937E0,-1.895246315E-1,-6.868414325E-1,4.691442626E0
1.391129358E1,-4.339885318E0,-3.298274016E-1,-6.332704121E-1,4.398229428E0
1.392134158E1,-3.996633587E0,-3.707584959E-1,-5.144070429E-1,4.046622850E0
1.393138958E1,-3.642712148E0,-3.503423578E-1,-4.125736892E-1,3.682703981E0
1.394143758E1,-3.334318008E0,-1.995450050E-1,-3.130470622E-1,3.354920752E0
1.395148658E1,-3.041183054E0,9.112242401E-2,-2.358252422E-1,3.051673509E0
1.396153458E1,-2.738988132E0,3.850479215E-1,-2.264147151E-1,2.775172339E0
1.397158258E1,-2.479276739E0,6.351467836E-1,-2.735391802E-1,2.573916912E0
1.398163058E1,-2.056411658E0,9.266801852E-1,-4.452607942E-1,2.299091614E0
1.399167858E1,-1.778039462E0,1.110392684E0,-5.177183211E-1,2.159265732E0
1.400172758E1,-1.611862909E0,1.183270626E0,-3.607609266E-1,2.031841494E0
1.401177558E1,-1.397562163E0,1.339468467E0,-2.502134675E-1,1.951912537E0
1.402182358E1,-1.255595129E0,1.608084877E0,-2.256440520E-1,2.052649833E0
1.403187158E1,-1.291648330E0,1.835433392E0,-6.853520553E-2,2.245410479E0
1.404191958E1,-1.311393207E0,1.935903175E0,1.529935853E-1,2.343262743E0
1.405196858E1,-1.186192187E0,1.956245053E0,3.155778102E-1,2.309444948E0
1.406201658E1,-1.034654285E0,1.966898096E0,5.574559987E-1,2.291277984E0
1.407206458E1,-8.570509565E-1,1.916878674E0,8.791277039E-1,2.276362386E0
1.408211258E1,-7.165827101E-1,1.827176539E0,1.284952537E0,2.345883183E0
1.409216058E1,-5.324550587E-1,1.798266150E0,1.548295927E0,2.431972412E0
1.410220858E1,-3.148190609E-1,1.826797639E0,1.653446406E0,2.483985844E0
1.411225758E1,-1.016330865E-1,1.912510804E0,1.707121507E0,2.565597533E0
1.412230558E1,9.219041795E-2,1.967493927E0,1.822123375E0,2.683219152E0
1.413235358E1,2.660848573E-1,1.989658383E0,1.902283878E0,2.765542547E0
1.414240158E1,4.906699786E-1,1.984442666E0,1.869950091E0,2.770466218E0
1.415244958E1,7.175276202E-1,2.005099125E0,1.801196482E0,2.789189337E0
1.416249858E1,8.894059396E-1,1.968877963E0,1.882940119E0,2.865830918E0
1.417254658E1,1.121273768E0,1.884469897E0,2.010601501E0,2.975063033E0
1.418259458E1,1.345681426E0,1.744278808E0,2.055138427E0,3.012799531E0
1.419264258E1,1.552471131E0,1.705053931E0,1.992500860E0,3.047529360E0
1.420269058E1,1.802823470E0,1.726044266E0,1.844628285E0,3.103555184E0
1.421273958E1,1.918021220E0,1.668124087E0,1.814232119E0,3.122960382E0
1.422278758E1,2.126790208E0,1.605745406E0,1.794851961E0,3.212965679E0
1.423283558E1,2.400895983E0,1.563981083E0,1.723183662E0,3.343605880E0
1.424288358E1,2.677975067E0,1.517375851E0,1.662321164E0,3.498184041E0
1.425293158E1,2.861102260E0,1.483907558E0,1.672649832E0,3.631204379E0
1.426297958E1,3.027596464E0,1.475068907E0,1.726660417E0,3.784643288E0
1.427302858E1,3.274879891E0,1.480157154E0,1.715080591E0,3.982110613E0
1.428307658E1,3.490191913E0,1.486525356E0,1.661074830E0,4.141300136E0
1.429312458E1,3.622522005E0,1.448640077E0,1.705357841E0,4.257871430E0
1.430317258E1,3.812447755E0,1.372985292E0,1.765195907E0,4.419927951E0
1.431322058E1,4.060995351E0,1.281651784E0,1.777612177E0,4.614566024E0
1.432326958E1,4.237461396E0,1.226202053E0,1.788918353E0,4.760239430E0
1.433331758E1,4.343346870E0,1.224388831E0,1.871610846E0,4.885357428E0
1.434336558E1,4.516621504E0,1.304398622E0,1.895201876E0,5.068837710E0
1.435341358E1,4.679890383E0,1.529266164E0,1.800709702E0,5.242383469E0
1.436346158E1,4.831164869E0,1.797374450E0,1.691748008E0,5.425193105E0
1.437350958E1,4.983723403E0,2.004219119E0,1.663988936E0,5.623455558E0
1.438355858E1,5.140902407E0,2.282022089E0,1.635433474E0,5.857571598E0
1.439360658E1,5.244395201E0,2.537367657E0,1.630136919E0,6.049732393E0
1.440365458E1,5.364874740E0,2.631192080E0,1.644729377E0,6.197595297E0
1.441370258E1,5.481394545E0,2.643784059E0,1.597568221E0,6.291860181E0
1.442375058E1,5.580540519E0,2.618490173E0,1.524659435E0,6.350079500E0
1.443380004E1,5.562752704E0,2.444020368E0,1.489378213E0,6.255853312E0
1.444384804E1,5.507255026E0,2.279560411E0,1.427279613E0,6.128897183E0
1.445389604E1,5.404164521E0,2.520022477E0,1.212891743E0,6.084949781E0
1.446394404E1,5.401049125E0,3.418592758E0,9.954199062E-1,6.469077900E0
1.447399204E1,5.363566133E0,4.313808491E0,8.999249344E-1,6.941660482E0
1.448404104E1,5.211351416E0,4.608022841E0,8.483808513E-1,7.007981745E0
1.449408904E1,5.157114397E0,4.351424798E0,8.504143667E-1,6.801024282E0
1.450413704E1,5.127612271E0,4.013977305E0,8.458276646E-1,6.566570326E0
1.451418504E1,4.965552011E0,3.863727252E0,7.905094962E-1,6.341135570E0
1.452423304E1,4.819728885E0,3.937422050E0,6.513024943E-1,6.257577315E0
1.453428204E1,4.591776352E0,3.872092863E0,6.327796845E-1,6.039695633E0
1.454433004E1,4.240397868E0,3.431718587E0,7.561407320E-1,5.507214845E0
1.455437804E1,3.900292230E0,2.857261224E0,8.414155018E-1,4.907565714E0
1.456442604E1,3.497253011E0,2.370716749E0,8.027174592E-1,4.300631563E0
1.457447404E1,3.094486272E0,1.808373647E0,6.292843652E-1,3.638964049E0
1.458452204E1,2.787499849E0,1.219473077E0,5.282038406E-1,3.088085052E0
1.459457104E1,2.473370467E0,8.606031400E-1,5.196291912E-1,2.669871481E0
1.460461904E1,2.168979623E0,7.496235716E-1,4.583377996E-1,2.340188377E0
1.461466704E1,1.825446348E0,8.950590277E-1,3.650956137E-1,2.065594306E0
1.462471504E1,1.418974228E0,1.223132265E0,1.176239057E-1,1.877065737E0
1.463476304E1,8.873348558E-1,1.578036620E0,-2.097348015E-1,1.822512389E0
1.464481204E1,5.198116243E-1,1.811063951E0,-4.780190890E-1,1.943877313E0
1.465486004E1,3.047621423E-1,1.883533757E0,-6.292994218E-1,2.009128453E0
1.466490804E1,1.143656909E-1,1.907548272E0,-6.489191692E-1,2.018146677E0
1.467495604E1,4.504227161E-2,1.833147131E0,-5.689887545E-1,1.919949325E0
1.468500404E1,-1.089874220E-1,1.746773230E0,-4.481142354E-1,1.806627063E0
1.469505304E1,-2.482248294E-1,1.519740465E0,-1.890568542E-1,1.551440988E0
1.470510104E1,-3.808197999E-1,1.238260181E0,1.584770858E-1,1.305154007E0
1.471514904E1,-5.138685143E-1,1.015305848E0,4.921133637E-1,1.239791264E0
1.472519704E1,-6.263250893E-1,7.109038943E-1,8.219312637E-1,1.254288032E0
1.473524504E1,-7.324263257E-1,4.054816014E-1,9.219959807E-1,1.245367512E0
1.474529404E1,-7.397885549E-1,2.251271582E-1,7.886456962E-1,1.104505037E0
1.475534204E1,-7.025672266E-1,1.948379964E-1,6.368097317E-1,9.680336704E-1
1.476539004E1,-7.113327876E-1,2.356983393E-1,6.038291696E-1,9.623708786E-1
1.477543804E1,-7.273836869E-1,3.212898821E-1,6.197206593E-1,1.008150739E0
1.478548604E1,-7.519101253E-1,4.379552829E-1,6.496000043E-1,1.085888499E0
1.479553404E1,-7.861610681E-1,5.082212734E-1,6.825526460E-1,1.158540548E0
1.480558304E1,-7.974017555E-1,4.775526273E-1,6.766059545E-1,1.149652856E0
1.481563104E1,-8.303853142E-1,4.299399197E-1,6.039787853E-1,1.113183937E0
1.482567904E1,-1.064997826E0,2.646718776E-1,5.097918355E-1,1.210024499E0
1.483572704E1,-1.121790954E0,2.092309177E-1,5.868733406E-1,1.283204130E0
1.484577504E1,-1.168246498E0,1.500225967E-1,6.940971693E-1,1.367142107E0
1.485582404E1,-1.462559373E0,8.757374883E-3,5.182246900E-1,1.551680844E0
1.486587204E1,-1.719056551E0,-1.302946758E-1,1.523140474E-1,1.730702660E0
1.487592004E1,-1.931738496E0,-2.311585611E-1,-1.380632865E-1,1.950412614E0
1.488596804E1,-2.135921804E0,-4.106803608E-1,-3.237883608E-1,2.199013237E0
1.489601604E1,-2.339026887E0,-5.991606796E-1,-4.076117055E-1,2.448711416E0
1.490606504E1,-2.471049122E0,-7.290513128E-1,-4.608646739E-1,2.617249669E0
1.491611304E1,-2.621060024E0,-7.878614384E-1,-6.315343738E-1,2.808828397E0
1.492616104E1,-2.787993646E0,-8.686027157E-1,-8.759491575E-1,3.048715496E0
1.493620904E1,-2.917845103E0,-9.938933444E-1,-1.114490998E0,3.277763599E0
1.494625704E1,-2.993244949E0,-1.087740571E0,-1.196770678E0,3.402198543E0
1.495630504E1,-3.017153921E0,-1.196212268E0,-1.285626721E0,3.490985196E0
1.496635404E1,-3.055171640E0,-1.303626789E0,-1.436319408E0,3.618912820E0
1.497640204E1,-3.043588598E0,-1.457392774E0,-1.532185094E0,3.706078307E0
1.498645004E1,-3.066505006E0,-1.600504546E0,-1.566648583E0,3.797295819E0
1.499649804E1,-3.094843829E0,-1.624112679E0,-1.614294035E0,3.849902018E0
1.500654604E1,-3.084982207E0,-1.615739467E0,-1.709876130E0,3.879614108E0
1.501659504E1,-3.131593287E0,-1.625779136E0,-1.793551540E0,3.958138633E0
1.502664304E1,-3.236695819E0,-1.557243921E0,-1.843138853E0,4.037123888E0
1.503669104E1,-3.335232512E0,-1.453525425E0,-1.952446702E0,4.128990215E0
1.504673904E1,-3.428162895E0,-1.398301982E0,-2.067099491E0,4.240336022E0
1.505678704E1,-3.568462157E0,-1.287908889E0,-2.083185766E0,4.328082071E0
1.506683604E1,-3.681877383E0,-1.046948640E0,-2.079707258E0,4.356317803E0
1.507688404E1,-3.787923948E0,-7.364404392E-1,-2.206602362E0,4.445200372E0
1.508693204E1,-4.074905292E0,-4.679152465E-1,-2.276784153E0,4.691219873E0
1.509698004E1,-4.312995143E0,-2.475038677E-1,-2.229188987E0,4.861323771E0
1.510702804E1,-4.453984669E0,-5.060765147E-2,-2.272792844E0,5.000612750E0
1.511707704E1,-4.659668958E0,7.047649026E-2,-2.322488914E0,5.206864362E0
1.512712504E1,-4.873576186E0,9.848172963E-2,-2.350783591E0,5.411804411E0
1.513717304E1,-5.142864733E0,7.454615235E-2,-2.245609723E0,5.612252472E0
1.514722104E1,-5.365195752E0,5.032388610E-1,-2.118650299E0,5.790272351E0
1.515726904E1,-5.418520020E0,1.283197787E0,-1.935180020E0,5.895072305E0
1.516731704E1,-5.590250405E0,1.775814012E0,-1.726334873E0,6.114298577E0
1.517736604E1,-5.841202961E0,1.868309362E0,-1.596330219E0,6.337073620E0
1.518741404E1,-6.020500227E0,1.681653959E0,-1.565686716E0,6.444048255E0
1.519746204E1,-6.039389073E0,1.257460683E0,-1.699145320E0,6.398634429E0
1.520751004E1,-6.004411029E0,9.780538219E-1,-1.718772084E0,6.321686370E0
1.521755804E1,-5.988393751E0,8.610194618E-1,-1.363484736E0,6.201717895E0
1.522760704E1,-6.021550972E0,6.292007500E-1,-9.509151399E-1,6.128556869E0
1.523765504E1,-5.950296217E0,2.984740466E-1,-7.894787782E-1,6.009857616E0
1.524770304E1,-5.763993402E0,-1.628098726E-2,-6.644951284E-1,5.802192584E0
1.525775104E1,-5.530683650E0,-3.302577567E-1,-5.482922788E-1,5.567598786E0
1.526779904E1,-5.232432382E0,-6.465050000E-1,-5.928263909E-1,5.305446303E0
1.527784804E1,-4.907661653E0,-7.939501441E-1,-6.493350524E-1,5.013694819E0
1.528789604E1,-4.647091012E0,-7.785029697E-1,-5.036826281E-1,4.738693695E0
1.529794404E1,-4.379482078E0,-5.544078451E-1,-3.353693926E-1,4.427155290E0
1.530799204E1,-4.064307799E0,-1.347251111E-1,-2.507087266E-1,4.074261111E0
1.531804004E1,-3.692704965E0,3.571654737E-1,-2.121135950E-1,3.715996409E0
1.532808904E1,-3.421484790E0,7.941173744E-1,-1.278382514E-1,3.514757914E0
1.533813704E1,-3.113551118E0,1.209191333E0,-5.092749417E-2,3.340499642E0
1.534818504E1,-2.767321107E0,1.599057945E0,-1.488613397E-1,3.199564364E0
1.535823304E1,-2.513585570E0,1.788187889E0,-2.680708641E-1,3.096383428E0
1.536828104E1,-2.282966999E0,1.844557972E0,-2.177468026E-1,2.943084453E0
1.537833004E1,-2.015680539E0,1.839106613E0,-8.614351988E-2,2.729963713E0
1.538837804E1,-1.724861959E0,1.744154263E0,-1.473614375E-2,2.453047090E0
1.539842604E1,-1.597015805E0,1.607901274E0,7.550862232E-2,2.267489259E0
1.540847404E1,-1.540143447E0,1.644665058E0,2.727305285E-1,2.269657888E0
1.541852204E1,-1.436622002E0,1.830686622E0,4.389656818E-1,2.368118906E0
1.542857004E1,-1.277607849E0,1.822723884E0,4.711241984E-1,2.275205965E0
1.543861904E1,-1.011902769E0,1.698122057E0,4.690320647E-1,2.031638947E0
1.544866704E1,-7.477159175E-1,1.572051995E0,6.534251797E-1,1.859406097E0
1.545871504E1,-4.058289260E-1,1.445421769E0,9.073335028E-1,1.754193630E0
1.546876304E1,3.853315115E-4,1.347369225E0,1.011899187E0,1.685035294E0
1.547881104E1,4.233074230E-1,1.307238030E0,1.023737460E0,1.713504837E0
1.548886004E1,7.707787979E-1,1.271347235E0,1.099420457E0,1.849094127E0
1.549890804E1,1.143599022E0,1.246747999E0,1.213980203E0,2.082293742E0
1.550895604E1,1.553743193E0,1.338091448E0,1.255047537E0,2.404111261E0
1.551900404E1,1.927888396E0,1.510126473E0,1.265358517E0,2.756513706E0
1.552905204E1,2.262770131E0,1.611942285E0,1.255763236E0,3.048840419E0
1.553910104E1,2.516767917E0,1.640508857E0,1.302050965E0,3.274252093E0
1.554914904E1,2.909659878E0,1.616833481E0,1.310949404E0,3.577549364E0
1.555919704E1,3.277246259E0,1.616713028E0,1.313184063E0,3.883111696E0
1.556924504E1,3.447003794E0,1.591991000E0,1.368948082E0,4.036123059E0
1.557929304E1,3.594619092E0,1.606580388E0,1.442489390E0,4.193228184E0
1.558934204E1,3.743094515E0,1.608574873E0,1.412247445E0,4.311926776E0
1.559939004E1,3.858822607E0,1.488428625E0,1.356471001E0,4.352694024E0
1.560943804E1,4.004377347E0,1.309730698E0,1.428888767E0,4.448837550E0
1.561948604E1,4.122829657E0,1.163283089E0,1.609511451E0,4.576186079E0
1.562953404E1,4.258596157E0,1.052633888E0,1.750827251E0,4.723248394E0
1.563958304E1,4.386172462E0,9.531727499E-1,1.762050397E0,4.822019158E0
1.564963104E1,4.402860416E0,9.191647589E-1,1.702896455E0,4.809355469E0
1.565967904E1,4.468841566E0,9.721118814E-1,1.490776867E0,4.810193564E0
1.566972704E1,4.524337490E0,9.833847284E-1,1.293850830E0,4.807361565E0
1.567977504E1,4.578411371E0,1.024027555E0,1.251799994E0,4.855665386E0
1.568982404E1,4.651820825E0,1.084756737E0,1.336116843E0,4.959974030E0
1.569987204E1,4.733151501E0,1.152714247E0,1.397678668E0,5.068035017E0
1.570992004E1,4.783085554E0,1.280898077E0,1.408027071E0,5.147926527E0
1.571996804E1,4.776183500E0,1.500158724E0,1.386986742E0,5.194818308E0
1.573001604E1,4.723959094E0,1.783118938E0,1.371387248E0,5.232208487E0
1.574006404E1,4.679611471E0,2.112610125E0,1.317882740E0,5.300820689E0
1.575011304E1,4.611729975E0,2.466612255E0,1.223990782E0,5.371255237E0
1.576016104E1,4.533811734E0,2.766697209E0,1.221823804E0,5.450038137E0
1.577020904E1,4.424274673E0,2.920571952E0,1.310579860E0,5.460912605E0
1.578025704E1,4.305901886E0,2.956886669E0,1.387615610E0,5.404576478E0
1.579030504E1,4.223094787E0,2.878560292E0,1.425275334E0,5.305850423E0
1.580035404E1,4.114385108E0,2.752349312E0,1.428417627E0,5.152083896E0
1.581040204E1,3.982171960E0,2.826327115E0,1.381580407E0,5.074897329E0
1.582045004E1,3.878403178E0,3.469724320E0,1.125522501E0,5.324265111E0
1.583049804E1,3.872236705E0,4.464294187E0,9.260410845E-1,5.981779984E0
1.584054604E1,3.749931664E0,5.222673964E0,9.589842975E-1,6.500612410E0
1.585059504E1,3.713198871E0,5.426338332E0,1.061556301E0,6.660322465E0
1.586064304E1,3.746611615E0,5.135716512E0,1.120538042E0,6.455097845E0
1.587069104E1,3.744374471E0,4.780179487E0,1.106832461E0,6.172157986E0
1.588073904E1,3.694391302E0,4.612288969E0,1.115216053E0,6.013771152E0
1.589078704E1,3.544989095E0,4.520686489E0,1.099489381E0,5.849139331E0
1.590083604E1,3.354851675E0,4.180326498E0,1.057667610E0,5.463407376E0
1.591088404E1,3.113570414E0,3.544825373E0,1.137848139E0,4.853329376E0
1.592093204E1,2.932341228E0,2.867062327E0,1.218826521E0,4.278341916E0
1.593098004E1,2.785866721E0,2.231362982E0,1.152009145E0,3.750621177E0
1.594102804E1,2.595742165E0,1.650936196E0,9.264575525E-1,3.212754474E0
1.595107704E1,2.293770899E0,1.185542854E0,6.091210460E-1,2.652908827E0
1.596112504E1,1.951255624E0,9.613167518E-1,2.674891392E-1,2.191592765E0
1.597117304E1,1.602959792E0,9.695437843E-1,-7.793388292E-2,1.874985049E0
1.598122104E1,1.209989478E0,1.040319067E0,-3.961090994E-1,1.644153496E0
1.599126904E1,8.566416514E-1,1.109531389E0,-6.289007878E-1,1.536362921E0
1.600131804E1,6.277512252E-1,1.217900176E0,-7.634779644E-1,1.568518741E0
1.601136604E1,4.542146355E-1,1.270895246E0,-8.491021784E-1,1.594509382E0
1.602141404E1,2.739888310E-1,1.197698046E0,-8.074888603E-1,1.470234249E0
1.603146204E1,1.431983113E-1,1.133960472E0,-6.532053975E-1,1.316453341E0
1.604151004E1,2.096700436E-1,9.929595441E-1,-4.542211405E-1,1.111866461E0
1.605155904E1,2.392008215E-1,7.335384661E-1,-1.935310706E-1,7.954558376E-1
1.606160704E1,2.824117452E-1,4.913777840E-1,1.096294463E-1,5.772582922E-1
1.607165504E1,3.385479391E-1,3.146790200E-1,3.260793364E-1,5.656547766E-1
1.608170304E1,3.330793306E-1,2.142554301E-1,3.616269723E-1,5.363033628E-1
1.609175104E1,2.855973083E-1,1.464353299E-1,2.765768087E-1,4.236789580E-1
1.610180004E1,2.646315318E-1,6.099230647E-2,2.425740071E-1,3.641319239E-1
1.611184804E1,2.458356571E-1,-7.115067422E-2,3.241509247E-1,4.130029185E-1
1.612189604E1,1.720347324E-1,-2.015850985E-1,4.754733940E-1,5.443412987E-1
1.613194404E1,8.439812601E-2,-2.947066855E-1,5.727815509E-1,6.496566626E-1
1.614199204E1,-3.950261950E-2,-3.844906819E-1,6.206783601E-1,7.311875054E-1
1.615204104E1,-2.029229414E-1,-4.946340984E-1,6.565171143E-1,8.466730968E-1
1.616208904E1,-3.508501884E-1,-5.611116779E-1,6.713539124E-1,9.426867165E-1
1.617213704E1,-5.121070406E-1,-6.558470964E-1,6.555290079E-1,1.059295669E0
1.618218504E1,-7.562218621E-1,-7.079785323E-1,6.402853167E-1,1.217813776E0
1.619223304E1,-1.073755201E0,-7.172107011E-1,6.987060177E-1,1.468172851E0
1.620228204E1,-1.433989293E0,-7.292056793E-1,6.030233137E-1,1.718052191E0
1.621233004E1,-1.635039371E0,-7.411135340E-1,3.941421326E-1,1.837920302E0
1.622237804E1,-1.767034417E0,-6.788558900E-1,3.725974818E-1,1.929270545E0
1.623242604E1,-2.025353295E0,-6.722421044E-1,4.659155353E-1,2.184271664E0
1.624247404E1,-2.293550752E0,-6.830793339E-1,3.215068503E-1,2.414609509E0
1.625252204E1,-2.429633878E0,-6.304462069E-1,1.729302335E-1,2.516046118E0
1.626257104E1,-2.666608373E0,-6.395731258E-1,1.636799566E-1,2.747115783E0
1.627261904E1,-2.933289354E0,-7.337846339E-1,2.113160531E-1,3.031052754E0
1.628266704E1,-3.109431463E0,-8.006241560E-1,1.575778206E-1,3.214715202E0
1.629271504E1,-3.249934207E0,-8.212472856E-1,3.259354949E-2,3.352250259E0
1.630276304E1,-3.416635695E0,-9.033404392E-1,-4.052822113E-2,3.534270215E0
1.631281204E1,-3.622663507E0,-1.029894651E0,-1.139505386E-2,3.766232033E0
1.632286004E1,-3.798501561E0,-1.171635252E0,1.901750246E-2,3.975135839E0
1.633290804E1,-3.922551996E0,-1.265248590E0,-3.093175253E-2,4.121677441E0
1.634295604E1,-4.039670848E0,-1.313838367E0,-1.245515406E-1,4.249779394E0
1.635300404E1,-4.155914372E0,-1.319628280E0,-2.198670030E-1,4.365934558E0
1.636305304E1,-4.234175845E0,-1.250639321E0,-3.263623416E-1,4.427059541E0
1.637310104E1,-4.229102216E0,-1.114370545E0,-5.161477590E-1,4.403809235E0
1.638314904E1,-4.341987977E0,-9.571377468E-1,-7.000146246E-1,4.500999082E0
1.639319704E1,-4.475310633E0,-7.781918979E-1,-8.267465919E-1,4.617087591E0
1.640324504E1,-4.560224192E0,-5.002573657E-1,-9.815247291E-1,4.691406282E0
1.641329404E1,-4.634099668E0,-2.350387734E-1,-1.170127839E0,4.785323617E0
1.642334204E1,-4.763286589E0,1.840469599E-2,-1.324558067E0,4.944056223E0
1.643338992E1,-4.894528806E0,2.626119035E-1,-1.430525987E0,5.106053451E0
1.644343792E1,-5.017879913E0,4.112112880E-1,-1.520846758E0,5.259390498E0
1.645348592E1,-5.150897638E0,4.093121123E-1,-1.560302600E0,5.397576038E0
1.646353492E1,-5.255264005E0,3.570485294E-1,-1.521912705E0,5.482837012E0
1.647358292E1,-5.300656525E0,1.956419885E-1,-1.492840349E0,5.510336441E0
1.648363092E1,-5.374526154E0,-3.462428749E-2,-1.464900599E0,5.570696903E0
1.649367892E1,-5.371570972E0,-8.331112862E-3,-1.473581375E0,5.570034666E0
1.650372692E1,-5.328636621E0,4.334804088E-1,-1.450709991E0,5.539569747E0
1.651377592E1,-5.287120221E0,1.106263381E0,-1.375431182E0,5.573981506E0
1.652382392E1,-5.245768712E0,1.723435823E0,-1.447249024E0,5.708138939E0
1.653387192E1,-5.146591748E0,2.084710720E0,-1.616896631E0,5.783405582E0
1.654391992E1,-5.044980589E0,2.067726898E0,-1.763354765E0,5.730335391E0
1.655396792E1,-4.926890221E0,1.852503753E0,-1.859691736E0,5.582514734E0
1.656401692E1,-4.782805764E0,1.698477568E0,-1.743217539E0,5.366457343E0
