"Time (s)","Linear Acceleration x (m/s^2)","Linear Acceleration y (m/s^2)","Linear Acceleration z (m/s^2)","Absolute acceleration (m/s^2)"
2.199291674E-3,1.667801321E0,8.795712152E-1,8.983375615E-1,2.088592143E0
1.223329167E-2,1.583376297E0,7.424078152E-1,1.097649847E0,2.064723965E0
2.226829166E-2,1.982568634E0,7.247783869E-1,1.297900026E0,2.477988413E0
3.230229167E-2,1.555634183E0,5.526029193E-1,1.435249368E0,2.187534787E0
4.233629168E-2,2.133595197E0,3.628210103E-1,1.334301283E0,2.542484506E0
5.237029167E-2,3.346010685E0,3.920429456E-1,7.001561272E-1,3.440887063E0
6.240429168E-2,4.279382424E0,8.134488541E-1,-2.073001671E-1,4.360938698E0
7.243929167E-2,4.740121382E0,8.099773622E-1,-6.327535182E-1,4.850277421E0
8.247329167E-2,4.703699076E0,1.724940860E-1,-1.046693702E0,4.821836467E0
9.250729167E-2,4.563538393E0,-5.801464844E-1,-1.656538414E0,4.889434745E0
1.025412917E-1,4.565380851E0,-1.249477333E0,-1.724495924E0,5.037636560E0
1.125762917E-1,4.510684242E0,-1.737862366E0,-1.832622051E0,5.169617153E0
1.226102917E-1,3.948624145E0,-2.125751742E0,-2.334728891E0,5.055829517E0
1.326442917E-1,3.050376046E0,-2.626298837E0,-2.714910759E0,4.855201339E0
1.426782917E-1,2.532700410E0,-3.106617490E0,-2.731533809E0,4.850455705E0
1.527122917E-1,2.903673791E0,-3.443165097E0,-2.781522240E0,5.293729625E0
1.627472917E-1,3.631587820E0,-3.548469942E0,-3.050053280E0,5.923081465E0
1.727812917E-1,4.166706870E0,-3.608497458E0,-2.816040693E0,6.189732243E0
1.828152917E-1,4.523276805E0,-3.911286750E0,-2.066069797E0,6.326676971E0
1.928492917E-1,4.742616682E0,-4.296640481E0,-2.495655960E0,6.868903193E0
2.028832917E-1,4.929924341E0,-4.654931543E0,-3.569988281E0,7.662725234E0
2.129182917E-1,4.553292025E0,-4.668583915E0,-4.097113017E0,7.701589389E0
2.229522917E-1,3.835219737E0,-4.519132884E0,-4.265177783E0,7.302274575E0
2.329862917E-1,2.746998817E0,-4.208902133E0,-3.676139218E0,6.226946219E0
2.430202917E-1,1.607825845E0,-3.820215197E0,-3.267945678E0,5.278126282E0
2.530542917E-1,2.726172204E-1,-3.119587784E0,-2.508654905E0,4.012417915E0
2.630892917E-1,-1.768918390E0,-2.343372830E0,1.297672570E-2,2.936092111E0
2.731232917E-1,-4.444187951E0,-1.939024565E0,-1.304028493E-1,4.850528601E0
2.831572917E-1,-5.513956520E0,-6.475341830E-1,-2.488060427E-1,5.557420397E0
2.931912917E-1,-5.965007227E0,4.196392453E-1,-7.819007868E-1,6.030653128E0
3.032252917E-1,-7.773758605E0,1.205981650E-1,-3.003194278E-1,7.780492177E0
3.132602917E-1,-8.994989355E0,-1.844584577E-2,-3.830189377E-1,9.003159292E0
3.232942917E-1,-9.519119732E0,2.119092714E-1,-1.333409582E0,9.614391667E0
3.333282917E-1,-9.376137768E0,5.435604561E-1,-1.566397153E0,9.521607924E0
3.433622917E-1,-8.300472282E0,1.214538758E0,-2.139282784E0,8.657336503E0
3.533972917E-1,-5.366583881E0,2.713705648E0,-2.450872720E0,6.493935478E0
3.634312917E-1,-1.807036681E0,4.921540604E0,-1.787335950E0,5.539089571E0
3.734652917E-1,2.585369790E-1,6.948165668E0,-1.433873518E0,7.099284527E0
3.834992917E-1,1.177005481E0,7.469250816E0,-2.532479385E0,7.974239869E0
3.935332917E-1,2.015340523E0,6.706116083E0,-4.507734906E0,8.327860729E0
4.035682917E-1,1.538132004E0,3.659807360E0,-5.247055099E0,6.579637314E0
4.136022917E-1,-1.469478091E0,-7.992339805E-2,-4.043295245E0,4.302788636E0
4.236362917E-1,-5.828229743E-1,-1.344064525E0,-5.127852591E0,5.333016432E0
4.336702917E-1,1.665861799E0,-1.437776973E0,-5.659469159E0,6.072222766E0
4.437042917E-1,2.712339154E0,-1.785427857E0,-4.597651049E0,5.628759321E0
4.537392917E-1,3.573287572E0,-2.457867744E0,-4.335877637E0,6.132644845E0
4.637732917E-1,4.324463872E0,-3.368923877E0,-4.457991473E0,7.065714673E0
4.738072917E-1,4.644011284E0,-4.196218060E0,-3.861187221E0,7.354172528E0
4.838412917E-1,5.026790485E0,-4.831944303E0,-4.039759433E0,8.058285463E0
4.938752917E-1,5.645273874E0,-5.584012595E0,-4.309679772E0,9.034580981E0
5.039102917E-1,6.086928105E0,-6.444148543E0,-3.539865180E0,9.545071487E0
5.139442917E-1,6.568313583E0,-7.245291932E0,-3.121219157E0,1.026542778E1
5.239782917E-1,7.149337369E0,-8.160906261E0,-3.225996291E0,1.131903123E1
5.340122917E-1,7.711677547E0,-8.922292677E0,-2.880153658E0,1.213971014E1
5.440462917E-1,7.900939638E0,-9.378232241E0,-2.470066790E0,1.250908938E1
5.540812917E-1,7.580777099E0,-9.774379932E0,-2.217680497E0,1.256681309E1
5.641152917E-1,6.452505968E0,-1.014389823E1,-1.791596962E0,1.215497118E1
5.741492917E-1,4.923208230E0,-1.030261505E1,-1.490047719E0,1.151529845E1
5.841832917E-1,3.364963265E0,-1.037760443E1,-1.134059874E0,1.096830630E1
5.942172917E-1,1.585032229E0,-1.044570227E1,-3.924254266E-1,1.057255980E1
6.042522917E-1,-4.127941293E-1,-1.031159053E1,3.983415663E-1,1.032753476E1
6.142862917E-1,-2.578204612E0,-9.258471909E0,1.551046603E0,9.735100753E0
6.243202917E-1,-4.202945282E0,-6.816381707E0,3.004223096E0,8.552962354E0
6.343542917E-1,-5.514571647E0,-5.938834505E0,2.315891501E0,8.428737104E0
6.443892917E-1,-7.694006676E0,-5.651361995E0,3.766320240E-1,9.553924995E0
6.544232917E-1,-8.882769007E0,-5.952042781E0,-2.236492159E0,1.092393224E1
6.644572917E-1,-9.495418044E0,-6.449435595E0,-4.292454751E0,1.225493171E1
6.744912917E-1,-1.069462993E1,-7.079835609E0,-5.897583568E0,1.411668069E1
6.845252917E-1,-1.217060633E1,-7.564072773E0,-6.543313812E0,1.575289849E1
6.945602917E-1,-1.332571092E1,-7.737516392E0,-7.496309391E0,1.713588007E1
7.045942917E-1,-1.419477322E1,-7.154660089E0,-7.979198188E0,1.778618429E1
7.146282917E-1,-1.435386076E1,-5.162678023E0,-6.037655958E0,1.640548239E1
7.246622917E-1,-1.347076630E1,-2.239028097E0,-3.596390798E0,1.412121873E1
7.346962917E-1,-1.401680035E1,-7.192227280E-1,-3.100810035E0,1.437369112E1
7.447302917E-1,-1.525950559E1,-4.489492178E-2,-3.489791379E0,1.565353539E1
7.547652917E-1,-1.569013314E1,1.178339669E0,-3.966519549E0,1.622658435E1
7.647992917E-1,-1.519916583E1,2.882747483E0,-4.613767730E0,1.614347322E1
7.748332917E-1,-1.417530667E1,4.517239555E0,-4.782465749E0,1.562743585E1
7.848672917E-1,-1.345536942E1,5.443571246E0,-4.841633724E0,1.530100817E1
7.949022917E-1,-1.291363190E1,5.657841879E0,-5.630605549E0,1.518146180E1
8.049362917E-1,-1.202928965E1,5.770584968E0,-6.581995482E0,1.487703347E1
8.149702917E-1,-1.089833055E1,5.737812493E0,-7.138310105E0,1.423557418E1
8.250042917E-1,-9.610587142E0,5.348963882E0,-7.487342101E0,1.330545345E1
8.350382917E-1,-8.379484538E0,4.660170064E0,-7.480962789E0,1.216132190E1
8.450732917E-1,-6.920914135E0,4.129717677E0,-7.178307399E0,1.079266963E1
8.551072917E-1,-6.035439863E0,3.753325388E0,-6.659758773E0,9.739936998E0
8.651412917E-1,-5.492500747E0,3.438749279E0,-6.133594733E0,8.922642289E0
8.751752917E-1,-4.896562468E0,3.015903786E0,-5.849354564E0,8.202862212E0
8.852092917E-1,-4.420896152E0,2.586182845E0,-6.061521953E0,7.935660835E0
8.952442917E-1,-3.809094962E0,2.367691984E0,-6.338579403E0,7.764841184E0
9.052782917E-1,-3.235352129E0,2.166655939E0,-6.341428751E0,7.441479689E0
9.153122917E-1,-2.316663918E0,1.620732696E0,-6.272431022E0,6.880196008E0
9.253462917E-1,-1.074012478E0,6.835605597E-1,-5.715018293E0,5.855099651E0
9.353802917E-1,-4.918707043E-1,-2.498113252E-1,-3.050388033E0,3.099872520E0
9.454152917E-1,4.050623560E-1,-8.304730225E-1,-4.379549906E-1,1.022528986E0
9.554492917E-1,2.697281989E0,-1.547731086E0,6.663437256E-1,3.180379789E0
9.654832917E-1,7.362428618E0,-3.601032026E0,1.976101613E0,8.430762978E0
9.755172917E-1,1.386451313E1,-6.651825855E0,4.072233407E0,1.590768985E1
9.855512917E-1,1.706525793E1,-9.558763855E0,4.387623156E0,2.004605277E1
9.955862917E-1,1.372934070E1,-1.111016933E1,2.880354218E0,1.789489031E1
1.005620292E0,8.922908388E0,-9.287541926E0,2.298776993E0,1.308285538E1
1.015654292E0,6.048346422E0,-5.592753598E0,2.221623567E0,8.532115712E0
1.025688292E0,4.022117799E0,-3.314957292E0,1.744348390E0,5.496282811E0
1.035722292E0,3.718687652E0,-2.533081356E0,1.112155035E0,4.634870854E0
1.045757292E0,4.453192078E0,-2.150771393E0,2.586263244E0,5.580814890E0
1.055791292E0,4.937273122E0,-1.338595332E0,3.722192181E0,6.326390596E0
1.065825292E0,4.450249175E0,-4.227706486E-1,4.229323241E0,6.153911587E0
1.075859292E0,3.495955514E0,7.154242305E-1,3.162599902E0,4.768183609E0
1.085893292E0,4.085826137E0,2.246292385E0,2.382106540E0,5.235860605E0
1.095928292E0,5.125527154E0,3.639214636E0,1.518991436E0,6.467012197E0
1.105962292E0,4.718555097E0,4.686936863E0,-2.916942000E-2,6.650788691E0
1.115996292E0,3.032133903E0,5.387272500E0,-1.718216014E0,6.416292330E0
1.126030292E0,8.325335813E-1,4.989792813E0,-1.897022114E0,5.402762014E0
1.136065292E0,-1.470387626E-1,3.562267617E0,-5.872925860E-1,3.613347970E0
1.146099292E0,-4.258439451E-1,2.132779949E0,6.809836918E-1,2.278998062E0
1.156133292E0,-1.033535712E0,1.052862807E0,1.811125932E0,2.335999422E0
1.166167292E0,-1.361882014E0,4.215547201E-1,2.584207363E0,2.951365565E0
1.176201292E0,-7.046391875E-1,-5.710532601E-1,2.270900685E0,2.445323727E0
1.186235292E0,-5.032686818E-1,-1.515102746E0,2.280311778E0,2.783637459E0
1.196270292E0,4.827127951E-1,-1.151766267E0,1.241605958E0,1.761011792E0
1.206304292E0,1.826306473E0,-6.722912210E-1,-5.739977717E-1,2.029000804E0
1.216338292E0,3.832161643E0,8.025389729E-1,-1.775421664E0,4.299029396E0
1.226372292E0,3.837529972E0,2.122416344E0,-1.108571861E0,4.523297358E0
1.236407292E0,3.752292770E-1,-9.737856469E-1,-2.677621311E0,2.873797380E0
1.246441292E0,-7.178831309E-1,-8.554675305E-1,-1.714295456E0,2.045969158E0
1.256475292E0,-1.990631944E0,-2.296292219E-1,2.569178849E0,3.258224221E0
1.266509292E0,-1.443199827E0,-5.318729684E-2,1.214649124E0,1.887068394E0
1.276543292E0,-7.418350804E-1,-6.320764107E-1,-9.094268060E-1,1.333002997E0
1.286577292E0,2.221795768E-1,-5.564616796E-1,-2.651168507E-1,6.552101264E-1
1.296612333E0,3.479841757E-1,-8.768803266E-1,-1.818255442E0,2.048429873E0
1.306646333E0,1.769987261E-1,-8.708498007E-1,-2.270196680E0,2.437929632E0
1.316680333E0,4.017972708E-1,-4.134071367E-1,-1.810012037E0,1.899602612E0
1.326714333E0,3.197842240E-2,1.855321527E-2,-1.341715552E0,1.342224819E0
1.336749333E0,-1.064735286E0,3.757014397E-1,-1.121859367E0,1.591659900E0
1.346783333E0,-2.514247767E0,5.581490764E-1,-1.667252267E0,3.068012768E0
1.356817333E0,-3.304174442E0,5.322739412E-1,-3.112222631E0,4.570209404E0
1.366851333E0,-3.757224312E0,1.009754483E-1,-4.738242087E0,6.047964009E0
1.376885333E0,-4.078301940E0,-1.164286763E0,-6.636168766E0,7.875712429E0
1.386920333E0,-4.298611577E0,-2.687496966E0,-6.784288094E0,8.469195143E0
1.396954333E0,-4.219218668E0,-3.537120497E0,-4.272988493E0,6.969322653E0
1.406988333E0,-3.776756351E0,-3.812032895E0,-1.276676388E0,5.515921132E0
1.417022333E0,-3.775889209E0,-3.957879703E0,3.329182398E-1,5.480235909E0
1.427056333E0,-3.842177923E0,-3.561564197E0,1.038346070E0,5.340901917E0
1.437091333E0,-3.843250303E0,-2.473479810E0,1.499220246E0,4.810024595E0
1.447125333E0,-3.122779779E0,-1.258288210E0,9.514986189E-1,3.498627215E0
1.457159333E0,-1.587949989E0,-3.664531180E-1,-3.946028566E0,4.269310776E0
1.467193333E0,-2.271643281E-1,8.551180132E-1,-5.267250212E0,5.341044397E0
1.477227333E0,-3.709339124E-1,1.307408476E0,-4.602919976E0,4.799352164E0
1.487262333E0,1.012979826E0,9.969616708E-1,2.222082647E-1,1.438553862E0
1.497296333E0,1.118140245E0,7.950561449E-1,3.799147679E0,4.039291394E0
1.507330333E0,1.638622545E0,5.694267109E-2,1.770385457E0,2.413004554E0
1.517364333E0,2.764427905E0,-8.465854637E-1,2.186649324E0,3.624941911E0
1.527398333E0,4.100100945E0,-1.616682622E0,2.380406316E0,5.009074235E0
1.537433333E0,5.258644865E0,-2.088993367E0,2.373756716E0,6.136119299E0
1.547467333E0,5.993864990E0,-2.190866189E0,2.338094987E0,6.796543265E0
1.557501333E0,6.359557459E0,-2.075668001E0,1.993601306E0,6.980459504E0
1.567535333E0,6.664765744E0,-1.732723833E0,1.680221830E0,7.088341110E0
1.577569333E0,6.549631144E0,-1.377561323E0,1.531518365E0,6.865922503E0
1.587604333E0,6.255306866E0,-1.076390833E0,1.374082084E0,6.494273076E0
1.597638333E0,5.767923315E0,-9.979668072E-1,1.216494944E0,5.978690247E0
1.607672333E0,5.339418887E0,-1.060045819E0,1.223070869E0,5.579336299E0
1.617706333E0,4.844253277E0,-1.094283313E0,1.003958595E0,5.066772014E0
1.627740333E0,3.860384399E0,-9.740017015E-1,5.070187935E-1,4.013516548E0
1.637775333E0,2.683505949E0,-7.636285302E-1,-1.460751414E-1,2.793863035E0
1.647809333E0,1.231246446E0,-7.235724717E-1,-6.208241750E-1,1.557224322E0
1.657843333E0,-2.134876907E-1,-8.684547812E-1,-9.058765228E-1,1.272950500E0
1.667877333E0,-9.796284771E-1,-8.811356378E-1,-8.278302272E-1,1.556076749E0
1.677911333E0,-1.052504665E0,-5.003257781E-1,-5.581332524E-1,1.292131836E0
1.687946333E0,-9.287740731E-1,-1.057457256E-1,-4.177576844E-1,1.023877395E0
1.697980333E0,-1.146820838E0,2.568763697E-1,-3.175650595E-1,1.217386985E0
1.708014333E0,-1.808335056E0,6.809316516E-2,-1.830120027E-1,1.818847367E0
1.718048333E0,-2.592202846E0,-1.447349596E-1,-7.166055143E-2,2.597229108E0
1.728082333E0,-2.725427561E0,-2.044496495E-1,2.061370828E-1,2.740847962E0
1.738117333E0,-2.370777560E0,2.455392033E-1,3.859758747E-1,2.414508876E0
1.748151333E0,-1.849507640E0,1.173756037E0,4.800265843E-1,2.242500227E0
1.758185333E0,-1.587360005E0,1.478735111E0,4.892569989E-1,2.223902364E0
1.768219333E0,-8.490461183E-1,2.033356379E0,4.598384875E-1,2.250970660E0
1.778253333E0,-3.142007178E-1,2.307981387E0,3.674220747E-1,2.358071067E0
1.788288333E0,1.630788445E-3,2.520279754E0,2.275800651E-1,2.530534605E0
1.798322333E0,1.904964387E-2,2.531395896E0,2.724729404E-3,2.531469039E0
1.808356333E0,-2.211089516E-1,2.437221226E0,-2.336477939E-1,2.458358754E0
1.818390333E0,-5.415737915E-1,2.347715557E0,-4.337889956E-1,2.448110169E0
1.828424333E0,-7.756126910E-1,2.279117192E0,-5.568030109E-1,2.471028089E0
1.838459333E0,-7.338553852E-1,1.942841481E0,-5.609497100E-1,2.151241810E0
1.848493333E0,-8.088476801E-1,1.505474428E0,-5.601315384E-1,1.798453548E0
1.858527333E0,-1.109245461E0,1.253514397E0,-6.760642831E-1,1.805210999E0
1.868561333E0,-1.372160250E0,1.227902423E0,-8.487063950E-1,2.027528214E0
1.878595333E0,-1.565638184E0,1.367473122E0,-9.090064643E-1,2.268809911E0
1.888630333E0,-1.783341717E0,1.657068756E0,-8.763819976E-1,2.587320998E0
1.898664333E0,-2.083902635E0,2.313690024E0,-8.401707758E-1,3.225166453E0
1.908698333E0,-1.903776233E0,2.799601831E0,-8.728947182E-1,3.496295117E0
1.918732333E0,-1.686757409E0,3.099165214E0,-8.915477747E-1,3.639345135E0
1.928766333E0,-1.620333624E0,3.356043338E0,-7.672766080E-1,3.804894391E0
1.938801333E0,-1.378446007E0,3.600185641E0,-4.961438495E-1,3.886850751E0
1.948835333E0,-1.169118318E0,3.852852600E0,-2.526176964E-1,4.034244229E0
1.958869333E0,-9.962614667E-1,4.000185478E0,-1.727102320E-1,4.125996800E0
1.968903333E0,-9.113712975E-1,4.087535863E0,-1.737036739E-1,4.191505701E0
1.978937333E0,-8.812762633E-1,4.125105978E0,-1.438385814E-1,4.220644112E0
1.988972333E0,-8.200798890E-1,4.240573869E0,-1.984930909E-1,4.323701801E0
1.999006333E0,-6.086273217E-1,4.589628670E0,-2.048074991E-1,4.634335406E0
2.009040333E0,-2.807274547E-1,4.570362679E0,-2.203634316E-1,4.584275620E0
2.019074333E0,-1.934402195E-1,3.689017126E0,-1.825331157E-1,3.698592274E0
2.029108333E0,-8.360419106E-1,3.859961060E0,3.125629127E-2,3.949587626E0
2.039143333E0,-1.187542309E0,4.241185488E0,2.810168919E-1,4.413262010E0
2.049177333E0,-8.331165487E-1,4.202955807E0,3.148295859E-1,4.296281923E0
2.059211333E0,-6.508006570E-1,4.437454882E0,-2.754835255E-1,4.493377182E0
2.069245333E0,-6.541331314E-1,4.617676009E0,-9.007805282E-1,4.749971309E0
2.079279333E0,-8.094036041E-1,4.375701853E0,-9.873666823E-1,4.558156850E0
2.089314333E0,-1.606943792E0,1.732707753E0,1.158918142E-1,2.366004104E0
2.099348333E0,-3.344432521E0,-4.376080168E0,1.166215467E0,5.629863679E0
2.109382333E0,-4.794628542E0,-1.113601870E1,1.123247057E0,1.217624981E1
2.119416333E0,-1.045850767E1,-2.265813373E1,-8.217171094E0,2.627343350E1
2.129450333E0,-8.086208666E0,-2.688301133E1,-2.920595925E0,2.822433258E1
2.139485333E0,-4.907423671E0,-2.812263742E1,3.376899186E0,2.874663443E1
2.149519333E0,-3.281533438E0,-2.753554423E1,9.059599918E-1,2.774518735E1
2.159553333E0,1.872258864E0,-2.012400192E1,-5.387631519E0,2.091667708E1
2.169587333E0,6.260391605E0,-9.873880831E0,-1.403107107E1,1.826354240E1
2.179621333E0,6.303852789E0,-3.286853819E0,-7.398284329E0,1.026043757E1
2.189656333E0,5.012557193E0,7.489909029E-1,-1.893382076E0,5.410324637E0
2.199690333E0,4.794408102E0,2.359680129E0,-6.854559347E-2,5.344075024E0
2.209724333E0,4.347773212E0,2.501664559E0,1.481031897E0,5.230192439E0
2.219758333E0,4.434339486E0,1.944987409E0,3.711410208E0,6.100894068E0
2.229792333E0,4.956961867E0,1.179355330E0,5.724110713E0,7.663406122E0
2.239827333E0,5.394347631E0,2.016453248E-1,7.070656650E0,8.895719907E0
2.249861333E0,5.720975436E0,-3.809993094E-1,7.684346491E0,9.587695313E0
2.259895333E0,5.919365031E0,-4.156271052E-1,8.026704476E0,9.981964386E0
2.269929333E0,6.114262669E0,-3.545049906E-2,8.360203929E0,1.035753226E1
2.279963333E0,6.247899613E0,6.244364387E-1,8.092150022E0,1.024251251E1
2.289998333E0,6.018256066E0,1.257780526E0,7.067163523E0,9.367295137E0
2.300031958E0,5.675674717E0,1.911975199E0,5.572001245E0,8.180228025E0
2.310065958E0,5.268387496E0,2.358522381E0,4.574270958E0,7.364950062E0
2.320099958E0,4.781067972E0,2.795013521E0,3.851067445E0,6.745474928E0
2.330133958E0,4.028732169E0,3.212829823E0,1.729734005E0,5.435525558E0
2.340168958E0,3.065443444E0,3.504181961E0,-4.686389856E-1,4.679300933E0
2.350202958E0,3.038995026E0,3.708386613E0,1.531315613E-1,4.796985648E0
2.360236958E0,3.214110364E0,3.861739783E0,1.323381608E0,5.195659579E0
2.370270958E0,3.183215723E0,3.839648418E0,2.247994802E0,5.470762556E0
2.380304958E0,3.018186247E0,3.743011485E0,2.889120948E0,5.609510054E0
2.390339958E0,2.802846158E0,3.568070979E0,3.408189976E0,5.674754269E0
2.400373958E0,2.652692584E0,3.412615734E0,3.723803674E0,5.705211468E0
2.410407958E0,2.535657639E0,3.164496154E0,3.886738969E0,5.616968523E0
2.420441958E0,2.564050257E0,2.833567137E0,3.837091430E0,5.415415689E0
2.430475958E0,2.779128975E0,2.411492307E0,3.537648500E0,5.104293283E0
2.440510958E0,3.033096355E0,1.959385593E0,2.998145792E0,4.693372305E0
2.450544958E0,3.061960550E0,1.752177812E0,2.542397432E0,4.348507123E0
2.460578958E0,2.668361660E0,1.593206636E0,1.958139844E0,3.673251010E0
2.470612958E0,1.831245908E0,1.321592944E0,9.729532957E-1,2.459005409E0
2.480646958E0,9.558940440E-1,1.008323688E0,-8.167425907E-1,1.611681899E0
2.490681958E0,-4.455014071E-1,1.586384690E-1,-4.145459551E0,4.172346169E0
2.500715958E0,-2.705579773E0,-1.129780297E0,-9.665308310E0,1.010023515E1
2.510749958E0,-5.484220505E0,-2.599832293E0,-1.489805176E1,1.608688127E1
2.520783958E0,-6.839780509E0,-3.945620431E0,-1.290676727E1,1.513060340E1
2.530817958E0,-6.824594121E0,-5.173431637E0,-6.112292157E0,1.052138751E1
2.540852958E0,-7.008393159E0,-6.071423628E0,-3.383597757E0,9.870587284E0
2.550886958E0,-7.285655261E0,-5.949680505E0,-6.233245322E0,1.128418442E1
2.560920958E0,-6.214058853E0,-4.422973083E0,-9.966993062E0,1.255062425E1
2.570954958E0,-4.062299280E0,-1.981684535E0,-1.072198555E1,1.163573475E1
2.580988958E0,-2.264793268E0,1.970722175E-1,-7.040635291E0,7.398558731E0
2.591023958E0,-1.031808445E0,4.170912480E-1,-1.954979131E0,2.249563775E0
2.601057958E0,-1.668754417E-1,-1.726289849E0,1.339645053E0,2.191477339E0
2.611091958E0,2.452298856E-1,-3.462199538E0,2.513940788E0,4.285657665E0
2.621125958E0,3.598002291E-1,-4.447620267E0,2.702324628E0,5.216640742E0
2.631159958E0,5.104353216E-1,-5.287983270E0,3.108251202E0,6.155041577E0
2.641194958E0,8.451854941E-1,-5.302253399E0,3.595331283E0,6.461782778E0
2.651228958E0,1.257791343E0,-4.402132437E0,3.467076116E0,5.742945747E0
2.661262958E0,1.716715911E0,-2.512074357E0,3.212473143E0,4.424659850E0
2.671296958E0,2.352309714E0,-6.709744281E-1,2.543515420E0,3.528886278E0
2.681330958E0,3.013560515E0,7.646854144E-1,1.945020154E0,3.667341565E0
2.691365958E0,3.632892334E0,1.857631761E0,1.499683346E0,4.347154542E0
2.701399958E0,4.055046686E0,2.521429317E0,1.176325303E0,4.917799370E0
2.711433958E0,4.227032010E0,2.846335117E0,1.146966434E0,5.223500283E0
2.721467958E0,4.200561664E0,2.873514730E0,1.397630721E0,5.277800378E0
2.731501958E0,3.869663345E0,2.508371900E0,2.015272111E0,5.032647978E0
2.741536958E0,3.395919594E0,1.727901927E0,2.756706072E0,4.702907965E0
2.751570958E0,3.076966844E0,8.700849849E-1,3.477333301E0,4.724046965E0
2.761604958E0,3.016592881E0,9.548152328E-2,4.124278597E0,5.110638245E0
2.771638958E0,3.172986311E0,-4.059493786E-1,4.643724185E0,5.638866139E0
2.781672958E0,3.217478945E0,-8.055767477E-1,4.739199861E0,5.784560483E0
2.791707958E0,2.835661025E0,-1.217388545E0,4.558644859E0,5.504929724E0
2.801741958E0,2.213183404E0,-1.496829904E0,3.998337758E0,4.808886084E0
2.811775958E0,1.934404241E0,-1.294037356E0,3.073349172E0,3.855117064E0
2.821809958E0,1.898282774E0,-6.121257108E-1,2.320330707E0,3.059756521E0
2.831843958E0,1.590787058E0,-2.419694781E-2,1.928861373E0,2.500339008E0
2.841878958E0,1.178492281E0,2.692525864E-1,1.646281813E0,2.042445794E0
2.851912958E0,8.087906697E-1,3.624051636E-1,1.441479576E0,1.692141607E0
2.861946958E0,5.259693271E-1,2.765855795E-1,1.221240106E0,1.358149738E0
2.871980958E0,2.921134454E-1,1.314495009E-1,1.013477497E0,1.062895043E0
2.882014958E0,3.845859915E-2,-5.815055966E-3,8.729595492E-1,8.738256424E-1
2.892049958E0,-2.831283215E-1,-1.379171062E-1,6.978523242E-1,7.656243472E-1
2.902083958E0,-5.554620981E-1,-2.201605332E-1,5.345056041E-1,8.016888696E-1
2.912117958E0,-7.375294831E-1,-2.611898607E-1,3.168927759E-1,8.441510014E-1
2.922151958E0,-7.975453046E-1,-1.828921348E-1,1.925556819E-1,8.405984395E-1
2.932185958E0,-7.941483647E-1,3.114811778E-3,7.030677482E-2,7.972605407E-1
2.942220958E0,-8.309516171E-1,1.208759809E-1,-1.366543999E-1,8.507443903E-1
2.952254958E0,-9.711520609E-1,1.100288111E-1,-2.889863545E-1,1.019193690E0
2.962288958E0,-1.251395074E0,8.337369382E-2,-3.728734338E-1,1.308424779E0
2.972322958E0,-1.514740511E0,1.440479118E-1,-3.706994390E-1,1.566080039E0
2.982356958E0,-1.852092986E0,2.385383320E-1,-5.327423032E-1,1.941896838E0
2.992391958E0,-2.068699874E0,5.070950997E-1,-4.731932357E-1,2.181874526E0
3.002425958E0,-2.289850049E0,8.849293113E-1,-4.593359193E-1,2.497499273E0
3.012459958E0,-2.574813519E0,1.209089007E0,-5.365685749E-1,2.894730854E0
3.022493958E0,-2.843640720E0,1.556050504E0,-5.411014827E-1,3.286392632E0
3.032527958E0,-2.980410895E0,1.902455347E0,-6.267215306E-1,3.590956047E0
3.042562958E0,-2.949516546E0,2.174440922E0,-7.738383535E-1,3.745219216E0
3.052596958E0,-2.805701939E0,2.258882902E0,-9.082538545E-1,3.714759804E0
3.062630958E0,-2.676135241E0,2.162644749E0,-1.039865323E0,3.594447389E0
3.072664958E0,-2.513085633E0,1.864332086E0,-1.245634105E0,3.367927827E0
3.082698958E0,-2.341497920E0,1.441046298E0,-1.485400352E0,3.125002583E0
3.092733958E0,-2.148164997E0,1.028789527E0,-1.891337451E0,3.041410544E0
3.102767958E0,-1.856136628E0,6.740898246E-1,-2.513372146E0,3.196354145E0
3.112801958E0,-1.511731241E0,5.179832000E-1,-2.833267175E0,3.252851184E0
3.122835958E0,-1.219525410E0,5.187035769E-1,-2.696379763E0,3.004456599E0
3.132869958E0,-1.082096254E0,5.764635426E-1,-2.381409552E0,2.678498455E0
3.142904958E0,-1.124216672E0,6.095084971E-1,-2.102861355E0,2.461176469E0
3.152938958E0,-1.267438956E0,5.758127475E-1,-1.902841263E0,2.357703693E0
3.162972958E0,-1.450185496E0,4.620487350E-1,-1.786864080E0,2.347213293E0
3.173006958E0,-1.550724568E0,3.454131550E-1,-1.731992931E0,2.350288588E0
3.183040958E0,-1.533341965E0,2.835034204E-1,-1.684296608E0,2.295292321E0
3.193074958E0,-1.549038523E0,1.890796584E-1,-1.657680960E0,2.276659313E0
3.203109958E0,-1.588008754E0,7.813224971E-2,-1.651474140E0,2.292431741E0
3.213143958E0,-1.671503778E0,-4.979956627E-2,-1.647925757E0,2.347778562E0
3.223177958E0,-1.722652004E0,-1.381761378E-1,-1.698083466E0,2.422830995E0
3.233211958E0,-1.653353143E0,-1.450255662E-1,-1.842067935E0,2.479480451E0
3.243245958E0,-1.660945460E0,-1.044944215E-1,-2.042110246E0,2.634363901E0
3.253280958E0,-2.460004317E0,-7.446060759E-1,-2.000659626E0,3.257099689E0
3.263314958E0,-3.752641557E0,-1.818232638E0,-1.586701024E0,4.461603828E0
3.273348958E0,-4.933833205E0,-2.561468711E0,-1.021276440E0,5.652153361E0
3.283382958E0,-6.021808834E0,-3.120053807E0,-5.727198628E-1,6.806241653E0
3.293416958E0,-7.138531714E0,-3.805697730E0,-3.924420181E-1,8.099134582E0
3.303452417E0,-8.153041756E0,-4.336819623E0,-7.341313738E-1,9.263856821E0
3.313486417E0,-8.734480695E0,-4.249468653E0,-2.616036974E0,1.005946252E1
3.323520417E0,-7.743292272E0,-3.095026554E0,-6.512625285E0,1.058073970E1
3.333554417E0,-4.766617748E0,-1.849065591E0,-1.208225490E1,1.311947300E1
3.343588417E0,-2.068701336E0,-1.680383359E0,-1.576764968E1,1.599130982E1
3.353623417E0,-2.024330617E0,-2.338248330E0,-7.750818223E0,8.345088545E0
3.363657417E0,-2.846156192E0,-3.038471115E0,-2.396681310E0,4.803851901E0
3.373691417E0,-2.507209473E0,-3.460538344E0,-7.919362899E-1,4.346100328E0
3.383725417E0,-8.981638992E-1,-3.823338779E0,1.630417732E0,4.252396947E0
3.393759417E0,5.265125334E-1,-4.124876182E0,3.904487023E0,5.704107106E0
3.403794417E0,1.684122069E0,-4.270889343E0,5.000701963E0,6.788503742E0
3.413828417E0,2.446061046E0,-4.824408996E0,5.044606951E0,7.396363708E0
3.423862417E0,3.021761527E0,-5.519030149E0,3.987161390E0,7.449039700E0
3.433896417E0,3.792336842E0,-5.964741763E0,2.803839308E0,7.604043522E0
3.443930417E0,4.471053276E0,-6.293253542E0,1.896474230E0,7.949337837E0
3.453964417E0,5.072397598E0,-5.861695113E0,1.528804818E0,7.901008237E0
3.463999417E0,5.377754402E0,-4.717490319E0,1.343163908E0,7.278670662E0
3.474033417E0,5.205093725E0,-3.258581362E0,1.388649398E0,6.296006698E0
3.484067417E0,4.791815154E0,-1.892073031E0,1.710468453E0,5.428363948E0
3.494101417E0,4.291189414E0,-6.956520170E-1,2.303305808E0,4.919700800E0
3.504135417E0,3.762675963E0,2.463519663E-1,3.281080863E0,4.998390874E0
3.514170417E0,3.472885617E0,8.674163157E-1,4.068227187E0,5.418839176E0
3.524204417E0,3.415837550E0,1.285124445E0,4.729935533E0,5.974259883E0
3.534238417E0,3.445318626E0,1.356565141E0,5.437811154E0,6.578774929E0
3.544272417E0,3.508436980E0,1.289487637E0,5.759500401E0,6.866130881E0
3.554306417E0,3.458878319E0,1.202437799E0,5.690302112E0,6.766774270E0
3.564341417E0,3.160108404E0,1.193450629E0,4.987201327E0,6.023519453E0
3.574375417E0,2.640137150E0,1.317762433E0,3.644595244E0,4.689338599E0
3.584409417E0,1.965035757E0,1.453851700E0,2.749938505E0,3.679295051E0
3.594443417E0,1.245774438E0,1.407105550E0,2.548755402E0,3.166710293E0
3.604477417E0,8.045148933E-1,1.412765070E0,2.254520002E0,2.779570074E0
3.614512417E0,8.683641493E-1,1.603655026E0,1.774672928E0,2.544647272E0
3.624546417E0,1.280990463E0,1.876510667E0,1.531677848E0,2.740121508E0
3.634580417E0,1.989898118E0,2.091421570E0,1.743849038E0,3.372647057E0
3.644614417E0,2.965464535E0,2.225298250E0,2.251506786E0,4.337650864E0
3.654648417E0,3.836107929E0,2.123391806E0,2.807579187E0,5.206440021E0
3.664683417E0,4.491625242E0,1.825252805E0,3.230086126E0,5.825779047E0
3.674717417E0,4.944959872E0,1.622118194E0,3.373374485E0,6.201898982E0
3.684751417E0,5.352123717E0,1.538271461E0,3.188340515E0,6.416932492E0
3.694785417E0,5.708238446E0,1.502548481E0,2.975915848E0,6.610424588E0
3.704819417E0,5.970825791E0,1.533124157E0,2.888571310E0,6.807721684E0
3.714854417E0,6.122262830E0,1.619056007E0,2.744360261E0,6.901808296E0
3.724888417E0,6.163131359E0,1.739854220E0,2.448926474E0,6.856276083E0
3.734922417E0,6.173688506E0,1.809537828E0,2.049580064E0,6.752009728E0
3.744956417E0,6.106169538E0,1.790914446E0,1.577675847E0,6.556046221E0
3.754990417E0,5.683015897E0,1.461637267E0,9.969621094E-1,5.952057344E0
3.765025417E0,4.353880629E0,8.537735921E-1,-3.254513454E-1,4.448721665E0
3.775059417E0,1.966934348E0,-3.687663496E-2,-4.261271843E0,4.693466558E0
3.785093417E0,-2.260623618E0,-1.434806149E0,-1.086845362E1,1.119340752E1
3.795127417E0,-5.609412900E0,-2.756433592E0,-1.120775936E1,1.283266571E1
3.805161417E0,-8.494411561E0,-4.555968003E0,-9.031549655E0,1.320911660E1
3.815195417E0,-1.137537214E1,-6.056750625E0,-7.390278322E0,1.485595951E1
3.825230417E0,-1.250370700E1,-5.281777035E0,-4.890033467E0,1.442748366E1
3.835264417E0,-1.198288849E1,-2.253061999E0,-3.786400748E0,1.276725246E1
3.845298417E0,-1.043063166E1,1.329349861E0,-3.888099031E0,1.121082342E1
3.855332417E0,-8.235503284E0,2.179483561E0,-3.475083877E0,9.200536446E0
3.865366417E0,-7.868040279E0,-2.393399268E0,-3.918878190E0,9.109995837E0
3.875401417E0,-6.529182846E0,-6.050138009E0,-5.051762189E0,1.023497434E1
3.885435417E0,-3.758031812E0,-7.712013761E0,-6.365649088E0,1.068267044E1
3.895469417E0,-1.100723144E0,-8.887836204E0,-5.407764067E0,1.046179411E1
3.905503417E0,8.141212839E-1,-9.034697211E0,-2.788238937E0,9.490143494E0
3.915537417E0,1.977147095E0,-5.993697760E0,2.162911382E0,6.671709610E0
3.925572417E0,3.093446637E0,-1.316103578E0,6.701556424E0,7.497492863E0
3.935606417E0,4.532054061E0,1.304767581E0,6.301961800E0,7.871254981E0
3.945640417E0,5.691307833E0,2.571946337E0,4.533582523E0,7.717464824E0
3.955674417E0,6.428302588E0,3.109214823E0,3.306668279E0,7.869202380E0
3.965708417E0,6.837726383E0,3.109322412E0,2.553244017E0,7.933564329E0
3.975742417E0,6.976291360E0,2.762466164E0,2.224775509E0,7.826205116E0
3.985777417E0,6.741075416E0,2.103770889E0,2.416282346E0,7.463670015E0
3.995811417E0,6.368174500E0,1.341675206E0,3.138881257E0,7.225393717E0
4.005845417E0,6.056461188E0,5.229428083E-1,4.247266592E0,7.415757871E0
4.015879417E0,5.568116355E0,-4.714990050E-1,5.545817413E0,7.872885229E0
4.025914417E0,5.026495786E0,-1.207933012E0,6.500380046E0,8.305402025E0
4.035948417E0,4.496176423E0,-1.509241204E0,6.879183726E0,8.355631644E0
4.045982417E0,3.930488129E0,-1.356686763E0,6.377037710E0,7.612880260E0
4.056016417E0,3.348057795E0,-9.471378386E-1,5.282269371E0,6.325261322E0
4.066050417E0,2.860761952E0,-3.958740413E-1,4.024990536E0,4.953909973E0
4.076084417E0,2.944244697E0,1.184973335E-1,3.176133868E0,4.332487138E0
4.086119417E0,2.836541616E0,2.829666460E-1,2.796974677E0,3.993633158E0
4.096153417E0,2.017720340E0,9.172527194E-3,2.784949293E0,3.439072850E0
4.106187417E0,1.630848672E0,-1.325721663E-1,2.599097883E0,3.071246094E0
4.116221417E0,1.028634576E0,-3.669010878E-1,2.413879141E0,2.649437300E0
4.126255417E0,3.395592150E-1,-6.603781039E-1,2.347885126E0,2.462511780E0
4.136290417E0,-3.209910893E-1,-8.883984643E-1,2.353896064E0,2.536358372E0
4.146324417E0,-9.070908433E-1,-1.012665246E0,2.265130652E0,2.641802712E0
4.156358417E0,-1.225803857E0,-8.933457935E-1,2.011306529E0,2.519129960E0
4.166392417E0,-1.357891874E0,-5.830457532E-1,1.735157737E0,2.279163238E0
4.176426417E0,-1.324501349E0,-1.844860858E-1,1.561802410E0,2.056104499E0
4.186461417E0,-1.203113445E0,2.342008674E-1,1.441650315E0,1.892270498E0
4.196495417E0,-1.238225390E0,4.747149736E-1,1.168680654E0,1.767589006E0
4.206529417E0,-1.516755461E0,4.990084004E-1,7.374566853E-1,1.758806094E0
4.216563417E0,-1.961959830E0,3.638254523E-1,2.862814325E-1,2.015840369E0
4.226597417E0,-2.470719924E0,3.133288980E-2,-3.278639797E-1,2.492575672E0
4.236632417E0,-3.094137778E0,-3.627846479E-1,-2.495870553E0,3.991825535E0
4.246666417E0,-4.023087267E0,-5.499043196E-1,-4.816847377E0,6.299971791E0
4.256700417E0,-4.756062647E0,-5.184825522E-1,-3.887782405E0,6.164722871E0
4.266734417E0,-5.121516548E0,-3.518936241E-1,-2.916601108E0,5.904263112E0
4.276768417E0,-5.010092007E0,1.885130632E-1,-3.917450300E0,6.362623354E0
4.286802417E0,-4.140718336E0,1.067021547E0,-1.232724271E1,1.304779660E1
4.296837417E0,-3.264391156E0,1.302612882E0,-1.225234923E1,1.274649409E1
4.306871542E0,-3.269428532E0,9.713330323E-1,-4.125316477E0,5.352652317E0
4.316905542E0,-3.382168697E0,9.568401235E-1,-1.147104135E0,3.697357978E0
4.326939542E0,-2.310513232E0,1.304046035E0,-1.108794056E0,2.875488083E0
4.336974542E0,-1.273700447E0,1.430192111E0,-6.325336629E-1,2.016893934E0
4.347008542E0,-8.553479549E-1,1.260512930E0,-1.976603012E-1,1.536093280E0
4.357042542E0,-1.045874799E0,9.684316438E-1,6.740904093E-2,1.426975096E0
4.367076542E0,-1.250468290E0,8.872500712E-1,3.096520226E-1,1.564214822E0
4.377110542E0,-1.287690496E0,1.010070251E0,4.364828078E-1,1.693784510E0
4.387144542E0,-1.344849075E0,1.174347190E0,4.395916262E-1,1.838736293E0
4.397179542E0,-1.286301782E0,1.351952273E0,3.942004220E-1,1.907286343E0
4.407213542E0,-1.439821598E0,1.200740352E0,4.030611464E-1,1.917634458E0
4.417247542E0,-1.753973492E0,8.965231705E-1,4.820584917E-1,2.027944081E0
4.427281542E0,-1.935238639E0,6.704844314E-1,6.437649947E-1,2.146888756E0
4.437315542E0,-2.067022893E0,5.909406638E-1,7.015053722E-1,2.261394325E0
4.447350542E0,-2.077335042E0,7.054800171E-1,5.460922274E-1,2.260805090E0
4.457384542E0,-1.977275734E0,8.208058208E-1,2.917936027E-1,2.160667728E0
4.467418542E0,-1.916188118E0,9.322970206E-1,5.153735876E-3,2.130957812E0
4.477452542E0,-1.873584720E0,1.071976478E0,-3.091501853E-1,2.180602464E0
4.487486542E0,-1.829263995E0,1.225835432E0,-6.047129032E-1,2.283540445E0
4.497521542E0,-1.712308864E0,1.375118941E0,-8.368378629E-1,2.350159858E0
4.507555542E0,-1.699958668E0,1.356372183E0,-1.039401201E0,2.410385825E0
4.517589542E0,-2.420490003E0,5.018519014E-1,-1.008112896E0,2.669628962E0
4.527623542E0,-3.888927874E0,-1.117618673E0,-6.148969987E-1,4.092789981E0
4.537657542E0,-5.446641619E0,-2.349738693E0,-2.576195508E-1,5.937469553E0
4.547692542E0,-7.055049262E0,-3.019253656E0,-7.250189267E-1,7.708129810E0
4.557726542E0,-8.720050936E0,-3.423811982E0,-2.088293309E0,9.598059479E0
4.567760542E0,-1.003528269E1,-3.354049437E0,-3.975536540E0,1.130316049E1
4.577794542E0,-1.025348090E1,-2.523605651E0,-5.976478295E0,1.213345577E1
4.587828542E0,-8.792031330E0,-1.376722248E0,-1.459886494E1,1.709742778E1
4.597863542E0,-6.959606330E0,-1.511964837E0,-1.551300694E1,1.706972590E1
4.607897542E0,-5.653520787E0,-1.986494454E0,-3.656385570E0,7.019801488E0
4.617931542E0,-4.960019376E0,-2.323233849E0,8.265045172E-1,5.539162161E0
4.627965542E0,-3.226719592E0,-2.413591458E0,8.713567543E-1,4.122669723E0
4.637999542E0,-9.973084107E-1,-2.825382205E0,2.879775928E0,4.155781282E0
4.648034542E0,4.561839777E-1,-3.398094758E0,4.917432350E0,5.994688710E0
4.658068542E0,1.039110155E0,-4.198047654E0,5.098475010E0,6.685641439E0
4.668102542E0,1.376001871E0,-5.150874833E0,4.679522009E0,7.093857831E0
4.678136542E0,2.105842558E0,-5.669439247E0,4.599416324E0,7.598140876E0
4.688170542E0,2.910334062E0,-6.102575254E0,4.615195620E0,8.186055198E0
4.698204542E0,3.466852752E0,-6.255769381E0,4.487946174E0,8.443659125E0
4.708239542E0,3.773087808E0,-5.927330693E0,4.092663871E0,8.131379853E0
4.718273542E0,4.033116412E0,-4.843290825E0,3.904838440E0,7.414260398E0
4.728307542E0,4.227626379E0,-3.417388816E0,4.001611029E0,6.750130513E0
4.738341542E0,4.209171982E0,-1.976381110E0,4.276519042E0,6.317580722E0
4.748375542E0,3.962922342E0,-7.450662518E-1,4.771595775E0,6.247239666E0
4.758410542E0,3.733309785E0,7.026365161E-2,5.123245570E0,6.339572864E0
4.768444542E0,3.579426271E0,5.233795953E-1,5.564990433E0,6.637419465E0
4.778478542E0,3.436923194E0,6.623696655E-1,6.304203622E0,7.210697465E0
4.788512542E0,3.187700245E0,5.582576519E-1,7.067994998E0,7.773650220E0
4.798546542E0,2.765005025E0,4.059540564E-1,7.311934987E0,7.827799483E0
4.808581542E0,2.246469848E0,4.039355975E-1,6.678290938E0,7.057574697E0
4.818615542E0,1.590078376E0,5.334882617E-1,5.357935849E0,5.614306327E0
4.828649542E0,8.531491095E-1,4.436814612E-1,4.494885357E0,4.596597765E0
4.838683542E0,4.321817422E-1,3.616900492E-1,4.143957401E0,4.182102783E0
4.848717542E0,4.628410327E-1,4.477002525E-1,3.762940550E0,3.817640491E0
4.858752542E0,7.272591412E-1,6.044296056E-1,3.145968959E0,3.285020806E0
4.868786542E0,1.225946530E0,8.319623083E-1,2.603560477E0,2.995602333E0
4.878820542E0,1.956281306E0,9.622213161E-1,2.470903527E0,3.295189015E0
4.888854542E0,2.697183756E0,8.510370952E-1,2.750588130E0,3.945224887E0
4.898888542E0,3.314901159E0,7.023698831E-1,3.255025671E0,4.698625891E0
4.908923542E0,3.951826665E0,7.383711898E-1,3.838663162E0,5.558548451E0
4.918957542E0,4.534230394E0,9.862972265E-1,4.459544786E0,6.435803538E0
4.928991542E0,4.952600428E0,1.303316302E0,4.922207186E0,7.103168868E0
4.939025542E0,5.207658899E0,1.585078422E0,5.065916544E0,7.436107533E0
4.949059542E0,5.345973031E0,1.727072207E0,4.792388474E0,7.384388488E0
4.959094542E0,5.351129690E0,1.603899440E0,4.420744125E0,7.123907705E0
4.969128542E0,5.191850951E0,1.327266498E0,4.243395735E0,6.835448780E0
4.979162542E0,4.797708271E0,9.438470256E-1,4.257726091E0,6.483601108E0
4.989196542E0,4.167925138E0,4.981061751E-1,4.288351468E0,6.000805615E0
4.999230542E0,3.411998268E0,-1.291164619E-1,4.123479867E0,5.353642634E0
5.009265542E0,2.494968327E0,-9.061009097E-1,3.560684191E0,4.441211290E0
5.019299542E0,8.719987786E-1,-1.999920831E0,-1.094341493E0,2.440829470E0
5.029333542E0,-2.854149921E0,-3.259315773E0,-9.416550214E0,1.036536198E1
5.039367542E0,-4.194727605E0,-3.369449249E0,-6.831268133E0,8.695697340E0
5.049401542E0,-5.263946536E0,-3.238440628E0,-7.670402051E0,9.850466916E0
5.059436542E0,-5.894305619E0,-3.133728690E0,-7.782233559E0,1.025310945E1
5.069470542E0,-5.249767038E0,-2.931282881E0,-6.109567355E0,8.572005981E0
5.079504542E0,-3.980674489E0,-2.289039917E0,-4.224381759E0,6.239461064E0
5.089538542E0,-2.680944868E0,-1.856924833E0,-2.933749237E0,4.386629664E0
5.099572542E0,-7.769686604E-1,-1.689695050E0,-1.445637531E0,2.355550367E0
5.109607542E0,7.077960992E-1,-1.545386353E0,-6.501877226E-2,1.701006096E0
5.119641542E0,1.513583054E0,-2.049037442E0,9.175919310E-1,2.707667456E0
5.129675542E0,1.895255086E0,-3.426255534E0,1.210611110E0,4.098389694E0
5.139709542E0,2.442211239E0,-4.593084959E0,1.395621618E0,5.385961834E0
5.149743542E0,3.195191990E0,-4.623243143E0,1.977809146E0,5.957798086E0
5.159778542E0,4.205071037E0,-4.026697923E0,2.281928533E0,6.253328427E0
5.169812542E0,5.211979991E0,-3.143009391E0,2.092498627E0,6.435976535E0
5.179846542E0,5.917582215E0,-2.040154352E0,1.664656688E0,6.476966183E0
5.189880542E0,5.655464986E0,-3.444904643E-1,1.959922367E0,5.995352665E0
5.199914542E0,4.289141719E0,7.554807276E-1,2.548522975E0,5.046033806E0
5.209949542E0,2.869237491E0,1.381210570E0,3.063476733E0,4.418727884E0
5.219983542E0,1.838706663E0,1.886176114E0,3.613700895E0,4.471838178E0
5.230017542E0,1.252958619E0,2.255590920E0,4.262117350E0,4.982292646E0
5.240051542E0,7.943413228E-1,2.334378642E0,5.432303077E0,5.965753808E0
5.250085542E0,4.548493508E-1,2.079626566E0,6.492131964E0,6.832240630E0
5.260120542E0,-1.212534186E-1,1.487608261E0,7.238422623E0,7.390699750E0
5.270154542E0,-1.129738490E0,6.531380814E-1,8.102096136E0,8.206513279E0
5.280188542E0,-2.200292047E0,9.041081786E-2,8.374792732E0,8.659481076E0
5.290222542E0,-2.981164894E0,9.514355421E-2,7.599627353E0,8.163989976E0
5.300256542E0,-3.698316830E0,5.029301280E-1,5.767532136E0,6.869855387E0
5.310290083E0,-4.823216164E0,4.113750100E-1,3.891298628E0,6.210865364E0
5.320325083E0,-5.563680657E0,-1.382743710E-1,3.641889153E0,6.651091554E0
5.330359083E0,-4.275037650E0,-5.812190831E-2,3.281703007E0,5.389703117E0
5.340393083E0,-2.575533603E0,8.313980520E-2,2.396463794E0,3.518994783E0
5.350427083E0,-1.396730835E0,7.391465306E-2,1.438155434E0,2.006143428E0
5.360461083E0,-8.102457494E-1,-2.108067423E-1,3.431029201E-1,9.047968118E-1
5.370496083E0,-5.575355208E-1,-5.874908066E-1,-1.157498438E0,1.412725713E0
5.380530083E0,-3.736961371E-1,-9.375817341E-1,-3.259474817E0,3.412167111E0
5.390564083E0,-4.131701052E-1,-1.267864049E0,-5.061238187E0,5.233958422E0
5.400598083E0,-6.055157259E-1,-1.519782565E0,-6.259964758E0,6.470204565E0
5.410632083E0,-2.876938275E-1,-1.706134497E0,-7.433930125E0,7.632626007E0
5.420667083E0,-8.533572704E-2,-1.836678264E0,-6.409253529E0,6.667773244E0
5.430701083E0,-2.094773778E-1,-1.786502137E0,-4.125529901E0,4.500607472E0
5.440735083E0,5.263868183E-2,-1.214828049E0,-1.948614583E0,2.296884153E0
5.450769083E0,6.512272114E-1,-2.853710210E-1,-4.547174960E-1,8.439795623E-1
5.460803083E0,1.147723940E0,3.745077306E-1,4.044413817E-1,1.273223906E0
5.470838083E0,1.265290397E0,8.943924451E-1,1.000356418E0,1.844345574E0
5.480872083E0,9.774410337E-1,1.200342157E0,1.511344448E0,2.163417275E0
5.490906083E0,5.035288829E-1,1.224884675E0,2.017878215E0,2.413652065E0
5.500940083E0,-1.080907515E-1,1.064882635E0,2.629858915E0,2.839333821E0
5.510974083E0,-6.708791184E-1,8.927885538E-1,3.199386490E0,3.388690618E0
5.521009083E0,-1.152004979E0,7.586715531E-1,3.716815959E0,3.964520005E0
5.531043083E0,-1.519574696E0,7.668863064E-1,3.600758083E0,3.982798092E0
5.541077083E0,-1.803640034E0,7.504211318E-1,3.190078307E0,3.740701653E0
5.551111083E0,-2.248666647E0,7.062319690E-1,2.924755050E0,3.756255767E0
5.561145083E0,-2.665675157E0,7.544557106E-1,2.741947700E0,3.897858983E0
5.571180083E0,-2.848133721E0,9.053705925E-1,2.452880069E0,3.866287914E0
5.581214083E0,-2.908992126E0,1.150027451E0,2.084734694E0,3.759111207E0
5.591248083E0,-2.925520450E0,1.424260111E0,1.753252530E0,3.696089989E0
5.601282083E0,-2.887224989E0,1.701739145E0,1.428927943E0,3.643325311E0
5.611316083E0,-2.942604553E0,1.807781324E0,1.197541925E0,3.655284057E0
5.621351083E0,-3.068923122E0,1.791040161E0,1.124547039E0,3.727025628E0
5.631385083E0,-3.210729211E0,1.700704188E0,1.094680631E0,3.794667638E0
5.641419083E0,-3.350789322E0,1.516461346E0,1.061774840E0,3.828160120E0
5.651453083E0,-3.526379746E0,1.205477182E0,1.063234890E0,3.875435173E0
5.661487083E0,-3.738743310E0,1.063008603E0,1.136015183E0,4.049533223E0
5.671522083E0,-3.785734751E0,1.324703663E0,1.310786120E0,4.219571975E0
5.681556083E0,-3.581790008E0,1.810326033E0,1.487835717E0,4.280205034E0
5.691590083E0,-3.373175972E0,2.189360678E0,1.597638826E0,4.327131397E0
5.701624083E0,-3.478918481E0,2.164542171E0,1.642220922E0,4.414182389E0
5.711658083E0,-3.999148766E0,1.478012980E0,1.708655816E0,4.593170792E0
5.721693083E0,-4.768010847E0,2.283735323E-1,1.774410095E0,5.092603764E0
5.731727083E0,-5.405463188E0,-1.027393212E0,1.707936024E0,5.761216412E0
5.741761083E0,-5.826894239E0,-2.101288746E0,1.477006089E0,6.367861325E0
5.751795083E0,-5.824919634E0,-2.859403059E0,5.418158662E-1,6.511485164E0
5.761829083E0,-4.561861120E0,-2.703082427E0,-2.006582564E0,5.669533055E0
5.771864083E0,-2.512844435E0,-1.318897963E0,-3.886727275E0,4.812538613E0
5.781898083E0,-3.655430719E-1,-5.195163399E-1,-9.379185337E0,9.400672133E0
5.791932083E0,5.056134152E0,-1.002381747E0,-2.626686215E1,2.676784095E1
5.801966083E0,3.042307766E0,-2.738861539E0,-1.568260660E1,1.620805815E1
5.812000083E0,-3.057050058E-1,-3.598291143E0,-6.088102226E0,7.078569306E0
5.822035083E0,-1.685407287E0,-3.517321240E0,-8.831891799E-1,3.999021074E0
5.832069083E0,-1.618281544E0,-2.767241585E0,3.418902075E0,4.686720873E0
5.842103083E0,-1.040038693E0,-1.857523003E0,6.508767292E0,6.848074464E0
5.852137083E0,-1.369117067E0,-1.046213645E0,6.533809748E0,6.757197226E0
5.862171083E0,-2.577651465E0,-3.779470628E-1,5.681676300E0,6.250486112E0
5.872206083E0,-3.595564879E0,2.166293997E-1,4.987524093E0,6.152268824E0
5.882240083E0,-4.408457078E0,5.349547434E-1,4.887921453E0,6.603972025E0
5.892274083E0,-4.796701380E0,5.047597218E-1,5.000101454E0,6.947239816E0
5.902308083E0,-4.488816240E0,6.460787380E-1,5.191245764E0,6.893179350E0
5.912342083E0,-3.832145855E0,1.067539026E0,5.314450107E0,6.638400512E0
5.922377083E0,-3.349110879E0,1.412635846E0,5.309221526E0,6.434276721E0
5.932411083E0,-2.985795888E0,1.661782781E0,5.268148345E0,6.279322104E0
5.942445083E0,-2.672103878E0,1.822558993E0,5.085369061E0,6.026843196E0
5.952479083E0,-2.531937641E0,1.967835404E0,4.866218927E0,5.827792982E0
5.962513083E0,-2.649905801E0,2.123643821E0,4.695678743E0,5.794934226E0
5.972548083E0,-2.834182557E0,2.231689841E0,4.513628022E0,5.778050557E0
5.982582083E0,-3.044132389E0,2.238842740E0,4.390941744E0,5.793058623E0
5.992616083E0,-3.288292235E0,2.028817770E0,4.462062012E0,5.902454131E0
6.002650083E0,-3.462357997E0,1.402739434E0,4.501745895E0,5.849898882E0
6.012684083E0,-3.587385209E0,3.942309737E-1,3.965076456E0,5.361583908E0
6.022719083E0,-3.579821543E0,-7.014629799E-1,3.453367026E0,5.023237642E0
6.032753083E0,-3.230514435E0,-1.729412262E0,2.847381476E0,4.640546472E0
6.042787083E0,-2.614707317E0,-2.567814109E0,1.964682147E0,4.158165412E0
6.052821083E0,-1.724590648E0,-3.181991608E0,8.432809098E-1,3.716235487E0
6.062855083E0,-6.829407549E-1,-3.539164683E0,8.702659562E-2,3.605505285E0
6.072890083E0,1.996543479E-1,-3.709741412E0,8.723461032E-2,3.716134158E0
6.082924083E0,9.353267553E-1,-3.822274001E0,4.539295837E-2,3.935311322E0
6.092958083E0,1.715204113E0,-3.947782146E0,-1.252150826E0,4.482721352E0
6.102992083E0,3.505225397E0,-4.089939069E0,-8.910867802E0,1.041238549E1
6.113026083E0,5.145165612E0,-4.150713274E0,-8.218941046E0,1.054761308E1
6.123061083E0,5.775229996E0,-3.747545416E0,-5.028207850E-1,6.902912928E0
6.133095083E0,6.582612948E0,-2.868513021E0,2.710524763E0,7.675031249E0
6.143129083E0,7.364553496E0,-1.834209570E0,3.556779420E0,8.381625904E0
6.153163083E0,7.509252203E0,-9.091502327E-1,2.593913741E0,7.996487435E0
6.163197083E0,6.911640451E0,-2.043525857E-1,1.483739304E0,7.072058825E0
6.173232083E0,6.619730489E0,5.147818494E-1,8.933865778E-1,6.699550110E0
6.183266083E0,6.513636269E0,1.212966295E0,4.733730376E-1,6.642501540E0
6.193300083E0,6.419307817E0,1.699731211E0,3.253950660E-1,6.648494640E0
6.203334083E0,6.255929595E0,2.026439123E0,5.020138693E-1,6.595083664E0
6.213368083E0,6.297053647E0,2.205824683E0,8.008839186E-1,6.720116235E0
6.223403083E0,6.448899406E0,2.241761670E0,1.097818539E0,6.915128667E0
6.233437083E0,6.573301257E0,2.163312501E0,1.411141444E0,7.062544200E0
6.243471083E0,6.625344400E0,2.012148528E0,1.641259932E0,7.116014635E0
6.253505083E0,6.541991757E0,1.894501380E0,1.765991420E0,7.036015727E0
6.263539083E0,6.291347934E0,1.777947661E0,1.832637838E0,6.789750964E0
6.273574083E0,5.570894952E0,1.549156052E0,1.472391905E0,5.966799222E0
6.283608083E0,4.400164264E0,1.373296949E0,1.870511862E-1,4.613282802E0
6.293642083E0,2.691713101E0,6.818607742E-1,-2.223603727E0,3.557339886E0
6.303675833E0,2.291743085E-1,-3.445126837E-1,-4.775812787E0,4.793703957E0
6.313709833E0,-1.658952729E0,-1.350175304E0,-4.776736647E0,5.233766378E0
6.323744833E0,-3.382940530E0,-2.549926307E0,-3.387646369E0,5.424256513E0
6.333778833E0,-6.219963956E0,-3.612903920E0,-3.002631776E0,7.794666377E0
6.343812833E0,-9.411266670E0,-3.462826359E0,-2.397504598E0,1.031072912E1
6.353846833E0,-1.250104535E1,-2.444466510E0,-3.243471572E0,1.314426336E1
6.363880833E0,-1.412012299E1,-6.043348807E-1,-6.422843628E0,1.552404632E1
6.373915833E0,-1.308592596E1,1.280769439E0,-6.645816672E0,1.473257302E1
6.383949833E0,-1.190161687E1,1.133473399E0,-4.399236896E0,1.273917310E1
6.393983833E0,-1.103650377E1,-2.600863157E0,-3.827102632E0,1.196727284E1
6.404017833E0,-7.708462747E0,-5.593455849E0,-5.363530465E0,1.093044397E1
6.414051833E0,-3.618975084E0,-6.743450555E0,-6.183486101E0,9.839034831E0
6.424086833E0,-9.987725535E-1,-7.237101737E0,-3.140240149E0,7.951999519E0
6.434120833E0,6.546159652E-1,-6.147155596E0,1.364845968E0,6.330785773E0
6.444154833E0,1.845787641E0,-2.742275729E0,5.539425237E0,6.450755006E0
6.454188833E0,2.944516592E0,2.471752542E-1,6.012265593E0,6.699150031E0
6.464222833E0,3.988094020E0,1.865851192E0,4.143125342E0,6.045806992E0
6.474257833E0,4.662200802E0,2.633949627E0,2.340694805E0,5.844027646E0
6.484291833E0,5.134410828E0,2.915333431E0,1.316643861E0,6.049371424E0
6.494325833E0,5.571225904E0,2.854790776E0,8.794399452E-1,6.321534866E0
6.504359833E0,5.806044238E0,2.432675600E0,9.119820392E-1,6.360799596E0
6.514393833E0,5.900938700E0,1.706373063E0,1.415903270E0,6.303774159E0
6.524428833E0,5.609021721E0,7.050163329E-1,2.417728947E0,6.148462081E0
6.534462833E0,5.052976071E0,-4.976278728E-1,3.428760481E0,6.126711933E0
6.544496833E0,4.712033990E0,-1.501150997E0,4.207698483E0,6.493184516E0
6.554530833E0,4.416627100E0,-2.224479055E0,4.780349057E0,6.877982198E0
6.564564833E0,4.085079155E0,-2.406720979E0,4.568695053E0,6.584311055E0
6.574599833E0,3.899416025E0,-2.054374196E0,3.701708508E0,5.755740139E0
6.584633833E0,3.794644445E0,-1.329351615E0,2.704153637E0,4.845508134E0
6.594667833E0,3.795758925E0,-4.779835671E-1,2.017960660E0,4.325323032E0
6.604701833E0,3.768511485E0,3.113589710E-1,1.691419394E0,4.142405435E0
6.614735833E0,3.899884972E0,8.741616637E-1,1.688348436E0,4.338638248E0
6.624770833E0,3.612031808E0,9.120907974E-1,1.888063595E0,4.176537746E0
6.634804833E0,2.680476506E0,4.723491901E-1,2.069680452E0,3.419304788E0
6.644838833E0,1.789529825E0,-7.280485153E-2,2.030806993E0,2.707747142E0
6.654872833E0,1.096552617E0,-4.851236022E-1,1.909188416E0,2.254500601E0
6.664906833E0,4.865675721E-1,-7.747648448E-1,1.822050869E0,2.038842303E0
6.674941833E0,-6.913455427E-3,-8.786020392E-1,1.752211726E0,1.960162052E0
6.684975833E0,-3.736166149E-1,-8.458377510E-1,1.723995402E0,1.956320787E0
6.695009833E0,-6.996792868E-1,-7.781340104E-1,1.684210362E0,1.982828330E0
6.705043833E0,-9.112993768E-1,-5.674746180E-1,1.623860664E0,1.946642611E0
6.715077833E0,-9.784052396E-1,-2.042023122E-1,1.480317952E0,1.786145749E0
6.725112833E0,-1.076276520E0,1.570070958E-1,1.261820367E0,1.665897060E0
6.735146833E0,-1.383267621E0,4.551963830E-1,1.086620756E0,1.816969379E0
6.745180833E0,-1.899751887E0,6.444882953E-1,1.029761262E0,2.254956907E0
6.755214833E0,-2.357598813E0,8.944860005E-1,1.121883048E0,2.759891110E0
6.765249833E0,-2.699419731E0,1.004286770E0,1.170306764E0,3.108870651E0
6.775283833E0,-3.220602527E0,1.028259770E0,9.368099016E-1,3.508163563E0
6.785317833E0,-3.813612228E0,1.038574258E0,6.007914680E-1,3.997902588E0
6.795351833E0,-4.326161026E0,9.416028643E-1,2.845132345E-1,4.436578970E0
6.805385833E0,-4.422777202E0,9.886536545E-1,-2.215049542E-1,4.537340484E0
6.815419833E0,-3.985322733E0,1.174153647E0,-9.100822788E-1,4.253196895E0
6.825454833E0,-3.223066544E0,1.183850085E0,-1.903075298E0,3.925729813E0
6.835488833E0,-2.394166130E0,1.136060207E0,-3.009091780E0,4.009650558E0
6.845522833E0,-1.735472901E0,1.080349690E0,-3.624252781E0,4.161037114E0
6.855556833E0,-1.415688093E0,8.373066634E-1,-3.570449626E0,3.931076921E0
6.865591833E0,-1.409235690E0,4.776134384E-1,-3.281877254E0,3.603439765E0
6.875625833E0,-1.495700515E0,1.119484520E-1,-3.050919545E0,3.399670948E0
6.885659833E0,-1.520377519E0,-1.638606173E-1,-2.945862037E0,3.319111514E0
6.895693833E0,-1.284366938E0,-2.086415184E-1,-3.046875318E0,3.313092048E0
6.905727833E0,-8.398010856E-1,-9.650654018E-2,-3.186783109E0,3.296993473E0
6.915761833E0,-4.049205610E-1,3.790983796E-2,-3.186516476E0,3.212364405E0
6.925796833E0,-2.231832513E-1,8.343392015E-2,-2.976521327E0,2.986042731E0
6.935830833E0,-2.669891292E-1,5.829849422E-2,-2.539883130E0,2.554542664E0
6.945864833E0,-3.215091527E-1,9.399340689E-2,-2.128396438E0,2.154593765E0
6.955898833E0,-3.605115429E-1,2.075264543E-1,-1.785136228E0,1.832961307E0
6.965933833E0,-3.478189918E-1,4.395860714E-1,-1.484201088E0,1.586526657E0
6.975967833E0,-5.034379587E-1,6.711878514E-1,-1.162810634E0,1.433900792E0
6.986001833E0,-8.514379218E-1,8.176448160E-1,-8.868910521E-1,1.476504425E0
6.996035833E0,-1.246364129E0,8.280633849E-1,-6.337051526E-1,1.625021456E0
7.006069833E0,-1.708332758E0,6.069567722E-1,-4.105549380E-1,1.858857900E0
7.016104833E0,-2.181730938E0,3.127792597E-1,-2.318023396E-1,2.216193375E0
7.026138833E0,-2.630426679E0,2.240302205E-2,-1.303440848E-1,2.633749417E0
7.036172833E0,-2.985758758E0,-2.166440177E-1,-7.692830801E-2,2.994596460E0
7.046206833E0,-3.280344407E0,-3.888474423E-1,-5.767313451E-2,3.303814152E0
7.056240833E0,-3.460519633E0,-3.912208271E-1,-1.042377287E-1,3.484123328E0
7.066275833E0,-3.453416435E0,-1.669602263E-1,-2.898882875E-1,3.469581533E0
7.076309833E0,-3.339153070E0,1.586115718E-1,-5.731911483E-1,3.391702957E0
7.086343833E0,-3.223895094E0,4.724754900E-1,-8.780792981E-1,3.374574925E0
7.096377833E0,-3.382493802E0,5.411393434E-1,-1.121410885E0,3.604394330E0
7.106411833E0,-4.082758395E0,-7.915551245E-2,-1.316430145E0,4.290474337E0
7.116446833E0,-5.199707270E0,-1.268084489E0,-1.337422526E0,5.516674087E0
7.126480833E0,-6.229179168E0,-2.162272282E0,-1.614509212E0,6.788573821E0
7.136514833E0,-7.052702190E0,-2.443363726E0,-2.754066639E0,7.955848008E0
7.146548833E0,-7.801887220E0,-2.347753564E0,-4.445875458E0,9.281551572E0
7.156582833E0,-8.236669219E0,-1.968948129E0,-5.576344557E0,1.013977787E1
7.166617833E0,-7.752129169E0,-1.093367347E0,-5.556324860E0,9.600192954E0
7.176651833E0,-6.948950949E0,-3.636775178E-1,-8.603663278E0,1.106540566E1
7.186685833E0,-6.534127836E0,-6.748113710E-1,-1.761784670E1,1.880262533E1
7.196719833E0,-5.813102996E0,-1.489570001E0,-1.029362671E1,1.191510538E1
7.206753833E0,-4.507674095E0,-1.850678253E0,-2.133223899E0,5.319283781E0
7.216788833E0,-3.450243151E0,-2.089827619E0,-1.213069280E0,4.212255258E0
7.226822833E0,-1.769449317E0,-2.658115584E0,-6.282255075E-1,3.254411872E0
7.236856833E0,-4.304527205E-1,-3.537663118E0,9.835857996E-1,3.696997553E0
7.246890833E0,2.874988228E-1,-4.319809488E0,2.121353467E0,4.821156512E0
7.256924833E0,6.365527466E-1,-5.247859676E0,2.521515271E0,5.856899337E0
7.266959833E0,1.076116891E0,-6.151554456E0,2.531806955E0,6.738671698E0
7.276993833E0,1.686117139E0,-6.850240009E0,2.416298718E0,7.457028811E0
7.287027833E0,2.652385898E0,-7.209326878E0,2.397699895E0,8.047267223E0
7.297061833E0,4.147343524E0,-6.794530077E0,2.894660600E0,8.470251310E0
7.307095917E0,5.369050237E0,-5.615069497E0,3.393557904E0,8.477732076E0
7.317130917E0,5.488276134E0,-4.378247146E0,3.551162585E0,7.867717502E0
7.327164917E0,5.194119671E0,-3.303358170E0,3.915220757E0,7.295204447E0
7.337198917E0,5.107951593E0,-2.242062217E0,4.316061423E0,7.053112693E0
7.347232917E0,5.238868997E0,-1.200233983E0,4.631772476E0,7.095042372E0
7.357266917E0,5.066760882E0,-5.379070026E-1,4.755075052E0,6.969372176E0
7.367301917E0,4.684726031E0,-1.932802981E-1,4.849454960E0,6.745459856E0
7.377335917E0,4.241149235E0,-1.817776555E-1,4.603414650E0,6.261933917E0
7.387369917E0,3.862378299E0,-2.755927223E-1,4.306640389E0,5.791465179E0
7.397403917E0,3.571168833E0,-2.106044286E-1,4.054308475E0,5.406941675E0
7.407437917E0,3.283111601E0,8.870986283E-2,3.694707052E0,4.943435185E0
7.417472917E0,2.963725573E0,5.295104009E-1,3.397705919E0,4.539653736E0
7.427506917E0,2.745874105E0,1.034944307E0,3.382249389E0,4.477783519E0
7.437540917E0,2.671981087E0,1.586946607E0,3.490307103E0,4.673342074E0
7.447574917E0,2.732315581E0,2.132133393E0,3.224324280E0,4.733688657E0
7.457608917E0,2.890882714E0,2.529504907E0,2.654499081E0,4.669257255E0
7.467643917E0,3.155301992E0,2.732178757E0,1.865859232E0,4.571888242E0
7.477677917E0,3.738337221E0,2.511948057E0,1.154939697E0,4.649616535E0
7.487711917E0,4.523301364E0,2.006707694E0,8.547063692E-1,5.021718229E0
7.497745917E0,5.222641219E0,1.783031230E0,8.346922271E-1,5.581388070E0
7.507779917E0,5.842227393E0,1.794529780E0,1.081868066E0,6.206641326E0
7.517814917E0,6.362859966E0,1.947909847E0,1.407248368E0,6.801520984E0
7.527848917E0,6.751098713E0,2.155115874E0,1.623956559E0,7.270425928E0
7.537882917E0,7.053481039E0,2.327273106E0,1.623893409E0,7.602948420E0
7.547916917E0,7.330030950E0,2.396922215E0,1.493134464E0,7.855191937E0
7.557950917E0,7.531395609E0,2.255160565E0,1.264317713E0,7.962799022E0
7.567985917E0,7.558073530E0,1.785553719E0,9.854009215E-1,7.828390163E0
7.578019917E0,7.221824716E0,9.065219092E-1,6.846903149E-1,7.310631644E0
7.588053917E0,6.062196137E0,-1.568872279E-1,1.243783899E-1,6.065501265E0
7.598087917E0,4.153841534E0,-1.084519340E0,-1.462516104E0,4.535364930E0
7.608121917E0,1.179082265E0,-2.169935058E0,-5.415474790E0,5.951992973E0
7.618156917E0,-2.002277259E0,-3.379235149E0,-7.771844226E0,8.708036925E0
7.628190917E0,-4.959097854E0,-5.116922976E0,-6.849347724E0,9.883780477E0
7.638224917E0,-9.372172186E0,-6.527561413E0,-7.574472046E0,1.370471803E1
7.648258917E0,-1.312468247E1,-6.105472550E0,-7.200696972E0,1.616737833E1
7.658292917E0,-1.468447753E1,-4.075321029E0,-6.071108463E0,1.640428237E1
7.668327917E0,-1.470503985E1,-1.234664143E0,-6.691375837E0,1.620299674E1
7.678361917E0,-1.281393337E1,1.167701830E0,-6.129250252E0,1.425230243E1
7.688395917E0,-1.093398337E1,9.177380383E-2,-3.970596228E0,1.163297250E1
7.698429917E0,-1.006304294E1,-4.195186611E0,-2.866406270E0,1.127300797E1
7.708463917E0,-7.301258556E0,-6.108413699E0,-2.443437985E0,9.828096642E0
7.718498917E0,-4.084995832E0,-6.420912877E0,-4.211322588E-1,7.621854467E0
7.728532917E0,-2.062030540E0,-6.348377582E0,1.893048931E0,6.938119496E0
7.738566917E0,-5.014443505E-1,-3.956084608E0,5.231482794E0,6.578028891E0
7.748600917E0,1.322772912E0,-4.174432504E-1,6.288024961E0,6.439195987E0
7.758635917E0,3.109968529E0,1.657609039E0,4.404443842E0,5.640806461E0
7.768669917E0,4.375183790E0,2.669313002E0,2.893860701E0,5.885736560E0
7.778703917E0,5.215268465E0,3.094764599E0,2.048415298E0,6.400984168E0
7.788737917E0,5.810769957E0,3.053986702E0,1.479468352E0,6.729094209E0
7.798771917E0,6.313946253E0,2.601887589E0,1.248917316E0,6.942300107E0
7.808806917E0,6.449781750E0,1.897225013E0,1.424695144E0,6.872328836E0
7.818840917E0,6.057409607E0,8.073695040E-1,2.007402928E0,6.432240914E0
7.828874917E0,5.586000064E0,-5.575033611E-1,2.881393268E0,6.310042304E0
7.838908917E0,5.009603180E0,-1.861531854E0,3.818491437E0,6.568279967E0
7.848942917E0,4.840254366E0,-2.616983930E0,4.762203977E0,7.277036068E0
7.858977917E0,5.040042030E0,-2.630481643E0,5.583516752E0,7.968507806E0
7.869011917E0,5.074710172E0,-1.999382302E0,5.591805764E0,7.811434223E0
7.879045917E0,4.967551174E0,-1.135710543E0,4.984532658E0,7.128251463E0
7.889079917E0,4.799310115E0,-3.661269164E-1,3.933934186E0,6.216370700E0
7.899113917E0,4.692082413E0,2.949089992E-1,2.966404767E0,5.558971661E0
7.909148917E0,4.290066749E0,7.025914925E-1,2.581748024E0,5.056058779E0
7.919182917E0,3.528173672E0,6.790599579E-1,2.481889275E0,4.366795880E0
7.929216917E0,3.121617060E0,4.763217884E-1,2.402688739E0,3.967907344E0
7.939250917E0,2.825195678E0,9.862381697E-2,2.257342161E0,3.617602923E0
7.949284917E0,2.216003223E0,-3.537542081E-1,2.077052622E0,3.057770416E0
7.959319917E0,1.472828546E0,-7.491101861E-1,1.938109914E0,2.546892231E0
7.969353917E0,8.596319175E-1,-9.416782933E-1,1.745040700E0,2.161224673E0
7.979387917E0,3.182779813E-1,-1.076113967E0,1.710075520E0,2.045404710E0
7.989421917E0,-8.754100442E-2,-1.156899099E0,1.710689478E0,2.067011718E0
7.999455917E0,-2.249418014E-1,-1.117595285E0,1.450556794E0,1.844920878E0
8.009490917E0,-3.774605745E-1,-9.429535711E-1,1.209322895E0,1.579271917E0
8.019524917E0,-3.450389332E-1,-6.191020238E-1,9.991768885E-1,1.225028014E0
8.029558917E0,-4.191523916E-1,-3.644715697E-1,8.660895824E-1,1.028902045E0
8.039592917E0,-6.096865448E-1,-2.427360481E-1,7.191596512E-1,9.735651369E-1
8.049626917E0,-9.159739333E-1,-1.541033685E-1,5.923867533E-1,1.101670622E0
8.059661917E0,-1.429056582E0,-1.723162758E-1,5.496985707E-1,1.540799835E0
8.069695917E0,-2.211899355E0,-2.267906910E-1,4.093068498E-1,2.260854898E0
8.079729917E0,-2.985344191E0,-1.106135327E-1,8.911741376E-2,2.988721667E0
8.089763917E0,-3.484727983E0,2.735526288E-1,-3.990723221E-1,3.518155606E0
8.099797917E0,-3.683414909E0,8.804363108E-1,-1.146706671E0,3.956974814E0
8.109832917E0,-3.803723417E0,1.420653548E0,-1.865073513E0,4.468228681E0
8.119866917E0,-3.830949223E0,1.766398825E0,-2.115863077E0,4.719450531E0
8.129900917E0,-3.613276972E0,1.891601161E0,-2.100233031E0,4.587472530E0
8.139934917E0,-3.288062439E0,1.703579848E0,-2.213617267E0,4.314352826E0
8.149968917E0,-2.834665244E0,1.383528407E0,-2.682888483E0,4.140938120E0
8.160003917E0,-2.176648538E0,1.015490620E0,-3.346918758E0,4.119573428E0
8.170037917E0,-1.547984855E0,5.643796867E-1,-3.788175671E0,4.130987346E0
8.180071917E0,-1.046092608E0,1.119320798E-1,-3.703609145E0,3.850137560E0
8.190105917E0,-6.882637677E-1,-2.176245958E-1,-3.258611476E0,3.337606362E0
8.200139917E0,-4.177513987E-1,-2.901411796E-1,-2.860908133E0,2.905769000E0
8.210174917E0,-1.370970342E-1,-5.303716958E-2,-2.583472368E0,2.587651061E0
8.220208917E0,4.953527212E-2,3.643283129E-1,-2.387246535E0,2.415395388E0
8.230242917E0,1.092935237E-1,7.798998696E-1,-2.188955758E0,2.326309565E0
8.240276917E0,-4.422424614E-2,9.365298200E-1,-1.829716277E0,2.055943954E0
8.250311917E0,-4.939327249E-1,7.656899661E-1,-1.332690667E0,1.614408584E0
8.260345917E0,-1.130784264E0,3.797766566E-1,-9.073057285E-1,1.498701787E0
8.270379917E0,-1.713666295E0,-4.641110480E-2,-6.326128927E-1,1.827294512E0
8.280413917E0,-2.165359027E0,-3.885112274E-1,-4.913736910E-1,2.254144803E0
8.290447917E0,-2.432189989E0,-5.397886366E-1,-4.166138229E-1,2.525962587E0
8.300482917E0,-2.557134755E0,-4.094945455E-1,-3.925852749E-1,2.619302795E0
8.310517333E0,-2.700925389E0,-1.662094438E-1,-3.577504876E-1,2.729580361E0
8.320551333E0,-2.839177833E0,9.238834620E-2,-2.761663342E-1,2.854073268E0
8.330585333E0,-2.961748629E0,3.737399912E-1,-2.212557167E-1,2.993424563E0
8.340619333E0,-3.038870188E0,6.707019478E-1,-2.659202582E-1,3.123345435E0
8.350654333E0,-3.304175903E0,7.270153123E-1,-3.248675010E-1,3.398774567E0
8.360688333E0,-4.121961930E0,1.580502391E-3,-2.285957265E-1,4.128296096E0
8.370722333E0,-5.196428736E0,-1.045341241E0,-7.724551946E-2,5.301092038E0
8.380756333E0,-6.120779976E0,-1.708692069E0,5.439080000E-3,6.354809649E0
8.390790333E0,-6.702197864E0,-1.855149034E0,-3.940672517E-2,6.954321465E0
8.400825333E0,-6.980066907E0,-1.618387671E0,-7.855266452E-1,7.208159598E0
8.410859333E0,-7.166460940E0,-1.204477308E0,-3.037453115E0,7.876233199E0
8.420893333E0,-6.701919537E0,-4.950089049E-1,-5.105327947E0,8.439498370E0
8.430927333E0,-5.524300829E0,2.245821977E-1,-5.348308994E0,7.692382330E0
8.440961333E0,-4.704348994E0,3.488472247E-1,-5.115766981E0,6.958711494E0
8.450996333E0,-3.592111513E0,1.397835374E-2,-1.116456247E1,1.172821025E1
8.461030333E0,-2.665177851E0,-1.147272828E0,-1.862482261E1,1.884949403E1
8.471064333E0,-2.230573900E0,-2.376047071E0,-7.172342069E0,7.878042292E0
8.481098333E0,-2.007190674E0,-2.961738689E0,-2.453030927E0,4.337980082E0
8.491132333E0,-9.327232826E-1,-3.237444847E0,-2.309884071E0,4.084921821E0
8.501167333E0,8.953513885E-1,-3.568511274E0,-3.647908276E-1,3.697160961E0
8.511201333E0,1.963582432E0,-4.106589600E0,1.690205512E0,4.855566783E0
8.521235333E0,2.447800008E0,-4.962029648E0,2.671358943E0,6.144072079E0
8.531269333E0,2.632265629E0,-5.732893231E0,2.993465681E0,6.982529908E0
8.541303333E0,2.927618431E0,-6.068950256E0,2.954655372E0,7.357519640E0
8.551338333E0,3.175631592E0,-6.066507874E0,2.849209024E0,7.416545412E0
8.561372333E0,3.488096271E0,-5.905067419E0,2.817313632E0,7.414438139E0
8.571406333E0,4.207331863E0,-5.531003492E0,2.877345825E0,7.521486558E0
8.581440333E0,4.962022632E0,-4.831219248E0,3.194040381E0,7.626548497E0
8.591474333E0,5.453743063E0,-3.700603384E0,3.889169072E0,7.652673707E0
8.601509333E0,5.294880061E0,-2.473557578E0,4.364953501E0,7.294317035E0
8.611543333E0,4.788504168E0,-1.327067108E0,4.721811411E0,6.854661354E0
8.621577333E0,4.234533110E0,-3.596271515E-1,5.159875453E0,6.684677781E0
8.631611333E0,4.110652830E0,4.096126592E-1,5.307988933E0,6.726068371E0
8.641645333E0,3.788079484E0,8.769361675E-1,4.996905366E0,6.331479010E0
8.651680333E0,3.200115638E0,1.023724084E0,4.264445711E0,5.429019094E0
8.661714333E0,2.764471174E0,1.090447832E0,3.375562513E0,4.497310266E0
8.671748333E0,2.310398626E0,1.190525267E0,2.502956793E0,3.608335479E0
8.681782333E0,1.839543400E0,1.256438590E0,1.806866966E0,2.868331585E0
8.691817333E0,1.417303678E0,1.275053785E0,1.152969185E0,2.227969886E0
8.701851333E0,1.083322999E0,1.267325521E0,3.990607738E-1,1.714337247E0
8.711885333E0,1.082250620E0,1.210259035E0,-1.415565594E-1,1.629733596E0
8.721919333E0,1.566159756E0,1.127946610E0,-3.748898461E-2,1.930421032E0
8.731953333E0,2.449106861E0,1.050399082E0,6.102355984E-1,2.733834328E0
8.741988333E0,3.296554935E0,9.377191436E-1,1.385314292E0,3.696713043E0
8.752022333E0,4.039971687E0,8.641500610E-1,2.040866689E0,4.607956532E0
8.762056333E0,4.707789204E0,9.331530529E-1,2.610228642E0,5.463272588E0
8.772090333E0,5.389954033E0,1.133344175E0,3.012811779E0,6.277986008E0
8.782124333E0,5.858931134E0,1.405783494E0,3.178675067E0,6.812288635E0
8.792159333E0,5.977109209E0,1.649206590E0,3.085262289E0,6.925645116E0
8.802193333E0,6.060526173E0,1.822538527E0,2.698045635E0,6.879758311E0
8.812227333E0,6.105302396E0,1.788152806E0,2.288300829E0,6.760808272E0
8.822261333E0,6.033133721E0,1.557872497E0,2.003843143E0,6.545307980E0
8.832295333E0,5.943060288E0,1.259106089E0,1.767279854E0,6.326815298E0
8.842330333E0,5.802242963E0,9.678241181E-1,1.513099197E0,6.073892994E0
8.852364333E0,5.540271329E0,6.972857291E-1,1.235804497E0,5.719093157E0
8.862398333E0,5.020229325E0,3.189118195E-1,1.181743406E0,5.167293750E0
8.872432333E0,4.093598256E0,-1.695318317E-1,1.246242800E0,4.282453600E0
8.882466333E0,2.743135854E0,-8.461143243E-1,1.030374123E0,3.049979442E0
8.892501333E0,5.579419023E-1,-1.936646941E0,-1.286933573E0,2.391254600E0
8.902535333E0,-3.903210576E0,-3.397874903E0,-8.745718458E0,1.016209614E1
8.912569333E0,-7.841790959E0,-4.680289748E0,-9.969186938E0,1.351974429E1
8.922603333E0,-1.103959812E1,-5.342248355E0,-8.888356606E0,1.514645923E1
8.932637333E0,-1.445133034E1,-4.423978804E0,-1.002738428E1,1.813728128E1
8.942672333E0,-1.558131178E1,-1.801815410E0,-7.995724758E0,1.760555111E1
8.952706333E0,-1.511042614E1,1.356988479E0,-4.768918920E0,1.590311239E1
8.962740333E0,-1.281892338E1,4.203980239E0,-2.803010758E0,1.377879225E1
8.972774333E0,-9.081978382E0,4.587414329E0,-1.507008153E0,1.028580454E1
8.982808333E0,-7.180008938E0,3.800245786E-1,-3.481613463E-1,7.198483407E0
8.992843333E0,-5.699599185E0,-3.336072173E0,-2.529558116E-1,6.608993498E0
9.002877333E0,-2.840319502E0,-4.274900533E0,-7.811816523E-1,5.191573385E0
9.012911333E0,-6.950053149E-1,-4.817268376E0,-3.790902666E-1,4.881886564E0
9.022945333E0,9.622704327E-2,-5.874674762E0,7.616522809E-2,5.875956462E0
9.032979333E0,1.148218322E0,-6.839324427E0,-9.863785028E-1,7.004834508E0
9.043014333E0,2.970946884E0,-5.353331167E0,-5.154484320E-1,6.144132735E0
9.053048333E0,4.108900419E0,-2.263875840E0,1.831230413E0,5.036030312E0
9.063082333E0,4.675718980E0,-2.395534086E-1,2.449858813E0,5.284083839E0
9.073116333E0,5.284050432E0,1.007389888E0,2.313224001E0,5.855512671E0
9.083150333E0,5.826734025E0,1.818271229E0,2.140784934E0,6.468376906E0
9.093185333E0,6.233525403E0,2.211908711E0,1.999372362E0,6.909910921E0
9.103219333E0,6.385313859E0,2.153959295E0,2.154691951E0,7.074918454E0
9.113253333E0,6.190319157E0,1.689889178E0,2.554814579E0,6.906725290E0
9.123287333E0,6.125798641E0,1.199482616E0,3.126184613E0,6.981203175E0
9.133322333E0,6.169493714E0,4.655816227E-1,4.183568194E0,7.468712189E0
9.143356333E0,5.994792944E0,-5.379017401E-1,4.958894956E0,7.798558835E0
9.153390333E0,5.598041820E0,-1.176677890E0,4.815056959E0,7.477126226E0
9.163424333E0,5.225616868E0,-1.535906847E0,4.319924093E0,6.951821751E0
9.173458333E0,4.778080629E0,-1.657339482E0,3.475753384E0,6.136586204E0
9.183492333E0,4.481099085E0,-1.408313000E0,2.537368827E0,5.338710994E0
9.193527333E0,4.184060822E0,-9.082129240E-1,1.999240215E0,4.725270057E0
9.203561333E0,3.755774202E0,-4.935149413E-1,1.844073822E0,4.213075494E0
9.213595333E0,2.983480099E0,-3.094902009E-1,1.931756330E0,3.567719187E0
9.223629333E0,2.155274919E0,-3.234018964E-1,2.028671590E0,2.977466571E0
9.233664333E0,1.365998162E0,-4.816380769E-1,2.114633846E0,2.563123586E0
9.243698333E0,6.042834252E-1,-7.132965750E-1,2.180646572E0,2.372587182E0
9.253732333E0,-8.124413788E-3,-8.943632090E-1,2.200798416E0,2.375597867E0
9.263766333E0,-4.029070723E-1,-9.331618237E-1,2.168733455E0,2.395105404E0
9.273800333E0,-6.901056406E-1,-8.808976561E-1,2.069163558E0,2.352374185E0
9.283835333E0,-9.573374292E-1,-7.558099258E-1,1.929319795E0,2.282546488E0
9.293869333E0,-1.154770128E0,-4.528206593E-1,1.809433748E0,2.193761857E0
9.303903333E0,-1.352310999E0,-1.151895636E-1,1.726483392E0,2.196077999E0
9.313937333E0,-1.612391936E0,1.532561070E-1,1.556544009E0,2.246358039E0
9.323971333E0,-1.966147313E0,2.670657277E-1,1.414429772E0,2.436733662E0
9.334006333E0,-2.361310041E0,2.791337961E-1,1.364196927E0,2.741301523E0
9.344040333E0,-2.834679862E0,2.864702976E-1,1.193132540E0,3.088857460E0
9.354074333E0,-3.242212667E0,3.130558330E-1,7.743579517E-1,3.348070664E0
9.364108333E0,-3.544991141E0,3.583530432E-1,2.593795627E-1,3.572486089E0
9.374142333E0,-3.774247018E0,4.588538164E-1,-3.230879009E-1,3.815740187E0
9.384177333E0,-3.878313131E0,5.670091796E-1,-1.069807014E0,4.062917573E0
9.394211333E0,-3.773410282E0,6.623573864E-1,-2.567217693E0,4.611718676E0
9.404245333E0,-3.485716162E0,6.035741580E-1,-4.568969872E0,5.778408485E0
9.414279333E0,-3.033160382E0,5.513251930E-1,-5.026440822E0,5.896535314E0
9.424313333E0,-2.922985975E0,3.853513920E-1,-4.437794605E0,5.327885478E0
9.434348333E0,-3.079177092E0,1.453705519E-1,-3.754848003E0,4.858121827E0
9.444382333E0,-3.080387173E0,9.309527457E-2,-3.606124073E0,4.743583318E0
9.454416333E0,-2.841017659E0,2.050121516E-1,-4.401521988E0,5.242786199E0
9.464450333E0,-2.166344283E0,4.060347480E-1,-6.952931149E0,7.293912759E0
9.474484333E0,-1.728090207E0,4.925519049E-1,-7.537205987E0,7.748443536E0
9.484519333E0,-2.214668596E0,4.448941737E-1,-4.951673645E0,5.442587593E0
9.494553333E0,-2.385467812E0,5.458171159E-1,-3.582747197E0,4.338715304E0
9.504587333E0,-2.205948936E0,6.188926935E-1,-2.885617297E0,3.684565925E0
9.514621333E0,-2.176738586E0,6.118678486E-1,-2.087709172E0,3.077515674E0
9.524656333E0,-2.372097276E0,5.434068936E-1,-1.417691934E0,2.816378341E0
9.534690333E0,-2.757159816E0,4.978880739E-1,-9.726208815E-1,2.965773788E0
9.544724333E0,-3.278982590E0,4.290259999E-1,-4.448836488E-1,3.336721684E0
9.554758333E0,-3.725780033E0,5.860611624E-1,2.582937348E-1,3.780425927E0
9.564792333E0,-3.808015274E0,1.103492970E0,8.037341438E-1,4.045326394E0
9.574827333E0,-3.482899558E0,1.866684421E0,8.707340258E-1,4.046390713E0
9.584861333E0,-3.124055641E0,2.551481082E0,5.985034525E-1,4.077742727E0
9.594895333E0,-3.045176995E0,2.731186484E0,2.288500804E-1,4.096932377E0
9.604929333E0,-3.596362439E0,1.896824479E0,-1.010909034E-1,4.067183948E0
9.614963333E0,-4.546171578E0,1.127103442E-1,-2.115785748E-1,4.552487796E0
9.624998333E0,-5.429055533E0,-1.992581406E0,-2.400643091E-1,5.788147848E0
9.635032333E0,-6.027819772E0,-3.733332589E0,-7.178766990E-1,7.126551085E0
9.645066333E0,-6.072104244E0,-4.439443520E0,-2.288118981E0,7.862225969E0
9.655100333E0,-5.836905842E0,-3.696037878E0,-6.791479000E0,9.687845623E0
9.665134333E0,-5.809371303E0,-2.209114326E0,-9.752016671E0,1.156420383E1
9.675169333E0,-5.290013423E0,-1.190901827E0,-6.310409857E0,8.320081835E0
9.685203333E0,-4.341490964E0,-6.325266463E-1,-1.892621500E0,4.778142933E0
9.695237333E0,-3.234554276E0,-6.171513927E-1,1.179046013E0,3.497623008E0
9.705271333E0,-2.334153232E0,-1.287924677E0,3.024417332E0,4.031640049E0
9.715305333E0,-1.379810747E0,-2.092250705E0,4.133799033E0,4.834220222E0
9.725340333E0,-2.210984266E-1,-2.570440679E0,4.694023104E0,5.356295613E0
9.735374333E0,7.447084022E-1,-2.956671492E0,5.445696709E0,6.241162517E0
9.745408333E0,1.454289072E0,-3.368487967E0,6.293872762E0,7.285224926E0
9.755442333E0,1.280922051E0,-4.040345324E0,6.833928616E0,8.041624958E0
9.765476333E0,1.148038228E0,-4.684652356E0,7.666083298E0,9.057195625E0
9.775511333E0,1.317487614E0,-4.957595705E0,8.357216002E0,9.805946568E0
9.785545333E0,1.303288236E0,-4.687251443E0,8.229223959E0,9.559760106E0
9.795579333E0,9.734561563E-1,-3.602990550E0,8.158987205E0,8.972080584E0
9.805613333E0,3.786627620E-1,-2.072561960E0,8.309686325E0,8.572618350E0
9.815647333E0,2.274099112E-1,-7.805933493E-1,8.617393709E0,8.655663787E0
9.825682333E0,4.328500789E-1,1.089763123E-1,8.564006292E0,8.575630519E0
9.835716333E0,6.368413067E-1,8.170326126E-1,7.997574817E0,8.064385413E0
9.845750333E0,7.610741740E-1,1.379299700E0,6.694602331E0,6.877456065E0
9.855784333E0,5.640791398E-1,1.686917038E0,5.274567418E0,5.566411395E0
9.865818333E0,5.606018007E-2,1.684368821E0,4.433745993E0,4.743241993E0
9.875853333E0,-3.750111759E-1,1.757794062E0,4.254896039E0,4.618940750E0
9.885887333E0,-3.169024238E-1,1.971204570E0,4.127682846E0,4.585176145E0
9.895921333E0,2.222590989E-1,2.154463910E0,3.887179849E0,4.449863034E0
9.905955333E0,8.552052829E-1,2.084819478E0,3.610157775E0,4.255712337E0
9.915989333E0,1.433779963E0,1.889722450E0,3.376871120E0,4.126746234E0
9.926024333E0,1.970162596E0,1.418565508E0,3.267772601E0,4.070897508E0
9.936058333E0,2.521064451E0,9.187636399E-1,3.290004592E0,4.245470858E0
9.946092333E0,2.957905254E0,5.954091060E-1,3.545906231E0,4.655874407E0
9.956126333E0,3.304070946E0,4.856983835E-1,3.927737306E0,5.155570588E0
9.966160333E0,3.587101911E0,5.098824674E-1,4.277685854E0,5.605878746E0
9.976195333E0,3.700674720E0,5.616513759E-1,4.430661879E0,5.800104339E0
9.986229333E0,3.834289445E0,6.750932068E-1,4.363104612E0,5.847581401E0
9.996263333E0,3.867255462E0,6.961712497E-1,4.182695789E0,5.738925272E0
1.000629733E1,3.820323370E0,5.871633625E-1,3.978232691E0,5.546707745E0
1.001633233E1,3.691782274E0,3.119132870E-1,3.847650332E0,5.341437947E0
1.002636633E1,3.491900470E0,-1.270781225E-1,3.737357812E0,5.116381647E0
1.003640033E1,3.236935555E0,-5.755747658E-1,3.644322764E0,4.908169364E0
1.004643433E1,3.076638523E0,-1.038719269E0,3.499959687E0,4.774343948E0
1.005646833E1,2.873175591E0,-1.608346832E0,3.184615839E0,4.580796388E0
1.006650333E1,2.210005150E0,-2.542412050E0,2.197804788E0,4.022229193E0
1.007653733E1,4.240313083E-1,-3.798619090E0,-1.159619735E0,3.994249300E0
1.008657133E1,-4.764796633E-1,-4.759514843E0,-2.608097917E0,5.448136301E0
1.009660533E1,-2.561808434E-1,-5.691473309E0,-3.387145847E0,6.628065634E0
1.010663933E1,6.127165720E-1,-6.348392200E0,-2.840682614E0,6.981903955E0
1.011667433E1,1.706913931E0,-5.805012204E0,-1.590145619E0,6.256219701E0
1.012670833E1,2.561869830E0,-4.293723305E0,-1.302682464E0,5.166838341E0
1.013674233E1,3.201688539E0,-2.708741362E0,-1.337027839E0,4.401787445E0
1.014677633E1,3.449624223E0,-1.320194290E0,-7.405802679E-1,3.767131452E0
1.015681033E1,3.559550708E0,-6.733039588E-1,1.366599548E-1,3.625246945E0
1.016684533E1,3.861916369E0,-7.586662906E-1,7.530675817E-1,4.007129068E0
1.017687933E1,4.044989768E0,-1.573449479E0,1.442291754E0,4.573608093E0
1.018691333E1,4.030382546E0,-3.198226402E0,1.843196740E0,5.465346266E0
1.019694733E1,3.390129974E0,-5.098668553E0,1.792059916E0,6.379724210E0
1.020698133E1,2.733939061E0,-5.840239924E0,1.803765457E0,6.695998431E0
1.021701633E1,2.384890692E0,-4.405053706E0,1.652005067E0,5.274592165E0
1.022705033E1,2.338972507E0,-7.258563942E-1,1.059302638E0,2.668291958E0
1.023708433E1,2.299829784E0,2.142268957E0,5.813991408E-1,3.196335133E0
1.024711833E1,2.006529646E0,3.654965866E0,5.005274705E-1,4.199460019E0
1.025715333E1,1.581324802E0,4.292766116E0,5.462006567E-1,4.607251264E0
1.026718733E1,9.912153196E-1,4.284858926E0,5.119313318E-1,4.427707930E0
1.027722133E1,6.983622015E-2,3.439567890E0,6.495929146E-1,3.501067740E0
1.028725533E1,-1.186810823E0,1.821786575E0,9.483645844E-1,2.372092249E0
1.029728933E1,-2.580046777E0,6.489766181E-2,1.686077378E0,3.082808784E0
1.030732417E1,-3.730324781E0,-1.436005413E0,2.165794060E0,4.546218035E0
1.031735817E1,-4.832375827E0,-2.200768011E0,2.213761693E0,5.752910290E0
1.032739217E1,-6.090803055E0,-1.991742915E0,2.213654689E0,6.779763180E0
1.033742617E1,-7.071617932E0,-1.220678188E0,2.160584190E0,7.494395203E0
1.034746017E1,-6.784771074E0,7.965194106E-2,1.798893557E0,7.019649634E0
1.035749517E1,-5.146167240E0,1.783766225E0,1.243915023E0,5.586786536E0
1.036752917E1,-3.515788392E0,2.971302980E0,6.462371975E-1,4.648336469E0
1.037756317E1,-2.390695223E0,3.524757144E0,-2.604452178E-2,4.259109636E0
1.038759717E1,-1.687367274E0,3.545421789E0,-8.496144676E-1,4.017345980E0
1.039763117E1,-1.477234715E0,2.947047560E0,-1.795268283E0,3.753704827E0
1.040766617E1,-1.682468769E0,1.856155339E0,-2.590485519E0,3.603696578E0
1.041770017E1,-2.024986675E0,5.230404568E-1,-3.092789994E0,3.733562950E0
1.042773417E1,-2.229697987E0,-5.486664641E-1,-3.082106839E0,3.843432134E0
1.043776817E1,-2.095649399E0,-1.109170616E0,-2.473614880E0,3.426481641E0
1.044780217E1,-1.693261267E0,-1.186255045E0,-1.965523415E0,2.852650880E0
1.045783717E1,-1.158270856E0,-9.724159366E-1,-1.864816381E0,2.400984020E0
1.046787117E1,-7.930707228E-1,-6.317150527E-1,-1.693448524E0,1.973776325E0
1.047790517E1,-4.657558697E-1,-2.451468551E-1,-1.312265466E0,1.413883363E0
1.048793917E1,-1.737836346E-1,1.293936199E-1,-7.102117302E-1,7.425255296E-1
1.049797317E1,1.257645455E-1,3.575660080E-1,-1.292025621E-1,4.004540835E-1
1.050800817E1,3.538220358E-1,4.410566461E-1,3.656437902E-1,6.733619973E-1
1.051804217E1,4.525885248E-1,2.974841130E-1,7.899528413E-1,9.577884222E-1
1.052807617E1,3.042490491E-1,3.507978559E-2,1.177400022E0,1.216580818E0
1.053811017E1,1.052209380E-1,2.052781999E-2,1.590288876E0,1.593898223E0
1.054814417E1,-5.583827823E-2,2.807207304E-1,1.938068253E0,1.959089226E0
1.055817917E1,-2.497787270E-1,4.792120671E-1,2.272565241E0,2.335933730E0
1.056821317E1,-5.173765513E-1,5.719003755E-1,2.558867285E0,2.672555016E0
1.057824717E1,-7.205927306E-1,6.265285724E-1,2.735132185E0,2.897022611E0
1.058828117E1,-8.188794556E-1,7.600526655E-1,2.753520509E0,2.971551583E0
1.059831517E1,-8.219711709E-1,9.712733907E-1,2.626403210E0,2.918390383E0
1.060835017E1,-8.663936377E-1,1.159905737E0,2.365502640E0,2.773377363E0
1.061838417E1,-9.238659203E-1,1.261777682E0,1.996895481E0,2.536375903E0
1.062841817E1,-1.016735785E0,1.251932141E0,1.582246469E0,2.259333891E0
1.063845217E1,-1.158638353E0,1.100959956E0,1.151892128E0,1.970129725E0
1.064848617E1,-1.360410855E0,9.369508195E-1,7.266005985E-1,1.804589416E0
1.065852117E1,-1.568519984E0,7.854652494E-1,3.415801589E-1,1.787145099E0
1.066855517E1,-1.796737396E0,6.421803993E-1,4.557787657E-2,1.908595892E0
1.067858917E1,-1.990708542E0,5.312207115E-1,-1.424989843E-1,2.065289787E0
1.068862317E1,-2.142833213E0,5.166775167E-1,-2.230936427E-1,2.215504595E0
1.069865817E1,-2.280888314E0,5.571805948E-1,-2.410529271E-1,2.360298335E0
1.070869217E1,-2.573416619E0,4.421038824E-1,-1.227852429E-1,2.614001751E0
1.071872617E1,-3.097479461E0,5.558714032E-2,7.225038931E-2,3.098820592E0
1.072876017E1,-3.655653498E0,-4.286131865E-1,2.882617383E-1,3.691965140E0
1.073879417E1,-3.974431124E0,-6.529141331E-1,3.334580840E-1,4.041484123E0
1.074882917E1,-3.876053475E0,-6.069766527E-1,1.656384632E-2,3.923325829E0
1.075886317E1,-3.633465361E0,-7.314229435E-1,-8.695141505E-1,3.806981076E0
1.076889717E1,-3.357418310E0,-1.065740422E0,-1.824108066E0,3.966790969E0
1.077893117E1,-2.950604713E0,-1.171483224E0,-2.486629613E0,4.032588245E0
1.078896517E1,-2.507402431E0,-1.022680941E0,-3.131737713E0,4.140135791E0
1.079900017E1,-2.076208576E0,-8.881546354E-1,-4.985170004E0,5.472785459E0
1.080903417E1,-1.266434697E0,-1.070308267E0,-1.104316960E1,1.116696070E1
1.081906817E1,-1.244128739E0,-1.614528508E0,-1.247103159E1,1.263650219E1
1.082910217E1,-1.905580684E0,-1.918942156E0,-9.251593244E0,9.638752736E0
1.083913617E1,-2.205306619E0,-1.923712315E0,-7.186913915E0,7.759882601E0
1.084917117E1,-2.292233666E0,-1.486656919E0,-4.232995293E0,5.038127938E0
1.085920517E1,-2.279941065E0,-7.795794421E-1,-5.042229839E-1,2.461730323E0
1.086923917E1,-2.384380522E0,-1.846661800E-1,2.267317511E0,3.295466700E0
1.087927317E1,-2.385642936E0,4.109317911E-1,2.949431469E0,3.815665492E0
1.088930717E1,-2.894751232E0,6.695903921E-1,2.820669934E0,4.096842060E0
1.089934217E1,-3.136572191E0,7.704940385E-1,2.996827830E0,4.405987201E0
1.090937617E1,-3.176569485E0,6.350842184E-1,2.958637326E0,4.387192779E0
1.091941017E1,-3.180963960E0,2.504391700E-1,2.659862148E0,4.154048403E0
1.092944417E1,-3.005381722E0,-1.593921751E-1,2.471593498E0,3.894419030E0
1.093947817E1,-2.682514553E0,-3.438262206E-1,2.670990568E0,3.801090819E0
1.094951317E1,-2.387408211E0,-4.542356855E-1,3.252464590E0,4.060119941E0
1.095954717E1,-2.057671441E0,-4.544818532E-1,3.661416514E0,4.224516115E0
1.096958117E1,-1.588119851E0,-3.096983618E-1,3.703902383E0,4.041896906E0
1.097961517E1,-1.212052083E0,-1.433608639E-1,3.641617842E0,3.840703464E0
1.098964917E1,-1.000139340E0,1.215343773E-2,3.569305326E0,3.706800091E0
1.099968417E1,-8.418204215E-1,1.442853087E-1,3.587904149E0,3.688161609E0
1.100971817E1,-6.231836727E-1,2.836694813E-1,3.632509049E0,3.696477818E0
1.101975217E1,-3.724538961E-1,3.392519438E-1,3.522101923E0,3.557951060E0
1.102978617E1,-1.005121753E-1,2.954872888E-1,3.385164810E0,3.399522941E0
1.103982017E1,9.473103315E-2,1.025396973E-1,3.431681750E0,3.434520052E0
1.104985517E1,1.390751472E-1,-2.103009582E-1,3.349661686E0,3.359137062E0
1.105988917E1,6.441205055E-2,-5.953272450E-1,3.321875718E0,3.375414304E0
1.106992317E1,6.798645347E-2,-8.627543306E-1,3.204455441E0,3.319262248E0
1.107995717E1,2.037090996E-1,-9.739122391E-1,2.659268363E0,2.839315177E0
1.108999217E1,4.498815563E-1,-8.539858460E-1,7.168135290E-1,1.202292342E0
1.110002617E1,7.946585342E-1,-6.510652435E-1,-1.792610139E0,2.066112109E0
1.111006017E1,1.395799373E0,-4.900779480E-1,-1.689312057E0,2.245486031E0
1.112009417E1,1.942213490E0,-3.081821787E-1,-2.556952322E-1,1.983065694E0
1.113012817E1,2.351020403E0,-1.621994233E-1,4.700459719E-1,2.403029089E0
1.114016317E1,2.721859006E0,-5.688756108E-2,1.069169229E0,2.924871875E0
1.115019717E1,3.093054873E0,1.477182090E-1,1.684747575E0,3.525221058E0
1.116023117E1,3.384740303E0,2.991885763E-1,2.146491816E0,4.019130234E0
1.117026517E1,3.502327225E0,3.927668309E-1,2.247114065E0,4.179722885E0
1.118029917E1,3.509435100E0,4.833863944E-1,1.912993784E0,4.026082754E0
1.119033417E1,3.647750986E0,6.271694273E-1,1.517942007E0,4.000447061E0
1.120036817E1,3.963356205E0,7.570197147E-1,1.305884692E0,4.241061905E0
1.121040217E1,4.345032037E0,9.410462093E-1,1.179412706E0,4.599552772E0
1.122043617E1,4.750836405E0,1.118730814E0,1.094148535E0,5.001916253E0
1.123047017E1,5.270730475E0,1.267962282E0,1.007456765E0,5.513918500E0
1.124050517E1,5.753248558E0,1.357919941E0,9.182420683E-1,5.982222332E0
1.125053917E1,6.121495090E0,1.375544034E0,7.725633681E-1,6.321524949E0
1.126057317E1,6.321417241E0,1.293122267E0,5.484935327E-1,6.475594666E0
1.127060717E1,6.277333912E0,1.013045899E0,2.379265670E-1,6.363001814E0
1.128064117E1,5.804325156E0,6.219379234E-1,-2.660353752E-1,5.843609511E0
1.129067617E1,4.780899864E0,4.516418606E-1,-1.158501747E0,4.939950423E0
1.130071017E1,3.229026611E0,2.654290920E-1,-2.794757413E0,4.278753843E0
1.131074392E1,1.150279466E0,-3.901139492E-1,-5.083295639E0,5.226397066E0
1.132077792E1,-7.860482168E-1,-1.179695638E0,-6.235094211E0,6.394212494E0
1.133081192E1,-2.340635456E0,-1.903861603E0,-5.729961437E0,6.475779598E0
1.134084692E1,-4.127319734E0,-2.544192528E0,-5.454130733E0,7.297617820E0
1.135088092E1,-6.244797665E0,-2.801434933E0,-5.943433925E0,9.064763780E0
1.136091492E1,-7.947989259E0,-2.106828983E0,-5.905656234E0,1.012353877E1
1.137094892E1,-8.384723643E0,-3.148012269E-1,-4.876238716E0,9.704658386E0
1.138098292E1,-8.051889603E0,1.765719963E0,-3.804332989E0,9.078746756E0
1.139101792E1,-6.981004801E0,3.530089220E0,-3.206625343E0,8.454490169E0
1.140105192E1,-5.300550106E0,4.374881489E0,-2.687232964E0,7.379474268E0
1.141108592E1,-4.111245445E0,3.415948647E0,-8.853023636E-1,5.418007433E0
1.142111992E1,-3.979315888E0,-2.905867374E-1,4.327272874E-1,4.013308921E0
1.143115492E1,-3.501942185E0,-4.362802311E0,1.140663135E0,5.709531983E0
1.144118892E1,-2.402047592E0,-6.337546200E0,1.631553261E0,6.971103967E0
1.145122292E1,-1.349927382E0,-7.930564556E0,-6.710790932E-2,8.044915263E0
1.146125692E1,-4.093138665E-1,-1.011502702E1,-4.247482354E0,1.097827017E1
1.147129092E1,8.334211886E-1,-1.018111342E1,-5.980215250E0,1.183691834E1
1.148132592E1,1.522588643E0,-5.020453858E0,-1.592703776E0,5.482694450E0
1.149135992E1,2.101771726E0,-7.756945521E-1,3.270169374E0,3.963982109E0
1.150139392E1,3.567453513E0,1.396449584E0,4.130289534E0,5.633479177E0
1.151142792E1,4.695346329E0,2.793005002E0,2.879270729E0,6.175544836E0
1.152146192E1,5.343403180E0,3.388573152E0,2.140576773E0,6.679554960E0
1.153149692E1,5.793025412E0,3.419727702E0,1.826486567E0,6.970633699E0
1.154153092E1,5.845518790E0,2.764054268E0,1.821404167E0,6.717707873E0
1.155156492E1,5.736851211E0,1.799561893E0,2.056712497E0,6.354522100E0
1.156159892E1,5.699128484E0,7.141759962E-1,2.601338536E0,6.305321166E0
1.157163292E1,5.549383045E0,-5.164904058E-1,3.466927596E0,6.563688101E0
1.158166792E1,4.922342257E0,-1.741929982E0,4.343592453E0,6.791948818E0
1.159170192E1,4.239343907E0,-2.325334169E0,5.064006844E0,7.001669877E0
1.160173592E1,3.764983859E0,-2.124170655E0,4.986524220E0,6.599441509E0
1.161176992E1,3.556048226E0,-1.421106123E0,4.308437823E0,5.764343681E0
1.162180392E1,3.516376622E0,-5.799584234E-1,3.658646103E0,5.107538314E0
1.163183892E1,3.644713358E0,6.004037976E-2,3.019256580E0,4.733228349E0
1.164187292E1,3.484342651E0,3.271645796E-1,2.692226486E0,4.415400755E0
1.165190692E1,2.976730365E0,1.943117470E-1,2.618182025E0,3.969075187E0
1.166194092E1,2.228208994E0,-1.231704283E-1,2.340280237E0,3.233728168E0
1.167197492E1,1.401611798E0,-4.770901126E-1,2.125376351E0,2.590242313E0
1.168200992E1,5.839026627E-1,-8.393432486E-1,1.990389869E0,2.237653065E0
1.169204392E1,-6.782857865E-2,-1.059252352E0,1.846622039E0,2.129936435E0
1.170207792E1,-5.692767298E-1,-1.119209701E0,1.683697561E0,2.100367546E0
1.171211192E1,-9.096674189E-1,-1.002347834E0,1.547189634E0,2.055721712E0
1.172214592E1,-1.052879179E0,-6.829577118E-1,1.298732085E0,1.806015180E0
1.173218092E1,-1.160981625E0,-2.860949063E-1,9.827719402E-1,1.547762680E0
1.174221492E1,-1.255563262E0,8.777723193E-2,7.417766082E-1,1.460950541E0
1.175224892E1,-1.284919500E0,4.523031807E-1,5.728803688E-1,1.477764598E0
1.176228292E1,-1.353197145E0,7.722827017E-1,4.553378856E-1,1.623236173E0
1.177231692E1,-1.450563810E0,9.369151515E-1,3.285994864E-1,1.757817679E0
1.178235192E1,-1.744838971E0,8.337860548E-1,2.288372165E-1,1.947313199E0
1.179238592E1,-2.294702653E0,5.026974088E-1,-1.183417976E-1,2.352099005E0
1.180241992E1,-3.018477438E0,1.889644682E-1,-5.154121792E-1,3.067990113E0
1.181245392E1,-3.487860336E0,8.627566695E-3,-7.974112572E-1,3.577863730E0
1.182248892E1,-3.618713713E0,9.659951091E-2,-1.117491350E0,3.788562699E0
1.183252292E1,-3.511715806E0,4.413361430E-1,-1.775450753E0,3.959690755E0
1.184255692E1,-3.280892583E0,9.369227529E-1,-2.702269079E0,4.352509456E0
1.185259092E1,-3.094012355E0,1.243886957E0,-3.030669175E0,4.506120600E0
1.186262492E1,-3.070581392E0,1.162743976E0,-2.770839962E0,4.296277195E0
1.187265992E1,-2.946199713E0,1.107427561E0,-2.472125887E0,4.002236244E0
1.188269392E1,-2.591987668E0,1.250032965E0,-2.327678318E0,3.701225316E0
1.189272792E1,-2.100596728E0,1.342779745E0,-2.319453917E0,3.405206386E0
1.190276192E1,-1.679951250E0,1.276206856E0,-2.383805156E0,3.183310724E0
1.191279592E1,-1.417387878E0,1.109461808E0,-2.353413961E0,2.962845114E0
1.192283092E1,-1.355074393E0,8.205087823E-1,-2.137450559E0,2.660480439E0
1.193286492E1,-1.327647444E0,5.337250739E-1,-1.817009692E0,2.312797962E0
1.194289892E1,-1.259973232E0,3.262611848E-1,-1.570020672E0,2.039348871E0
1.195293292E1,-1.165505908E0,2.031392884E-1,-1.380696746E0,1.818239010E0
1.196296692E1,-1.078775912E0,1.981095135E-1,-1.268138283E0,1.676657256E0
1.197300192E1,-1.038577474E0,2.115429068E-1,-1.172462633E0,1.580525924E0
1.198303592E1,-1.051248975E0,2.592129171E-1,-1.087922419E0,1.534891180E0
1.199306992E1,-1.056812308E0,3.340865135E-1,-1.045852434E0,1.523900708E0
1.200310392E1,-1.085240594E0,3.665789062E-1,-1.016376035E0,1.531387438E0
1.201313792E1,-1.139351312E0,3.782546264E-1,-9.838261932E-1,1.552131423E0
1.202317292E1,-1.135252999E0,3.595774502E-1,-1.000532419E0,1.555365049E0
1.203320692E1,-1.056871950E0,3.916207767E-1,-1.021365902E0,1.521030394E0
1.204324092E1,-8.931066424E-1,4.855364156E-1,-1.075319038E0,1.479762183E0
1.205327492E1,-7.635066158E-1,5.396763700E-1,-1.107462352E0,1.449367379E0
1.206330892E1,-7.406030720E-1,5.183936745E-1,-1.129827075E0,1.446974130E0
1.207334392E1,-7.684922442E-1,4.455923313E-1,-1.111635218E0,1.422977762E0
1.208337792E1,-9.228859270E-1,3.125061947E-1,-1.079069735E0,1.453881030E0
1.209341192E1,-1.209132861E0,1.615363491E-1,-9.506574239E-1,1.546559344E0
1.210344592E1,-1.562171662E0,6.079291642E-2,-8.008723703E-1,1.756551347E0
1.211348092E1,-2.271414070E0,-3.089487487E-1,-5.830989629E-1,2.365327801E0
1.212351492E1,-3.424693742E0,-1.251290701E0,-2.516572912E-1,3.654803283E0
1.213354892E1,-4.571087149E0,-2.121281546E0,1.043722147E-1,5.040393504E0
1.214358292E1,-5.365329069E0,-2.423289649E0,3.882638901E-1,5.899986237E0
1.215361692E1,-5.959302683E0,-2.506341162E0,5.444284022E-1,6.487791364E0
1.216365192E1,-6.455391569E0,-2.535025848E0,5.382626595E-1,6.956160079E0
1.217368592E1,-6.639505187E0,-2.183141579E0,-6.708744407E-2,6.989537682E0
1.218371992E1,-6.394370027E0,-1.166655763E0,-2.681792715E0,7.031434126E0
1.219375392E1,-6.074643690E0,-5.760618389E-1,-5.464668585E0,8.191199298E0
1.220378792E1,-5.596457809E0,-7.204447961E-1,-5.651367842E0,7.986071575E0
1.221382292E1,-4.648387340E0,-7.495960897E-1,-5.065596117E0,6.915899303E0
1.222385692E1,-2.616408564E0,-5.962277162E-1,-1.276914136E1,1.304806699E1
1.223389092E1,-1.335717186E0,-1.195176727E0,-1.650685000E1,1.660387559E1
1.224392492E1,-1.728297198E0,-2.293877903E0,-5.287090400E0,6.016827398E0
1.225395892E1,-1.656721724E0,-2.632833978E0,-1.641131001E0,3.517080122E0
1.226399392E1,-3.803654712E-1,-2.601444955E0,-1.149933311E0,2.869588884E0
1.227402792E1,1.217658394E0,-2.736388167E0,1.733027011E-1,3.000090997E0
1.228406192E1,2.152745121E0,-2.925410523E0,1.520531008E0,3.937556708E0
1.229409592E1,2.400676420E0,-3.158564154E0,2.369552568E0,4.621098805E0
1.230412992E1,2.181422498E0,-3.467241007E0,3.003959094E0,5.079777018E0
1.231416492E1,2.175381447E0,-3.811309887E0,4.208635207E0,6.080376453E0
1.232419892E1,2.530954431E0,-4.018676128E0,5.691796660E0,7.412964142E0
1.233423292E1,2.806736311E0,-4.129620613E0,5.865312785E0,7.702819561E0
1.234426692E1,3.303767475E0,-3.983177682E0,4.831367183E0,7.079738189E0
1.235430092E1,3.866235707E0,-3.320858887E0,4.062258350E0,6.517501453E0
1.236433592E1,3.872745413E0,-2.429844963E0,3.690791756E0,5.875733772E0
1.237436992E1,3.748137739E0,-1.529722831E0,3.534818448E0,5.374339951E0
1.238440392E1,3.587719962E0,-8.091435492E-1,3.820728582E0,5.303245677E0
1.239443792E1,3.433416034E0,-2.427494967E-1,4.314702530E0,5.519414000E0
1.240447192E1,3.166925672E0,1.848456895E-1,4.665127333E0,5.641542270E0
1.241450692E1,2.804807607E0,3.611205304E-1,4.897319098E0,5.655182410E0
1.242454092E1,2.528553565E0,3.005217415E-1,4.770485096E0,5.407534050E0
1.243457492E1,2.121468072E0,2.586042219E-1,4.334211180E0,4.832482745E0
1.244460892E1,1.442211063E0,2.900137103E-1,3.428610792E0,3.730878270E0
1.245464292E1,6.984469861E-1,3.614204925E-1,2.009566544E0,2.157964471E0
1.246467792E1,-1.948391658E-1,4.331915563E-1,-3.333088338E-1,5.802689064E-1
1.247471192E1,-1.583017863E0,5.464304888E-1,-3.884892418E0,4.230475261E0
1.248474592E1,-1.884248287E0,7.550959808E-1,-3.808326638E0,4.315543225E0
1.249477992E1,-7.767183995E-1,8.016807479E-1,-1.374992641E0,1.771041574E0
1.250481392E1,4.306678981E-1,5.568554896E-1,3.687979245E-1,7.947167948E-1
1.251484892E1,1.890470309E0,3.374591875E-1,1.682286189E0,2.553006760E0
1.252488292E1,3.357853636E0,2.292775118E-1,2.451814706E0,4.164029847E0
1.253491692E1,4.232897644E0,2.513782328E-1,2.714433042E0,5.034755229E0
1.254495092E1,4.727817087E0,4.268777329E-1,2.447712300E0,5.340952584E0
1.255498592E1,5.211122205E0,7.259388399E-1,2.056588390E0,5.649100604E0
1.256501992E1,5.494717426E0,9.512080854E-1,1.764441762E0,5.848929060E0
1.257505392E1,5.762697659E0,1.080996392E0,1.649381422E0,6.090787845E0
1.258508792E1,6.091691247E0,1.183146665E0,1.665195655E0,6.425061467E0
1.259512192E1,6.394329681E0,1.315068036E0,1.807549775E0,6.773779757E0
1.260515692E1,6.614481443E0,1.453211430E0,1.958639634E0,7.049784212E0
1.261519092E1,6.775648248E0,1.503526720E0,2.054933921E0,7.238283996E0
1.262522492E1,6.841082100E0,1.489470599E0,2.144215056E0,7.322334680E0
1.263525892E1,6.784342473E0,1.379167553E0,2.293154018E0,7.293007698E0
1.264529292E1,6.553877392E0,1.188640709E0,2.483820026E0,7.108835173E0
1.265532792E1,6.190086438E0,9.470974928E-1,2.773321520E0,6.848757261E0
1.266536192E1,5.588419057E0,6.586578530E-1,2.994991804E0,6.374498697E0
1.267539592E1,4.503584552E0,3.646931791E-1,2.969086300E0,5.406546809E0
1.268542992E1,3.059578394E0,-2.207873547E-1,2.542806737E0,3.984423812E0
1.269546392E1,9.417852974E-1,-1.117703458E0,1.057254796E0,1.803886990E0
1.270549892E1,-2.362787340E0,-2.166247219E0,-2.542229033E0,4.091249134E0
1.271553292E1,-6.627484481E0,-3.256603834E0,-6.333604592E0,9.728492494E0
1.272556692E1,-1.018331899E1,-3.910386863E0,-6.367714909E0,1.263087108E1
1.273560092E1,-1.269975596E1,-3.653156152E0,-5.398742398E0,1.427500510E1
1.274563492E1,-1.458105198E1,-2.509123267E0,-6.439935624E0,1.613615652E1
1.275566992E1,-1.532777534E1,-3.926305908E-1,-7.734132024E0,1.717299198E1
1.276570392E1,-1.383420701E1,2.414805340E0,-8.339782528E0,1.633305057E1
1.277573792E1,-1.082041758E1,4.269991211E0,-8.407395052E0,1.435264969E1
1.278577192E1,-7.410062376E0,3.838651468E0,-6.114021764E0,1.034531448E1
1.279580592E1,-5.934239763E0,-3.629799449E-1,-3.377349422E0,6.837649093E0
1.280584092E1,-4.792377364E0,-5.561095603E0,-2.874832107E0,7.883991676E0
1.281587492E1,-2.456018854E0,-8.488849690E0,-2.867875675E0,9.290710875E0
1.282590892E1,-4.596583933E-1,-9.430360168E0,-2.501733556E0,9.767376799E0
1.283594292E1,9.656033456E-1,-9.258594115E0,-1.348412368E0,9.405964636E0
1.284597692E1,2.562116582E0,-7.596731812E0,-6.689744610E-2,8.017434182E0
1.285601192E1,3.625766040E0,-3.843265505E0,2.638261364E0,5.905699971E0
1.286604592E1,4.270805143E0,-7.091087991E-1,3.741156163E0,5.721788295E0
1.287607992E1,5.089911178E0,1.138768052E0,2.442374961E0,5.759269392E0
1.288611392E1,5.779477413E0,2.370336680E0,1.475180588E0,6.418489925E0
1.289614892E1,6.206858007E0,3.086119491E0,1.153712951E0,7.027109890E0
1.290618292E1,6.406224087E0,3.191041929E0,1.009979035E0,7.227898262E0
1.291621692E1,6.376750612E0,2.850343384E0,1.226552886E0,7.091673833E0
1.292625092E1,6.181936004E0,2.223718332E0,2.039122903E0,6.878900944E0
1.293628492E1,5.810206286E0,1.452074731E0,3.298045975E0,6.836967556E0
1.294631992E1,5.294438596E0,2.916883528E-1,4.783710036E0,7.141431499E0
1.295635392E1,4.648953350E0,-8.659948575E-1,6.095205424E0,7.714547524E0
1.296638792E1,4.082639112E0,-1.710124637E0,6.274364111E0,7.678548912E0
1.297642192E1,3.461430044E0,-2.278868101E0,4.954770330E0,6.459449419E0
1.298645592E1,3.381677531E0,-2.128011691E0,3.967701856E0,5.630882231E0
1.299649092E1,3.654507444E0,-1.426059299E0,3.338631499E0,5.151264900E0
1.300652492E1,3.821063920E0,-6.249012923E-1,2.996150723E0,4.895707330E0
1.301655892E1,3.483916681E0,-1.313904440E-1,2.991434358E0,4.593867479E0
1.302659292E1,2.720552445E0,1.835265577E-2,2.883756713E0,3.964567468E0
1.303662692E1,1.988948823E0,1.356437087E-2,2.700810199E0,3.354173094E0
1.304666192E1,1.433097885E0,-7.983086586E-2,2.347259474E0,2.751321419E0
1.305669592E1,8.977230191E-1,-2.431704962E-1,2.027586347E0,2.230727438E0
1.306672992E1,2.846716940E-1,-4.725503343E-1,1.756660872E0,1.841249362E0
1.307676392E1,-2.877964461E-1,-6.845464003E-1,1.534287753E0,1.704543774E0
1.308679792E1,-7.110401344E-1,-7.830474257E-1,1.317362484E0,1.689433413E0
1.309683292E1,-1.143489387E0,-8.039711022E-1,1.170409675E0,1.823128168E0
1.310686692E1,-1.572358097E0,-7.977210134E-1,1.077831879E0,2.066492284E0
1.311690092E1,-1.708384213E0,-6.239441031E-1,9.058716989E-1,2.031867712E0
1.312693492E1,-1.649172676E0,-2.252107733E-1,5.707888198E-1,1.759627883E0
1.313696892E1,-1.588284743E0,2.026563084E-1,3.070834138E-1,1.630342978E0
1.314700392E1,-1.640409746E0,4.930758154E-1,1.180020013E-1,1.716971860E0
1.315703792E1,-1.912490923E0,6.972898221E-1,-1.017082232E-1,2.038180363E0
1.316707192E1,-2.341544990E0,8.695417786E-1,-2.480615459E-1,2.510073779E0
1.317710592E1,-2.766859177E0,1.009720588E0,-5.765750782E-1,3.001247106E0
1.318714092E1,-3.146477374E0,1.013035374E0,-9.757732616E-1,3.446548128E0
1.319717492E1,-3.504023502E0,9.874263239E-1,-1.282319536E0,3.859732483E0
1.320720892E1,-3.701742714E0,9.626721364E-1,-1.685306276E0,4.179700229E0
1.321724292E1,-3.629071763E0,9.687801379E-1,-2.254961906E0,4.381044398E0
1.322727692E1,-3.138721335E0,9.988260555E-1,-2.601833795E0,4.197471168E0
1.323731192E1,-2.515162564E0,1.178815632E0,-2.640255849E0,3.832310004E0
1.324734592E1,-1.898081922E0,1.365121372E0,-2.523065953E0,3.439786788E0
1.325737992E1,-1.423040674E0,1.379789697E0,-2.444824945E0,3.147385165E0
1.326741392E1,-1.071455783E0,1.287270958E0,-2.452002402E0,2.969410681E0
1.327744792E1,-7.882271817E-1,1.149873669E0,-2.460283521E0,2.827809497E0
1.328748292E1,-5.384101555E-1,9.444878805E-1,-2.464937028E0,2.694041091E0
1.329751692E1,-3.884568483E-1,6.659727198E-1,-2.339007591E0,2.462798184E0
1.330755092E1,-3.994463977E-1,3.648609942E-1,-2.119465108E0,2.187421613E0
1.331758483E1,-4.611128882E-1,1.518504363E-1,-1.894749302E0,1.955954643E0
1.332761883E1,-4.475467631E-1,1.012392765E-1,-1.717889447E0,1.778114633E0
1.333765383E1,-4.004562119E-1,2.588667619E-1,-1.628204561E0,1.696592842E0
1.334768783E1,-3.413692206E-1,5.182977802E-1,-1.505450454E0,1.628357026E0
1.335772183E1,-3.936968306E-1,7.079393560E-1,-1.349417212E0,1.573881234E0
1.336775583E1,-7.772741774E-1,5.700351137E-1,-1.152515734E0,1.502460546E0
1.337778983E1,-1.324446970E0,2.287734818E-1,-8.900681368E-1,1.612054084E0
1.338782483E1,-1.779441332E0,-5.542049468E-2,-6.983244869E-1,1.912365021E0
1.339785883E1,-2.021484777E0,-2.126854527E-1,-6.267384875E-1,2.127072387E0
1.340789283E1,-2.068844885E0,-2.542223185E-1,-6.611329794E-1,2.186743003E0
1.341792683E1,-2.179775337E0,-2.891834056E-1,-7.371511683E-1,2.319146267E0
1.342796083E1,-2.344415388E0,-3.173693240E-1,-7.644947952E-1,2.486254028E0
1.343799583E1,-2.488549839E0,-3.006936496E-1,-7.965129787E-1,2.630157770E0
1.344802983E1,-2.530528462E0,-1.514990187E-1,-8.946994239E-1,2.688310493E0
1.345806383E1,-2.569959453E0,-3.941608071E-3,-1.042276715E0,2.773273855E0
1.346809783E1,-3.048482718E0,-4.251440334E-1,-1.110610493E0,3.272224014E0
1.347813183E1,-3.960755948E0,-1.319446431E0,-1.109177925E0,4.319583572E0
1.348816683E1,-4.872093040E0,-2.020505369E0,-1.178518740E0,5.404501730E0
1.349820083E1,-5.606681081E0,-2.378914545E0,-1.621215092E0,6.302574516E0
1.350823483E1,-6.309605280E0,-2.597562988E0,-2.783251262E0,7.369188548E0
1.351826883E1,-7.007571040E0,-2.750811494E0,-3.879579931E0,8.469011524E0
1.352830383E1,-7.130737960E0,-2.397833211E0,-4.122792234E0,8.578720404E0
1.353833783E1,-6.319706930E0,-1.537221885E0,-4.009065352E0,7.640310975E0
1.354837183E1,-5.396554370E0,-1.128947654E0,-4.922280861E0,7.390951951E0
1.355840583E1,-3.960635203E0,-1.223501224E0,-1.120243722E1,1.194479745E1
1.356843983E1,-1.786313857E0,-2.019178635E0,-2.231352925E1,2.247580003E1
1.357847483E1,-1.226718070E0,-3.168773392E0,-1.194663458E1,1.242046858E1
1.358850883E1,-1.099261925E0,-3.724412076E0,-4.835368432E0,6.201645747E0
1.359854283E1,-3.052708501E-1,-3.721794278E0,-3.476117665E0,5.101797425E0
1.360857683E1,1.243593426E0,-3.804734108E0,-1.518696737E0,4.281234171E0
1.361861083E1,1.881636921E0,-4.080650182E0,5.852179573E-1,4.531527719E0
1.362864583E1,2.453898362E0,-4.554688048E0,2.802516668E0,5.883952758E0
1.363867983E1,3.541655305E0,-5.114794005E0,5.273637711E0,8.155715463E0
1.364871383E1,3.864842316E0,-5.708948883E0,6.245011089E0,9.302110888E0
1.365874783E1,4.506661357E0,-5.735932614E0,5.760386839E0,9.294782196E0
1.366878183E1,4.578818922E0,-6.076003168E0,4.355589770E0,8.766673226E0
1.367881683E1,4.714340424E0,-6.118123001E0,3.186527878E0,8.355261492E0
1.368885083E1,4.987840428E0,-5.653506753E0,2.467077109E0,7.932664130E0
1.369888483E1,5.075774365E0,-4.821325175E0,2.247503490E0,7.352546075E0
1.370891883E1,4.937726281E0,-3.684203113E0,2.277510523E0,6.568222560E0
1.371895283E1,4.512383443E0,-2.686376347E0,2.406758255E0,5.776738484E0
1.372898783E1,3.935928671E0,-1.838948153E0,2.696758371E0,5.113293510E0
1.373902183E1,3.455394548E0,-9.405836946E-1,3.099189187E0,4.735971156E0
1.374905583E1,3.155035359E0,-8.409582496E-2,3.559470309E0,4.757220733E0
1.375908983E1,3.179910584E0,6.148610383E-1,4.039230845E0,5.177380731E0
1.376912383E1,3.332841001E0,1.038425739E0,4.727698096E0,5.876843238E0
1.377915883E1,3.340914252E0,1.305781488E0,5.013543034E0,6.164607618E0
1.378919283E1,3.053209607E0,1.550534826E0,4.776528778E0,5.877199531E0
1.379922683E1,2.613321235E0,1.851161233E0,4.226430916E0,5.302731756E0
1.380926083E1,2.224318256E0,2.136901213E0,3.674071058E0,4.797159226E0
1.381929483E1,1.990868756E0,2.386025929E0,2.976806964E0,4.303261302E0
1.382932983E1,1.884127834E0,2.528913168E0,2.388980819E0,3.956332754E0
1.383936383E1,1.921656434E0,2.574215056E0,2.130761929E0,3.854801292E0
1.384939783E1,2.290289467E0,2.437253385E0,2.182333786E0,3.993521086E0
1.385943183E1,3.093244908E0,2.254017434E0,2.534697819E0,4.590582935E0
1.386946583E1,3.814650401E0,2.052097290E0,3.088802193E0,5.320090221E0
1.387950083E1,4.415044844E0,1.985230286E0,3.472594425E0,5.957572685E0
1.388953483E1,4.980502172E0,2.121361653E0,3.554755114E0,6.476253629E0
1.389956883E1,5.391439810E0,2.291664732E0,3.451198294E0,6.799273501E0
1.390960283E1,5.663547592E0,2.403809651E0,3.227404301E0,6.947676639E0
1.391963783E1,5.915833898E0,2.430613287E0,3.038191034E0,7.080648022E0
1.392967183E1,6.121543622E0,2.401318737E0,2.897252086E0,7.185659166E0
1.393970583E1,6.182481549E0,2.309432666E0,2.762685435E0,7.154648011E0
1.394973983E1,6.027240897E0,2.061985517E0,2.612006196E0,6.884910564E0
1.395977383E1,5.545549026E0,1.451247350E0,2.494867755E0,6.251687611E0
1.396980883E1,4.525454893E0,5.346272993E-1,2.312390188E0,5.110060344E0
1.397984283E1,2.812407233E0,-7.815645719E-1,1.459415910E0,3.263490834E0
1.398987683E1,-9.929624677E-2,-2.467402214E0,-2.814599354E0,3.744316086E0
1.399991083E1,-5.652543132E0,-4.453760428E0,-1.253855407E1,1.445692097E1
1.400994483E1,-1.041874894E1,-6.223572273E0,-1.317005453E1,1.790903453E1
1.401997983E1,-1.377533841E1,-7.232494715E0,-1.171963514E1,1.947867490E1
1.403001383E1,-1.540333423E1,-5.665507579E0,-1.072198555E1,1.960412343E1
1.404004783E1,-1.461639022E1,-1.803854919E0,-7.981739388E0,1.675114680E1
1.405008183E1,-1.301909813E1,1.473114182E0,-5.002408181E0,1.402465932E1
1.406011583E1,-1.196182097E1,6.404548860E-1,-2.699623799E0,1.227938565E1
1.407015083E1,-1.026342117E1,-3.910589177E0,-2.806603872E0,1.133611693E1
1.408018483E1,-5.949516783E0,-6.093289291E0,-5.376235880E0,1.007118844E1
1.409021883E1,-2.191509529E0,-6.615101833E0,-7.474051965E0,1.021879342E1
1.410025283E1,1.228400606E-1,-6.523788790E0,-3.984628376E0,7.645402092E0
1.411028683E1,2.118574285E0,-5.491668688E0,2.761931400E-2,5.886216510E0
1.412032183E1,3.906854560E0,-2.973526091E0,2.123045651E0,5.349083361E0
1.413035583E1,4.987409488E0,-1.361617720E-1,3.854344225E0,6.304661992E0
1.414038983E1,5.667157078E0,1.649816455E0,4.374632982E0,7.346834516E0
1.415042383E1,6.264609786E0,2.587536183E0,4.245283216E0,7.997693971E0
1.416045783E1,6.550363800E0,2.726426266E0,4.344588819E0,8.319622473E0
1.417049283E1,6.460341237E0,2.338104488E0,4.592813648E0,8.264180462E0
1.418052683E1,5.976709844E0,1.657302060E0,4.564648780E0,7.700891453E0
1.419056083E1,5.378658382E0,7.701151389E-1,4.185516486E0,6.858687307E0
1.420059483E1,4.823003910E0,-4.606962740E-2,3.921536919E0,6.216264227E0
1.421062883E1,4.362775998E0,-6.767748660E-1,4.250508288E0,6.128512000E0
1.422066383E1,4.015983777E0,-1.162815312E0,4.732318858E0,6.314673936E0
1.423069783E1,3.655131049E0,-1.484774115E0,5.362569183E0,6.657453372E0
1.424073183E1,3.528235945E0,-1.354323319E0,6.145012007E0,7.214139803E0
1.425076583E1,3.466087936E0,-8.492729902E-1,6.058049877E0,7.031002667E0
1.426079983E1,3.308175107E0,-3.474702054E-1,5.014376847E0,6.017369296E0
1.427083483E1,3.221315888E0,-4.353719831E-2,3.989697912E0,5.128007504E0
1.428086883E1,2.690522023E0,-5.928491950E-3,3.346620257E0,4.294043671E0
1.429090283E1,2.013248097E0,-2.965766251E-2,2.920078447E0,3.546957233E0
1.430093683E1,1.513908159E0,-8.866308510E-2,2.599658046E0,3.009651311E0
1.431097204E1,1.104152828E0,-2.212235570E-1,2.332752532E0,2.590333512E0
1.432100604E1,6.123721710E-1,-3.929048252E-1,2.209193848E0,2.325921610E0
1.433104004E1,5.593271077E-2,-6.130074710E-1,2.207279470E0,2.291503717E0
1.434107404E1,-4.572645432E-1,-7.544247204E-1,2.244367189E0,2.411520600E0
1.435110804E1,-9.061795548E-1,-7.914066052E-1,2.308897061E0,2.603553618E0
1.436114304E1,-1.215479136E0,-6.761158848E-1,2.334487985E0,2.717417225E0
1.437117704E1,-1.390554421E0,-4.684643000E-1,2.208003355E0,2.651109054E0
1.438121104E1,-1.587358836E0,-2.846453816E-1,2.031536726E0,2.593814283E0
1.439124504E1,-1.845385353E0,-1.326043260E-1,1.863988270E0,2.626306014E0
1.440127904E1,-1.975686753E0,1.393859267E-1,1.729945529E0,2.629729666E0
1.441131404E1,-1.884610814E0,4.950276160E-1,1.546472765E0,2.487647137E0
1.442134804E1,-1.846406569E0,8.211607468E-1,1.078362806E0,2.290499625E0
1.443138204E1,-2.013772592E0,1.104766493E0,-1.159923863E-1,2.299835492E0
1.444141604E1,-2.516394864E0,9.982407492E-1,-1.682166760E0,3.187226493E0
1.445145004E1,-2.968100460E0,5.528320205E-1,-1.596410764E0,3.415226334E0
1.446148504E1,-2.895506400E0,3.959716898E-1,-1.036516038E0,3.100825114E0
1.447151904E1,-2.683714694E0,3.290257484E-1,-1.030305126E0,2.893460066E0
1.448155304E1,-2.386685787E0,3.176827347E-1,-1.533548957E0,2.854638991E0
1.449158704E1,-2.072710479E0,3.067665678E-1,-2.557993126E0,3.306593911E0
1.450162104E1,-1.837650364E0,2.672750580E-1,-4.075278929E0,4.478425300E0
1.451165604E1,-1.646263979E0,2.637579578E-1,-5.275712888E0,5.532892537E0
1.452169004E1,-1.592749384E0,1.919804621E-1,-5.379598614E0,5.613714309E0
1.453172404E1,-1.700069472E0,9.953364372E-2,-4.715281533E0,5.013384395E0
1.454175804E1,-1.865326405E0,5.420018077E-2,-3.812889512E0,4.245056736E0
1.455179304E1,-2.027709723E0,8.223757982E-2,-2.999806402E0,3.621768655E0
1.456182704E1,-2.127450651E0,1.595079499E-1,-2.340020621E0,3.166573158E0
1.457186104E1,-2.139431011E0,3.416229898E-1,-1.865995911E0,2.859337696E0
1.458189504E1,-2.215678411E0,4.280161858E-1,-1.674464223E0,2.810028311E0
1.459192904E1,-2.417859048E0,4.427359664E-1,-1.545620534E0,2.903618492E0
1.460196404E1,-2.520138544E0,4.484095198E-1,-1.260593036E0,2.853290063E0
1.461199804E1,-2.615186204E0,4.277764499E-1,-9.453668632E-1,2.813522717E0
1.462203204E1,-2.759766212E0,3.517310715E-1,-7.426010656E-1,2.879493121E0
1.463206604E1,-2.973863475E0,3.293198633E-1,-8.710259481E-1,3.116248024E0
1.464210004E1,-3.145448557E0,4.786764622E-1,-1.234011740E0,3.412588864E0
1.465213504E1,-3.135713528E0,7.996476710E-1,-1.669837321E0,3.641495902E0
1.466216904E1,-2.868666803E0,1.191060871E0,-2.078607396E0,3.737443503E0
1.467220304E1,-2.505291879E0,1.433406910E0,-2.460577344E0,3.792833193E0
1.468223704E1,-2.232605807E0,1.498231482E0,-2.827571987E0,3.901844385E0
1.469227104E1,-2.095535086E0,1.349651393E0,-3.041962488E0,3.932729581E0
1.470230604E1,-2.598824818E0,5.656654894E-1,-2.843974012E0,3.893848489E0
1.471234004E1,-3.785603481E0,-1.055841671E0,-2.048882491E0,4.432100496E0
1.472237404E1,-4.988614014E0,-2.835994901E0,-9.543727447E-1,5.817212752E0
1.473240804E1,-5.898892175E0,-3.998490955E0,-1.961653143E-1,7.129048999E0
1.474244204E1,-6.515690396E0,-4.003361685E0,-2.956843400E-1,7.653009561E0
1.475247704E1,-6.950758324E0,-2.905846324E0,-1.097219638E0,7.613203995E0
1.476251104E1,-6.957868538E0,-1.436045174E0,-2.195947712E0,7.436151336E0
1.477254504E1,-6.395381595E0,-2.285226363E-1,-3.719875222E0,7.402067279E0
1.478257904E1,-5.439710330E0,4.186928004E-1,-5.511761475E0,7.755337948E0
1.479261304E1,-4.409485603E0,3.986473757E-1,-3.420524678E0,5.594861221E0
1.480264804E1,-3.645012443E0,-1.472439998E-1,3.794795815E-1,3.667669731E0
1.481268204E1,-2.792050737E0,-8.963272887E-1,2.977271233E0,4.178886684E0
1.482271604E1,-1.485821059E0,-1.454207795E0,4.681355696E0,5.122252989E0
1.483275004E1,-3.107961765E-1,-1.802239918E0,5.725257937E0,6.010261344E0
1.484278404E1,3.806452605E-1,-2.191794873E0,5.801608540E0,6.213494768E0
1.485281904E1,7.193002036E-1,-2.821673900E0,5.521054455E0,6.241897042E0
1.486285304E1,6.907921037E-1,-3.799997279E0,5.719305471E0,6.901277282E0
1.487288704E1,3.853385282E-1,-4.585132746E0,6.463168366E0,7.933755315E0
1.488292104E1,2.028472200E-1,-4.917379140E0,7.122691022E0,8.657626234E0
1.489295504E1,1.705647424E-1,-4.589686557E0,7.741894788E0,9.001735940E0
1.490299004E1,3.888123590E-1,-3.635057850E0,8.039460762E0,8.831633482E0
1.491302404E1,8.043105331E-1,-2.408208511E0,7.918520461E0,8.315608815E0
1.492305804E1,7.346769190E-1,-1.467413147E0,7.925548815E0,8.093662677E0
1.493309204E1,7.631888196E-1,-7.832643574E-1,8.100447806E0,8.173935091E0
1.494312704E1,9.782412252E-1,-1.840171391E-1,8.331794647E0,8.391044050E0
1.495316104E1,9.647552070E-1,3.197035325E-1,8.382592918E0,8.443981702E0
1.496319504E1,6.638653833E-1,6.948831081E-1,8.311656836E0,8.367031681E0
1.497322904E1,2.684316373E-1,8.979645091E-1,7.933180600E0,7.988350909E0
1.498326304E1,-3.946987510E-2,1.191892346E0,6.767230597E0,6.871504579E0
1.499329804E1,-3.822313178E-1,1.396178858E0,5.473969166E0,5.662133398E0
1.500333204E1,-7.091392046E-1,1.348249816E0,4.827351023E0,5.062012828E0
1.501336604E1,-8.598123041E-1,1.170040131E0,4.699326528E0,4.918530362E0
1.502340004E1,-4.286245885E-1,1.011489955E0,4.670491861E0,4.797950103E0
1.503343404E1,4.708315453E-1,9.335442317E-1,4.447042562E0,4.568301076E0
1.504346904E1,1.506852032E0,7.501164919E-1,4.073963598E0,4.407999228E0
1.505350304E1,2.435060679E0,5.248121631E-1,3.716269829E0,4.473880839E0
1.506353704E1,3.141383280E0,2.714511395E-1,3.439985673E0,4.666420048E0
1.507357104E1,3.697755205E0,1.291351730E-1,3.391654050E0,5.019301410E0
1.508360504E1,4.176201287E0,6.107182860E-2,3.434307150E0,5.407296233E0
1.509364004E1,4.617138065E0,2.724334717E-2,3.406364475E0,5.737771785E0
1.510367404E1,4.999251269E0,-3.214916110E-2,3.232526754E0,5.953383579E0
1.511370804E1,5.341333265E0,-1.371002501E-1,2.937519522E0,6.097348479E0
1.512374204E1,5.551666968E0,-3.331351715E-1,2.683148099E0,6.175052136E0
1.513377604E1,5.721052619E0,-5.654321855E-1,2.486065357E0,6.263439757E0
1.514381104E1,5.734891225E0,-8.756117731E-1,2.281230376E0,6.233753714E0
1.515384504E1,5.749648427E0,-1.463628829E0,1.938436189E0,6.241650523E0
1.516387904E1,7.131513886E0,-2.548043504E0,-2.280706465E-1,7.576478880E0
1.517391304E1,8.712050191E0,-3.217300605E0,-4.631977129E-1,9.298676993E0
1.518394704E1,8.245804324E0,-3.753234757E0,2.224328343E-1,9.062534770E0
1.519398204E1,6.043497326E0,-4.761326895E0,-4.120589881E-1,7.704796321E0
1.520401604E1,3.085626571E0,-6.243476195E0,-2.493055118E0,7.397121748E0
1.521405004E1,2.631372759E-1,-7.279638476E0,-7.045058709E0,1.013386549E1
1.522408404E1,-2.652590258E0,-6.933576280E0,-1.437815477E1,1.618153422E1
1.523411804E1,-3.972337821E0,-4.827988077E0,-2.018779505E1,2.113376458E1
1.524415304E1,-2.087722621E0,-2.484377850E0,-1.895673980E1,1.923249082E1
1.525418704E1,-5.560877502E-1,-1.239140772E0,-1.235574087E1,1.243016637E1
1.526422104E1,-8.224216989E-1,-3.103742999E-1,-6.792007588E0,6.848655104E0
1.527425504E1,-6.037285244E-1,5.911365455E-1,-2.611318563E0,2.744615672E0
1.528429004E1,5.363259155E-1,1.249856379E0,-2.241565204E-1,1.378416701E0
1.529432404E1,1.535998940E0,1.448312048E0,1.138741740E0,2.398673234E0
1.530435804E1,2.283853729E0,1.308391101E0,1.739315107E0,3.154852163E0
1.531439179E1,2.668559881E0,1.219592945E0,2.329365824E0,3.746273339E0
1.532442579E1,2.528857327E0,8.224067885E-1,2.487924771E0,3.641598821E0
1.533446079E1,1.573154780E0,-6.708662546E-1,3.126712031E0,3.563875085E0
1.534449479E1,1.587896195E-1,-3.111394081E0,4.096016665E0,5.146196633E0
1.535452879E1,-9.855692482E-1,-5.051958656E0,4.480812571E0,6.824317863E0
1.536456279E1,-1.371862627E0,-5.656785287E0,4.224672951E0,7.192293681E0
1.537459679E1,-1.026801474E0,-4.892133202E0,4.127167121E0,6.482345022E0
1.538463179E1,-4.697123882E-1,-3.184515851E0,4.276386895E0,5.352499959E0
1.539466579E1,-1.300008532E-1,-1.213711815E0,4.350127301E0,4.518141668E0
1.540469979E1,2.101293424E-1,7.363948309E-1,4.231903617E0,4.300632502E0
1.541473379E1,7.958756322E-1,2.561068761E0,3.934164566E0,4.761317260E0
1.542476779E1,1.025501053E0,3.714946019E0,3.662176652E0,5.316391085E0
1.543480279E1,8.481836540E-1,3.722949103E0,3.598191741E0,5.246594070E0
1.544483679E1,7.962323123E-1,3.256085186E0,3.510709208E0,4.853983496E0
1.545487079E1,9.631650567E-1,2.513479443E0,3.312839431E0,4.268509216E0
1.546490479E1,6.869858587E-1,1.257968806E0,3.204765344E0,3.510691669E0
1.547493879E1,-1.185660383E-1,-2.959959966E-1,3.370034555E0,3.385085588E0
1.548497379E1,-9.293321899E-1,-1.593018356E0,3.557794497E0,4.007401588E0
1.549500779E1,-1.238351982E0,-2.049656662E0,3.462994759E0,4.210337370E0
1.550504179E1,-7.130395898E-1,-1.314310237E0,3.199229200E0,3.531416760E0
1.551507579E1,2.492320123E-1,4.162808239E-2,2.801244314E0,2.812617855E0
1.552510979E1,9.222555971E-1,1.176379098E0,2.492451686E0,2.906327334E0
1.553514479E1,1.080438860E0,1.843571547E0,2.477930710E0,3.272039851E0
1.554517879E1,9.048004889E-1,2.077132144E0,2.418476222E0,3.313935591E0
1.555521279E1,3.994142380E-1,1.900553833E0,2.318950764E0,3.024759371E0
1.556524679E1,-3.040306556E-1,1.291242971E0,2.193179494E0,2.563158080E0
1.557528079E1,-8.600152025E-1,4.440013039E-1,2.015738719E0,2.236060350E0
1.558531579E1,-1.576119026E0,-5.181317192E-1,1.836681772E0,2.475078099E0
1.559534979E1,-2.207565399E0,-1.332928941E0,1.569087456E0,3.018622202E0
1.560538379E1,-2.442871682E0,-1.790760080E0,1.227053407E0,3.268042806E0
1.561541779E1,-2.390713934E0,-1.748613934E0,8.045592590E-1,3.069279949E0
1.562545279E1,-2.095454102E0,-1.164097021E0,2.757517666E-1,2.412900496E0
1.563548679E1,-1.623801315E0,-2.011161518E-1,-7.310697716E-1,1.792105306E0
1.564552079E1,-1.385793910E0,5.397798657E-1,-1.417838114E0,2.054763242E0
1.565555479E1,-1.588359295E0,6.432755828E-1,-1.212265653E0,2.099113322E0
1.566558879E1,-1.719351543E0,5.150590074E-1,-1.041507806E0,2.075137109E0
1.567562379E1,-1.701365800E0,3.951712060E-1,-1.230177575E0,2.136385437E0
1.568565779E1,-1.702996296E0,-1.169384658E-2,-1.958679249E0,2.595526446E0
1.569569179E1,-1.566369963E0,-4.512617916E-1,-2.808573214E0,3.247342847E0
1.570572579E1,-1.171166597E0,-6.444081885E-1,-3.338791713E0,3.596445914E0
1.571575979E1,-6.618749911E-1,-5.731084102E-1,-3.470448497E0,3.579182103E0
1.572579479E1,-1.941807693E-1,-3.218792814E-1,-3.169351974E0,3.191567700E0
1.573582879E1,1.547412997E-1,-4.714551508E-2,-2.573928543E0,2.579006730E0
1.574586279E1,3.291804072E-1,1.819706136E-1,-1.794419852E0,1.833416387E0
1.575589679E1,4.245862091E-1,3.347460794E-1,-1.054112064E0,1.184685878E0
1.576593079E1,5.217736575E-1,4.163971835E-1,-4.183345123E-1,7.878058950E-1
1.577596579E1,6.349482706E-1,4.560027140E-1,9.631299734E-2,7.876382260E-1
1.578599979E1,7.556310010E-1,4.601869816E-1,5.441261011E-1,1.038664278E0
1.579603379E1,7.307785803E-1,4.257001036E-1,9.844300644E-1,1.297829135E0
1.580606779E1,5.726210448E-1,3.234691393E-1,1.416163471E0,1.561424389E0
1.581610179E1,2.823360237E-1,1.798732173E-1,1.833161164E0,1.863477356E0
1.582613679E1,-8.672210187E-2,9.385716677E-2,2.190189813E0,2.193914608E0
1.583617079E1,-4.527478614E-1,1.168098271E-1,2.440228302E0,2.484620560E0
1.584620479E1,-7.366307661E-1,2.350949067E-1,2.556231945E0,2.670620949E0
1.585623879E1,-9.645005608E-1,4.314379764E-1,2.574468825E0,2.782856409E0
1.586627279E1,-1.177466387E0,6.852445579E-1,2.471041521E0,2.821707532E0
1.587630779E1,-1.255989524E0,9.661453825E-1,2.328860625E0,2.816831268E0
1.588634179E1,-1.307852865E0,1.195443360E0,2.163544490E0,2.796513669E0
1.589637579E1,-1.394507139E0,1.276444253E0,1.973399615E0,2.732812861E0
1.590640979E1,-1.561926371E0,1.200423433E0,1.768318466E0,2.647183523E0
1.591644479E1,-1.783383525E0,1.032977888E0,1.555698502E0,2.582188595E0
1.592647879E1,-1.953532822E0,9.066201425E-1,1.286418288E0,2.508609691E0
1.593651279E1,-2.072146808E0,8.113754314E-1,1.044004421E0,2.458061780E0
1.594654679E1,-2.130868933E0,7.360124230E-1,7.720195770E-1,2.382924867E0
1.595658079E1,-2.107105556E0,6.790827620E-1,4.918104780E-1,2.267801748E0
1.596661479E1,-2.055544224E0,6.620229256E-1,2.349406864E-1,2.172264610E0
1.597664979E1,-1.936372706E0,7.359387481E-1,3.248552218E-2,2.071762633E0
1.598668379E1,-1.813190876E0,8.212168801E-1,-9.380644217E-2,1.992701173E0
1.599671779E1,-1.709996291E0,8.820168132E-1,-1.896257883E-1,1.933390522E0
1.600675179E1,-1.621945117E0,9.068557853E-1,-2.529879713E-1,1.875392303E0
1.601678679E1,-1.568845674E0,9.427483338E-1,-3.000580573E-1,1.854746885E0
1.602682079E1,-1.498536414E0,9.795267355E-1,-3.807570885E-1,1.830316904E0
1.603685479E1,-1.406656776E0,9.621295148E-1,-5.876884425E-1,1.802707462E0
1.604688879E1,-1.377308139E0,8.793580842E-1,-8.191476966E-1,1.827908996E0
1.605692279E1,-1.633769941E0,6.077063853E-1,-9.401346284E-1,1.980495996E0
1.606695779E1,-2.202466627E0,1.315506577E-2,-8.643571986E-1,2.366040081E0
1.607699179E1,-2.776796228E0,-6.105925709E-1,-8.190838158E-1,2.958769825E0
1.608702579E1,-3.120921241E0,-9.174386609E-1,-1.081769979E0,3.428129137E0
1.609705979E1,-3.352818891E0,-9.452772546E-1,-1.442907612E0,3.770533912E0
1.610709379E1,-3.567744119E0,-1.159004096E0,-1.860613841E0,4.187358650E0
1.611712879E1,-3.689311533E0,-1.945245271E0,-3.120218698E0,5.208719946E0
1.612716279E1,-3.668118593E0,-2.998707125E0,-4.147066365E0,6.296467094E0
1.613719679E1,-3.458602331E0,-3.860511868E0,-4.569154644E0,6.909606076E0
1.614723079E1,-2.874453793E0,-3.996112307E0,-4.978628139E0,7.001295332E0
1.615726479E1,-1.976901805E0,-3.478504499E0,-5.438607545E0,6.751783936E0
1.616729979E1,-1.151882188E0,-2.720203659E0,-5.735612771E0,6.451635016E0
1.617733379E1,-6.217575368E-1,-2.001772644E0,-5.300378197E0,5.699796943E0
1.618736779E1,-2.495657422E-1,-1.357887781E0,-4.028847944E0,4.258844684E0
1.619740179E1,-6.565078318E-2,-8.177600062E-1,-2.489445047E0,2.621140610E0
1.620743579E1,-4.112471022E-1,-5.365896249E-1,-1.032048181E0,1.233764991E0
1.621747079E1,-8.030019262E-1,-3.166945553E-1,5.560292780E-1,1.026779476E0
1.622750479E1,-1.015056903E0,-1.931101441E-2,2.216874751E0,2.438287738E0
1.623753879E1,-1.122718615E0,2.584574568E-1,3.341833434E0,3.534847670E0
1.624757279E1,-1.353985934E0,3.701568174E-1,3.688774467E0,3.946815304E0
1.625760779E1,-1.803897458E0,3.026442808E-1,3.524546059E0,3.970902230E0
1.626764179E1,-2.223762332E0,2.578306353E-1,3.394134439E0,4.065924758E0
1.627767579E1,-2.274138434E0,4.265274847E-1,3.169090312E0,3.923871139E0
1.628770979E1,-2.224596438E0,5.022056580E-1,2.776708227E0,3.593208652E0
1.629774379E1,-2.211538436E0,5.875627273E-1,2.420619811E0,3.330995719E0
1.630777879E1,-2.058800538E0,9.571482718E-1,2.043847454E0,3.054849404E0
1.631781317E1,-2.013025903E0,1.235350606E0,1.749841264E0,2.939440229E0
1.632784717E1,-2.077081858E0,1.311021763E0,1.637116302E0,2.951812476E0
1.633788117E1,-1.986341549E0,1.304515566E0,1.569437120E0,2.847884564E0
1.634791517E1,-1.804294045E0,1.176349862E0,1.594849119E0,2.680078303E0
1.635795017E1,-1.705482532E0,9.969186938E-1,1.664970391E0,2.583533231E0
1.636798417E1,-1.612414155E0,8.029811686E-1,1.520132228E0,2.357002366E0
1.637801817E1,-1.551159893E0,6.279745889E-1,1.198329545E0,2.058262082E0
1.638805217E1,-1.437908389E0,3.875680715E-1,8.245204107E-1,1.702240716E0
1.639808617E1,-1.151835410E0,1.669157875E-1,4.478804930E-1,1.247069616E0
1.640812117E1,-6.529331365E-1,-8.498226285E-2,3.788260455E-1,7.596399401E-1
1.641815517E1,-1.166671550E-1,-2.779514891E-1,7.231579041E-1,7.834702354E-1
1.642818917E1,4.126584738E-1,-4.838910091E-1,1.606745718E0,1.728024689E0
1.643822317E1,8.646339181E-1,-7.180807668E-1,2.874958992E0,3.086846450E0
1.644825717E1,1.499819293E0,-7.264270824E-1,4.145627950E0,4.468040434E0
1.645829217E1,1.757611045E0,-5.116664529E-1,5.535975380E0,5.830782327E0
1.646832617E1,1.471701495E0,-2.807704318E-1,6.068649709E0,6.250859670E0
1.647836017E1,1.432684487E0,1.129530036E-1,4.736402553E0,4.949631538E0
1.648839417E1,1.533582871E0,4.921379220E-1,2.612783875E0,3.069318448E0
1.649842817E1,1.618470409E0,8.619135010E-1,1.325072622E0,2.262334812E0
1.650846317E1,1.624346568E0,1.235061754E0,9.857236147E-1,2.266170857E0
1.651849717E1,1.661961122E0,1.442742575E0,1.113376592E0,2.466420147E0
1.652853117E1,1.771907487E0,1.536529575E0,1.299006904E0,2.681044240E0
1.653856517E1,2.123042727E0,1.489917911E0,1.301008991E0,2.901687474E0
1.654859917E1,2.749425704E0,1.235668110E0,1.308263047E0,3.285995980E0
1.655863417E1,3.497991514E0,1.031448841E0,1.366342270E0,3.894447656E0
1.656866817E1,4.180057526E0,9.792413914E-1,1.412966799E0,4.519764352E0
1.657870217E1,4.729146743E0,9.489949143E-1,1.394643964E0,5.021001101E0
1.658873617E1,5.119699234E0,8.979358578E-1,1.262098110E0,5.348878451E0
1.659877017E1,5.379243688E0,8.476030254E-1,1.065139255E0,5.548803040E0
1.660880517E1,5.493776609E0,8.038003635E-1,6.637887847E-1,5.591805791E0
