"Time (s)","Linear Acceleration x (m/s^2)","Linear Acceleration y (m/s^2)","Linear Acceleration z (m/s^2)","Absolute acceleration (m/s^2)"
1.704916678E-3,-1.057802534E0,-3.262326065E-1,-4.331348383E-1,1.188688228E0
1.173891667E-2,-6.497303241E-1,-4.886888688E-1,-1.210328616E0,1.458033492E0
2.177291668E-2,-3.873705818E-1,-3.626999364E-1,-1.775937973E0,1.853527150E0
3.180791668E-2,-5.226709127E-1,-2.587838776E-1,-2.384124999E0,2.454425796E0
4.184191667E-2,-5.347160308E-1,-2.375508104E-1,-2.562545768E0,2.628496231E0
5.187591667E-2,-4.270025709E-1,-4.157254115E-1,-2.649250036E0,2.715452921E0
6.190991667E-2,-3.348840737E-1,-6.088886192E-1,-2.735882383E0,2.822754879E0
7.194491666E-2,-6.954114041E-1,-6.603012861E-1,-2.332416902E0,2.521857136E0
8.197891667E-2,-9.236513275E-1,-4.934661171E-1,-2.017798108E0,2.273356503E0
9.201291668E-2,-8.709611902E-1,-4.428824392E-1,-1.667103163E0,1.932343449E0
1.020469167E-1,-5.606351298E-1,-5.889142381E-1,-1.264894833E0,1.503692345E0
1.120819167E-1,-5.681777456E-1,-6.495574658E-1,-6.175817478E-1,1.061205949E0
1.221159167E-1,-4.555077472E-1,-6.256987794E-1,-1.313828427E-1,7.850144723E-1
1.321499167E-1,-1.743940839E-1,-6.244232824E-1,-1.989064890E-1,6.781456507E-1
1.421839167E-1,-2.264033130E-1,-4.800993456E-1,-3.356775409E-1,6.280392131E-1
1.522179167E-1,-8.456915706E-2,-1.962224708E-1,-4.426377332E-1,4.915113053E-1
1.622529167E-1,1.108608699E-1,2.983503049E-1,-1.569205570E-1,3.548620832E-1
1.722869167E-1,8.422212481E-2,6.789060299E-1,2.971338648E-1,7.458520613E-1
1.823209167E-1,9.376711965E-2,7.282385498E-1,7.664518583E-1,1.061401012E0
1.923549167E-1,1.263671011E-1,5.736623608E-1,1.244795029E0,1.376434457E0
2.023899167E-1,4.106324136E-2,3.284442793E-1,1.508567020E0,1.544453395E0
2.124239167E-1,2.834876329E-2,1.481922538E-1,1.785112839E0,1.791477726E0
2.224579167E-1,1.226058796E-1,-7.360816760E-2,1.717074053E0,1.723018766E0
2.324919167E-1,7.043555975E-2,-4.246504919E-1,1.141310422E0,1.219786329E0
2.425269167E-1,-3.188401911E-1,-1.008037028E0,1.048779988E-1,1.062448640E0
2.525609167E-1,-8.994257283E-1,-1.726035349E0,-1.112618719E0,2.241893192E0
2.625949167E-1,-1.761820748E0,-2.653039032E0,-2.684500560E0,4.165233692E0
2.726289167E-1,-2.688608814E0,-3.428647630E0,-4.593269731E0,6.331063792E0
2.826639167E-1,-3.556893149E0,-4.035124053E0,-6.007583728E0,8.063794221E0
2.926979167E-1,-2.975539580E0,-4.553182974E0,-6.059746739E0,8.142839893E0
3.027319167E-1,-1.328538559E0,-5.376633491E0,-5.563234515E0,7.850017877E0
3.127659167E-1,-3.051603377E-2,-6.260861721E0,-6.089029010E0,8.733590041E0
3.227999167E-1,3.919736561E-1,-6.899582323E0,-7.415258796E0,1.013626867E1
3.328349167E-1,-1.047666094E-1,-7.293156070E0,-9.219824152E0,1.175611581E1
3.428689167E-1,-9.913831347E-1,-7.140703955E0,-1.158902472E1,1.364836940E1
3.529029167E-1,-2.684347363E0,-7.133451068E0,-1.285359269E1,1.494344974E1
3.629369167E-1,-3.853467143E0,-7.297578903E0,-1.259993580E1,1.506194705E1
3.729719167E-1,-4.211289843E0,-7.949986668E0,-1.078057348E1,1.404129676E1
3.830059167E-1,-3.963876023E0,-8.144735786E0,-7.415894973E0,1.170660209E1
3.930399167E-1,-3.308027757E0,-7.809916032E0,-3.226475471E0,9.074578780E0
4.030739167E-1,-2.926955357E0,-7.546721161E0,2.692829919E-1,8.098924699E0
4.131089167E-1,-2.370809720E0,-7.779663708E0,2.926403380E0,8.643364095E0
4.231429167E-1,-1.106099074E0,-8.158067438E0,5.032290376E0,9.648910090E0
4.331769167E-1,-5.637101805E-1,-7.446157238E0,8.215597608E0,1.110221018E1
4.432109167E-1,4.847622442E-1,-5.773986293E0,1.092521021E1,1.236665396E1
4.532459167E-1,2.671102835E0,-3.735379407E0,1.225146280E1,1.308381406E1
4.632799167E-1,4.902647080E0,-1.397697380E0,1.221060830E1,1.323209966E1
4.733139167E-1,7.016616683E0,6.666387177E-1,1.230852226E1,1.418368913E1
4.833479167E-1,8.455138153E0,1.497883865E0,1.253424584E1,1.519343069E1
4.933819167E-1,8.081768875E0,1.689814041E0,1.130384432E1,1.399811973E1
5.034169167E-1,7.262638866E0,2.264463777E0,9.155762057E0,1.190385225E1
5.134509167E-1,8.009518340E0,2.705349392E0,7.325931467E0,1.118662466E1
5.234849167E-1,8.852814306E0,2.996569383E0,6.752611388E0,1.153037336E1
5.335189167E-1,9.797308034E0,3.342748523E0,8.182348586E0,1.319515217E1
5.435539167E-1,1.066309707E1,3.086050494E0,1.124748534E1,1.580288813E1
5.535879167E-1,1.192287266E1,2.903093455E0,1.522946610E1,1.955810527E1
5.636219167E-1,1.417069790E1,3.517883157E0,1.795247701E1,2.314034597E1
5.736562500E-1,1.640467458E1,5.162308479E0,1.795861191E1,2.486512656E1
5.836912500E-1,1.761337241E1,7.223643785E0,1.623345642E1,2.501873347E1
5.937252500E-1,1.687376629E1,8.461513372E0,1.318090111E1,2.302297443E1
6.037592500E-1,1.602624980E1,8.425820798E0,8.556608394E0,2.002624993E1
6.137932500E-1,1.396274284E1,6.678756377E0,3.860986077E0,1.595215308E1
6.238282500E-1,9.429251536E0,4.072879817E0,-1.859022814E-1,1.027295937E1
6.338622500E-1,3.618167876E0,1.628548377E0,-3.263049805E0,5.137197935E0
6.438962500E-1,6.899331477E-1,3.467404729E-1,-3.301005836E0,3.390114486E0
6.539302500E-1,-7.704800051E-1,-2.378059098E0,-1.887974133E0,3.132610866E0
6.639652500E-1,-3.201982654E0,-8.442622772E0,-2.218116115E0,9.297882086E0
6.739992500E-1,-6.158595089E0,-9.636484460E0,-2.651057410E-1,1.143942338E1
6.840332500E-1,-3.830536994E0,-5.987572217E0,-4.529232194E0,8.428403110E0
6.940672500E-1,-2.299324000E0,-3.883337644E0,-6.923859962E0,8.264807251E0
7.041012500E-1,-2.664931099E0,-4.932670194E0,-1.106468150E1,1.240404248E1
7.141362500E-1,-2.617337102E0,-2.875731994E0,-1.221316119E1,1.281723817E1
7.241702500E-1,-1.921935346E0,3.512083304E-1,-1.228410780E1,1.243850824E1
7.342042500E-1,6.094017854E-1,8.517194653E-1,-1.260569881E1,1.264912800E1
7.442382500E-1,1.224208445E0,1.851934819E0,-1.147451519E1,1.168729428E1
7.542732500E-1,-5.179156646E-1,3.888027111E0,-1.011384471E1,1.084780376E1
7.643072500E-1,-1.743143279E0,5.620713229E0,-8.972676380E0,1.073032558E1
7.743412500E-1,-2.321548682E0,7.442251298E0,-7.049102644E0,1.051030641E1
7.843752500E-1,-3.003096338E0,9.183205964E0,-4.799460096E0,1.078817300E1
7.944102500E-1,-3.776667181E0,1.057002226E1,-1.563753919E0,1.133286865E1
8.044442500E-1,-5.354145684E0,1.085112247E1,1.014750655E0,1.214262961E1
8.144782500E-1,-3.948300210E0,1.034678609E1,1.343077953E0,1.115566741E1
8.245122500E-1,-2.022783736E0,8.449534766E0,2.063344994E-1,8.690734476E0
8.345472500E-1,-2.467549564E0,6.570456587E0,-8.868366730E-1,7.074332470E0
8.445812500E-1,-2.955745878E0,4.673560188E0,-8.696221778E-1,5.597753233E0
8.546152500E-1,-4.084523670E0,2.462573583E0,-9.912492335E-1,4.871362982E0
8.646492500E-1,-4.286456678E0,9.656659108E-1,-1.917216058E0,4.793948155E0
8.746832500E-1,-3.496919720E0,9.336974287E-1,-2.362391483E0,4.322167504E0
8.847182500E-1,-1.964076522E0,1.767384081E0,-3.193826080E0,4.145089638E0
8.947522500E-1,-6.539876819E-2,2.419990066E0,-4.429641833E0,5.048005119E0
9.047862500E-1,2.803095835E0,2.541043217E0,-5.639869292E0,6.791345413E0
9.148202500E-1,4.013536133E0,1.057859545E0,-4.401523157E0,6.049871504E0
9.248552500E-1,4.800415824E0,-7.947535515E-1,-3.137727893E0,5.789728976E0
9.348892500E-1,5.631813583E0,-1.944423738E0,-2.730676315E0,6.553983601E0
9.449232500E-1,5.926685160E0,-2.843018577E0,-7.139020541E-1,6.611959449E0
9.549572500E-1,5.194447115E0,-3.838561420E0,1.854604658E0,6.719850671E0
9.649922500E-1,5.043700048E0,-5.282755859E0,2.897705246E0,7.857678750E0
9.750262500E-1,3.866159401E0,-6.560881187E0,1.886387199E0,7.845432246E0
9.850602500E-1,2.909209642E0,-7.631330371E0,7.190701742E0,1.088149326E1
9.950942500E-1,2.055517473E0,-1.228642447E1,1.327417824E1,1.820398819E1
1.005129250E0,7.226096546E-1,-1.428683413E1,1.488864827E1,2.064721873E1
1.015163250E0,-2.946542945E0,-1.141433798E1,1.229752248E1,1.703520725E1
1.025197250E0,-1.922770036E0,-9.735436891E0,1.279905220E1,1.619541643E1
1.035231250E0,1.541568705E0,-8.151544869E0,1.395758443E1,1.623694186E1
1.045265250E0,2.417228133E0,-6.664897891E0,1.377419470E1,1.549168471E1
1.055300250E0,8.785825972E-1,-5.753400586E0,1.319524316E1,1.442178795E1
1.065334250E0,-1.715949341E0,-6.062511302E0,1.014690019E1,1.194395701E1
1.075368250E0,-3.779999217E0,-6.636013815E0,6.476944406E0,1.001378461E1
1.085402250E0,-4.344999001E0,-5.356095146E0,3.670473266E0,7.812755310E0
1.095437250E0,-4.128296803E0,-2.721950222E0,6.296281815E-3,4.944884948E0
1.105471250E0,-3.582352803E0,1.815215474E-1,-2.898717399E0,4.611807046E0
1.115505250E0,-3.113715425E0,2.297890263E0,-4.417579612E0,5.872864125E0
1.125539250E0,-2.428363863E0,3.898746811E0,-6.193364387E0,7.710702963E0
1.135574250E0,-2.375580901E0,4.871389035E0,-7.145657131E0,8.968513343E0
1.145608250E0,-2.414954151E0,5.680537847E0,-8.092123125E0,1.017757193E1
1.155642250E0,-2.337357799E0,6.173286218E0,-8.329330046E0,1.062781460E1
1.165676250E0,-1.580137817E0,6.658104011E0,-7.485473331E0,1.014196704E1
1.175710250E0,-4.453523031E-1,7.776944752E0,-6.414003807E0,1.009052294E1
1.185745250E0,7.601207124E-1,9.959473543E0,-5.348884944E0,1.133046631E1
1.195779250E0,2.099911434E0,1.263225453E1,-5.320462214E0,1.386689586E1
1.205813250E0,1.999352189E0,1.391169197E1,-5.739507017E0,1.518138740E1
1.215847250E0,1.511323105E0,1.437999547E1,-5.010907694E0,1.530286128E1
1.225882250E0,2.134376824E0,1.436719592E1,-3.287391179E0,1.489224039E1
1.235916250E0,2.532753035E0,1.411022950E1,-2.003702517E0,1.447509027E1
1.245950250E0,3.142169731E0,1.398936522E1,-3.174183821E0,1.468506087E1
1.255984250E0,2.996420864E0,1.355491709E1,-4.204523738E0,1.450490728E1
1.266019250E0,1.566264859E0,1.288513842E1,-5.731351905E0,1.418902295E1
1.276053250E0,2.674698434E-1,1.213624224E1,-6.234737531E0,1.364667974E1
1.286087250E0,2.011271153E-1,1.127391359E1,-6.412890497E0,1.297176720E1
1.296121250E0,-1.101280457E0,1.181994998E1,-7.779704638E0,1.419323220E1
1.306156250E0,-2.497921171E0,1.183888794E1,-6.631675766E0,1.379775348E1
1.316190250E0,3.509615779E-1,8.786342574E0,-3.028632883E0,9.300301446E0
1.326224250E0,2.059759482E0,6.316344781E0,-3.012618528E0,7.294840020E0
1.336258250E0,-2.938415900E-1,5.097411987E0,-3.400046559E0,6.134351510E0
1.346292250E0,-1.288314101E0,2.927572238E0,-2.312985435E0,3.947193187E0
1.356327250E0,-3.472814865E-1,-6.698956168E-1,-1.184301490E0,1.404255884E0
1.366361250E0,6.266974108E-1,-3.168749419E0,-1.441232531E0,3.537071350E0
1.376395250E0,9.989073318E-1,-5.493391863E0,-8.456851387E-1,5.647154449E0
1.386429250E0,-2.609895936E-1,-7.805083893E0,2.172141797E0,8.105902179E0
1.396464250E0,1.027955130E0,-8.067434426E0,6.464378740E0,1.038885857E1
1.406498250E0,4.602061897E0,-8.788287942E0,8.685659952E0,1.318535807E1
1.416532250E0,8.325286111E0,-1.046423326E1,7.232744976E0,1.520273550E1
1.426566250E0,8.600120450E0,-1.240930721E1,1.005967962E1,1.814249518E1
1.436601250E0,7.144133931E0,-1.386368048E1,9.775980899E0,1.840679464E1
1.446635250E0,1.027679258E1,-1.562002151E1,1.090318608E1,2.164432962E1
1.456669250E0,1.328943245E1,-1.946080838E1,1.533616492E1,2.811636592E1
1.466703250E0,1.461243048E1,-2.383500516E1,1.625019232E1,3.233727487E1
1.476737250E0,1.366770520E1,-2.478869071E1,1.423306313E1,3.168383561E1
1.486772250E0,5.205488997E0,-2.668957608E1,8.832718595E0,2.859103889E1
1.496806250E0,-1.298630928E0,-2.601104413E1,3.446754118E0,2.627053431E1
1.506840250E0,-4.432777694E0,-2.285061471E1,2.576420626E0,2.341875433E1
1.516874250E0,-3.765750137E0,-1.815566073E1,2.226773502E0,1.867531555E1
1.526909250E0,-1.858860261E0,-1.064604893E1,8.119876349E-1,1.083757552E1
1.536943250E0,-2.232841158E0,-3.721438183E0,-1.855185871E0,4.719787749E0
1.546977250E0,-2.824755968E0,-3.129552609E-1,-4.867479587E0,5.636447888E0
1.557011250E0,-4.723359169E0,1.261649044E0,-6.294991919E0,7.970495807E0
1.567046250E0,-7.012420136E0,1.884268752E0,-6.970047703E0,1.006509165E1
1.577080375E0,-8.843443558E0,2.538955176E0,-7.645887600E0,1.196295885E1
1.587114375E0,-9.543237158E0,4.208548669E0,-7.268539292E0,1.271286438E1
1.597148375E0,-8.485183486E0,6.347555464E0,-6.244195987E0,1.229958465E1
1.607182375E0,-5.891399553E0,8.593003803E0,-4.265965403E0,1.125818653E1
1.617217375E0,-3.382803997E0,1.046967585E1,-1.878015155E0,1.116173895E1
1.627251375E0,-1.547427616E0,1.249893100E1,-5.365989804E-2,1.259447052E1
1.637285375E0,7.237040341E-2,1.402060338E1,5.463989139E-2,1.402089662E1
1.647319375E0,7.835409307E-1,1.487958509E1,2.165551400E-1,1.490177456E1
1.657354375E0,1.117202352E0,1.505106287E1,-7.908978975E-1,1.511317816E1
1.667388375E0,9.597499904E-1,1.408626293E1,-1.634558730E0,1.421322292E1
1.677422375E0,1.277383316E0,1.433709562E1,-2.316062239E0,1.457903163E1
1.687456375E0,-3.188238189E-1,1.476402890E1,-4.776472937E0,1.552072459E1
1.697491375E0,-1.514078898E0,1.368376166E1,-6.946487517E0,1.542048822E1
1.707525375E0,-1.063643026E0,1.255287273E1,-6.869810055E0,1.434922438E1
1.717559375E0,-2.444925517E-2,1.168866829E1,-5.635614274E0,1.297635204E1
1.727593375E0,5.510910121E-1,1.170062351E1,-3.723082712E0,1.229103887E1
1.737627375E0,8.479342702E-1,1.048384015E1,-3.296836478E0,1.102265973E1
1.747662375E0,1.875614288E-1,7.561460238E0,-4.290325488E0,8.695846883E0
1.757696375E0,-4.795623153E-1,6.143843733E0,-4.804310069E0,7.813974090E0
1.767730375E0,4.985242510E-1,5.937886087E0,-5.129134886E0,7.862254275E0
1.777764375E0,1.971886063E0,5.288340535E0,-5.717396940E0,8.033897437E0
1.787799375E0,3.771846444E0,4.115674419E0,-5.701405390E0,7.979450165E0
1.797833375E0,4.793631884E0,2.236669330E0,-4.664868302E0,7.052842874E0
1.807867375E0,4.177406398E0,2.554981810E-1,-2.302577683E0,4.776805158E0
1.817901375E0,3.076138001E0,-3.102111041E0,-1.090280601E0,4.502713593E0
1.827936375E0,3.719293716E0,-7.451371785E0,-7.843443382E-1,8.364883936E0
1.837970375E0,5.468023133E0,-1.192096764E1,7.326938358E-1,1.313566088E1
1.848004375E0,8.132032126E0,-1.513911960E1,5.282924259E0,1.797865895E1
1.858038375E0,8.215865411E0,-1.798697792E1,9.446086839E0,2.191484373E1
1.868073375E0,6.439270796E0,-2.120583973E1,1.143239886E1,2.493695231E1
1.878107375E0,4.136305150E0,-2.558882838E1,1.377276096E1,2.935278697E1
1.888141375E0,1.196977377E0,-2.914888926E1,1.489719924E1,3.275693889E1
1.898175375E0,-2.290441787E0,-3.059526120E1,1.004062822E1,3.228204372E1
1.908209375E0,-5.007526249E0,-2.827763776E1,3.581273407E0,2.894003517E1
1.918244375E0,-3.485564719E0,-2.784380710E1,3.674770385E-1,2.806353140E1
1.928278375E0,-5.248861889E0,-2.387727819E1,-7.519370225E-1,2.445895285E1
1.938312375E0,-3.982269317E0,-1.472764519E1,-1.115832934E-1,1.525694768E1
1.948346375E0,-4.567132384E0,-6.668940071E0,1.450379038E0,8.212007017E0
1.958381375E0,-2.880220317E0,-1.251035178E0,2.233649243E0,3.853562901E0
1.968415375E0,-2.005252907E0,1.961750792E0,1.722398235E0,3.291832479E0
1.978449375E0,-1.076920006E0,3.703214750E0,-5.557693693E-1,3.896464523E0
1.988483375E0,2.193837306E-1,5.420864754E0,-2.684558448E0,6.053160989E0
1.998518375E0,2.339488963E0,7.182811509E0,-4.087382374E0,8.589102657E0
2.008552375E0,2.130966874E0,8.238907533E0,-3.480375900E0,9.194217398E0
2.018586375E0,2.596076626E0,9.430878816E0,-3.489509251E0,1.038545925E1
2.028620375E0,3.782194846E0,1.084730541E1,-5.106717246E0,1.257169812E1
2.038654375E0,4.494090428E0,1.209622741E1,-6.343181162E0,1.437885647E1
2.048689375E0,4.099814139E0,1.182871963E1,-6.381969252E0,1.405192569E1
2.058723375E0,3.845760512E0,1.185532914E1,-6.265174627E0,1.394959197E1
2.068757375E0,3.013232778E0,1.148441335E1,-5.791877604E0,1.321049462E1
2.078791375E0,1.494310631E0,1.066930681E1,-5.385686735E0,1.204461264E1
2.088826375E0,-3.118386766E0,1.025170335E1,-3.539820741E0,1.128503826E1
2.098860375E0,-6.961083922E0,1.037299097E1,-6.240923300E-2,1.249237872E1
2.108894375E0,-3.725549945E0,1.130989618E1,3.190575321E0,1.232774290E1
2.118928375E0,-1.773349410E0,1.454530679E1,7.603825654E0,1.650844881E1
2.128963375E0,-1.887094127E0,1.843451445E1,9.547940658E0,2.084599765E1
2.138997375E0,-4.254065734E0,1.662458837E1,4.946518739E0,1.785894905E1
2.149031375E0,-3.956970461E0,1.437510837E1,-1.201307094E0,1.495809128E1
2.159065375E0,-1.825118611E0,1.433226231E1,-4.375698052E0,1.509607679E1
2.169099375E0,-5.545435005E-1,1.399546035E1,-4.520281277E0,1.471779100E1
2.179134375E0,-1.936007255E0,1.195728470E1,-3.009145867E0,1.248117544E1
2.189168375E0,-4.145186778E0,9.268477664E0,-3.479599097E0,1.073288691E1
2.199202375E0,-3.474079326E0,6.773166690E0,-5.483055739E0,9.381306647E0
2.209236375E0,-2.387453527E0,4.121955498E0,-5.563321638E0,7.324001578E0
2.219271375E0,-5.125876817E-1,1.574679734E0,-4.268905967E0,4.578855813E0
2.229305375E0,3.830805381E0,-5.456031078E-1,2.217855621E0,4.460004056E0
2.239339375E0,8.505750482E0,-2.964111489E0,1.565321703E0,9.142427480E0
2.249373375E0,8.559464175E0,-8.787707899E0,3.691589316E0,1.281077940E1
2.259408375E0,5.080754439E0,-1.134373168E1,1.420312422E1,1.887387220E1
2.269442375E0,3.905708506E0,-1.166696576E1,1.679097440E1,2.081608681E1
2.279476375E0,4.398281461E0,-1.051274410E1,1.620666330E1,1.981208227E1
2.289510375E0,4.552820155E0,-1.093892193E1,3.810065892E0,1.244607514E1
2.299544375E0,4.505354505E0,-1.171131806E1,-1.810911339E0,1.267803573E1
2.309579375E0,2.727903565E0,-8.391547344E0,-1.473739834E0,8.946028939E0
2.319613375E0,-2.009128880E0,-9.886502631E0,2.453703649E0,1.038268726E1
2.329647375E0,-1.884860929E0,-8.921448923E0,5.206895837E-1,9.133239801E0
2.339681375E0,-1.698985983E-1,-9.837226975E0,-1.614633173E0,9.970302923E0
2.349716375E0,-2.472995660E0,-1.543042555E1,-9.870378349E0,1.848345500E1
2.359750375E0,-6.878297288E0,-4.057474626E1,-1.563472024E1,4.402346516E1
2.369784375E0,-5.303347414E0,-5.178715649E1,-4.796311955E0,5.227848199E1
2.379818375E0,-3.322050257E0,-4.377121323E1,4.556193706E0,4.413291319E1
2.389853375E0,-3.794282210E0,-1.656132851E1,6.166953683E0,1.807499646E1
2.399887375E0,-4.824944016E0,-6.665510094E-1,2.959241928E0,5.699253267E0
2.409921375E0,-3.856359760E0,4.919146169E0,1.963241101E0,6.551627679E0
2.419955375E0,-3.153801012E0,7.466832992E0,2.162821920E0,8.389150995E0
2.429989375E0,-2.807160527E0,9.233945178E0,1.278649677E0,9.735545119E0
2.440024375E0,-1.760312458E0,1.065150789E1,1.780523944E-1,1.079745446E1
2.450058375E0,-1.071952650E0,1.149349642E1,-1.906543136E-2,1.154339230E1
2.460092375E0,-8.060778540E-1,1.165976433E1,-1.609165442E-1,1.168870223E1
2.470126375E0,-3.768376268E-1,1.183339272E1,2.238355082E-1,1.184150718E1
2.480161375E0,3.112446579E-1,1.261273886E1,1.072451856E0,1.266207755E1
2.490195375E0,8.128774349E-1,1.349132979E1,1.814802515E0,1.363709124E1
2.500229375E0,1.375770467E0,1.426423815E1,2.894686913E0,1.461986479E1
2.510263375E0,3.141142375E0,1.603473178E1,3.714372992E0,1.675637089E1
2.520297375E0,3.794897630E0,1.784237394E1,2.063548477E0,1.835782634E1
2.530332375E0,3.676882984E0,1.979138423E1,-1.300592669E0,2.017200782E1
2.540366375E0,4.430600191E0,2.181999384E1,-4.759012567E0,2.276819162E1
2.550400375E0,6.175573064E0,1.959179303E1,-7.459152675E0,2.185440494E1
2.560434375E0,6.662623324E0,1.325482044E1,-8.304582875E0,1.700137969E1
2.570469375E0,5.408064029E0,1.045165240E1,-8.949562921E0,1.478441310E1
2.580502792E0,2.876428105E0,8.214895357E0,-8.520375538E0,1.218011263E1
2.590536792E0,1.668239569E0,5.668997782E0,-6.944750310E0,9.118668542E0
2.600570792E0,1.712885984E0,3.628427108E0,-4.751425220E0,6.218963201E0
2.610605792E0,1.477489069E0,2.661791144E0,-3.129504077E0,4.365993794E0
2.620639792E0,-1.279222412E-1,3.993869315E0,-2.362663525E0,4.642147686E0
2.630673792E0,-1.022187582E0,5.428670202E0,-2.561727743E0,6.089152375E0
2.640707792E0,-7.127589235E-1,5.778312648E0,-3.077826970E0,6.585585866E0
2.650741792E0,-1.557093063E-1,5.228591931E0,-2.514326412E0,5.803813942E0
2.660776792E0,4.730186963E-1,4.485946426E0,-1.463358103E0,4.742244085E0
2.670810792E0,1.323900256E0,3.366404019E0,2.630194545E0,4.472506149E0
2.680844792E0,2.807040074E0,8.155316323E-1,1.013938184E1,1.055232818E1
2.690878792E0,3.780072307E0,-3.365093658E0,1.389854509E1,1.479129331E1
2.700913792E0,4.519880158E-1,-7.422905785E0,1.206704863E1,1.417453654E1
2.710947792E0,-8.169563064E-1,-6.219527169E0,1.178440124E1,1.334998309E1
2.720981792E0,-3.932840171E0,-1.654366056E1,9.103090923E0,1.928798074E1
2.731015792E0,-3.423596805E0,-4.218477007E1,1.260998365E1,4.416205983E1
2.741050792E0,-6.972825131E-1,-6.210623380E1,1.485793519E1,6.386257681E1
2.751084792E0,2.175087039E0,-7.002145994E1,9.970724756E0,7.076122672E1
2.761118792E0,-1.268055107E0,-5.810696282E1,-2.149820519E1,6.196934661E1
2.771152792E0,-1.383416023E1,-1.871046093E1,-3.078268084E1,3.858806521E1
2.781186792E0,-9.310692807E0,-6.243738150E0,-9.430384142E0,1.464941677E1
2.791221792E0,-3.205649735E0,-5.591318107E-1,6.317141756E-2,3.254659619E0
2.801255792E0,3.732570477E-1,2.030494167E0,2.391710007E0,3.159510112E0
2.811289792E0,2.194351861E0,2.125592698E0,4.833321907E0,5.717895160E0
2.821323792E0,1.594877771E0,1.372025179E0,6.631526662E0,6.957243280E0
2.831358792E0,7.792173533E-1,1.465674770E0,6.834009308E0,7.032713945E0
2.841392792E0,1.108726959E0,3.077865561E0,5.591478320E0,6.478206672E0
2.851426792E0,2.743388454E0,5.619995776E0,3.583559376E0,7.207803447E0
2.861460792E0,4.086716668E0,8.654161586E0,1.836777667E0,9.745230530E0
2.871494792E0,4.069112456E0,1.146771838E1,8.081240872E-1,1.219505251E1
2.881529792E0,3.452188812E0,1.363755696E1,-2.736176790E-1,1.407037434E1
2.891563792E0,2.218090972E0,1.635718233E1,-1.215507203E0,1.655157996E1
2.901597792E0,2.064022102E0,1.860596651E1,-6.214960201E-1,1.873041468E1
2.911631792E0,3.485917306E0,1.933323149E1,8.605271262E-1,1.966382380E1
2.921666792E0,5.533506685E0,1.972844480E1,2.074637722E0,2.059454666E1
2.931700792E0,7.446575314E0,2.060077687E1,2.333749482E0,2.202929591E1
2.941734792E0,9.123789482E0,1.799939623E1,-2.499807483E-1,2.018128563E1
2.951768792E0,9.429520508E0,1.473775853E1,-3.772320946E0,1.789826218E1
2.961803792E0,8.389438838E0,1.376759319E1,-5.476983406E0,1.702723270E1
2.971837792E0,6.888079095E0,1.239540721E1,-6.879219979E0,1.576119986E1
2.981871792E0,5.023680351E0,1.068882248E1,-7.485047654E0,1.398264026E1
2.991905792E0,3.242626357E0,9.132229353E0,-7.555785515E0,1.228829253E1
3.001939792E0,1.875124584E0,8.056949199E0,-6.982569516E0,1.082528520E1
3.011974792E0,1.245182700E0,7.255053858E0,-6.068228710E0,9.539899691E0
3.022008792E0,8.654605682E-1,6.340604879E0,-5.272588720E0,8.291711768E0
3.032042792E0,6.376249798E-2,5.266734488E0,-4.629503757E0,7.012479081E0
3.042076792E0,-9.395015942E-1,4.243846555E0,-4.331124727E0,6.136084927E0
3.052111792E0,-1.828555020E0,3.372268776E0,-3.586580632E0,5.251606496E0
3.062145792E0,-1.955758565E0,3.177593333E0,-1.282325383E0,3.945433986E0
3.072179792E0,-1.791402542E0,3.117724276E0,1.701201055E0,3.977865352E0
3.082213792E0,-1.465878984E0,3.307519634E0,3.095155486E0,4.761142174E0
3.092248792E0,-1.125098359E0,3.043437740E0,2.457122224E0,4.070111696E0
3.102282792E0,-1.048895471E-1,1.677162713E0,-4.010187140E-1,1.727626288E0
3.112316792E0,6.554021233E-1,-9.218147171E-1,-8.765636998E-1,1.430964093E0
3.122350792E0,-6.980715217E-1,-6.585119065E0,4.902065282E0,8.239013350E0
3.132384792E0,-2.018031996E0,-1.066939569E1,1.168307601E1,1.595000698E1
3.142419792E0,-3.242130513E0,-2.267542278E1,1.175110603E1,2.574441107E1
3.152453792E0,-7.022421799E0,-4.562343807E1,1.675688045E1,4.910810067E1
3.162487792E0,-7.985175796E0,-6.100832316E1,1.879552739E1,6.433545195E1
3.172521792E0,-4.843217735E0,-6.198146825E1,1.601312281E1,6.419952699E1
3.182556792E0,4.803686464E-1,-3.862133418E1,1.473388417E1,4.133915275E1
3.192590792E0,-1.161455615E0,-1.925948758E1,9.061536516E0,2.131638536E1
3.202624792E0,-6.317577959E0,-1.646264154E1,-8.006005332E0,1.936560041E1
3.212658792E0,-6.246171176E0,-9.480490102E0,-3.272288054E1,3.463641520E1
3.222692792E0,8.463451432E-1,-2.205256918E0,-2.698215672E1,2.708535101E1
3.232727792E0,2.769336935E0,8.366757488E-1,-1.325091684E1,1.356303987E1
3.242761792E0,3.212597104E0,2.400320617E0,-3.902555103E0,5.595735479E0
3.252795792E0,3.098894195E0,3.871084803E0,2.011383566E0,5.351084623E0
3.262829792E0,2.331187671E0,5.553060944E0,5.812649252E0,8.370054548E0
3.272864792E0,1.970052376E0,7.425238824E0,7.631502280E0,1.082843964E1
3.282898792E0,2.031188670E0,9.243550399E0,8.192460176E0,1.251740209E1
3.292932792E0,2.612854627E0,1.126861952E1,8.142043728E0,1.414572979E1
3.302966792E0,3.451244195E0,1.311898495E1,7.283825083E0,1.539717378E1
3.313000792E0,4.418722450E0,1.462231462E1,5.911586480E0,1.637937873E1
3.323035792E0,5.387635612E0,1.581088984E1,4.429792106E0,1.728102754E1
3.333069792E0,6.213470623E0,1.661152101E1,3.123534654E0,1.800850677E1
3.343103792E0,7.202834129E0,1.902018443E1,2.180680194E0,2.045491631E1
3.353137792E0,7.538982956E0,2.049395292E1,1.251990467E0,2.187249072E1
3.363172792E0,7.307779956E0,2.184196534E1,-1.396737559E-1,2.303246853E1
3.373206792E0,6.093850039E0,2.054799289E1,-3.932726151E0,2.179039593E1
3.383240792E0,3.868086936E0,1.257500210E1,-9.846790681E0,1.643326082E1
3.393274792E0,1.221781119E0,8.240926577E0,-1.471430301E1,1.690906068E1
3.403309792E0,-1.777261198E-3,7.828461061E0,-1.194873490E1,1.428485462E1
3.413343792E0,-3.919308253E-1,7.835699914E0,-5.634932488E0,9.659413391E0
3.423377792E0,8.302110672E-2,6.977491794E0,-2.001689029E0,7.259410665E0
3.433411792E0,7.125988559E-1,6.281437488E0,-4.077637696E-1,6.334865850E0
3.443445792E0,1.142791960E0,5.927520143E0,-1.192541094E-1,6.037854756E0
3.453480792E0,1.497074756E0,5.603782032E0,-5.586581862E-1,5.827152379E0
3.463514792E0,1.633450098E0,5.395305405E0,-1.185991482E0,5.760560340E0
3.473548792E0,1.713051753E0,5.183387691E0,-1.961894779E0,5.800955559E0
3.483582792E0,1.745004155E0,5.167986125E0,-3.294804279E0,6.372507774E0
3.493617792E0,1.688701170E0,5.928566794E0,-4.362698230E0,7.552003160E0
3.503651792E0,1.374956242E0,6.855101384E0,-4.747167862E0,8.450948016E0
3.513685792E0,1.424366823E0,6.813783789E0,-4.886924502E0,8.505204375E0
3.523719792E0,1.501020311E0,7.373504999E0,-3.440000584E0,8.273768304E0
3.533753792E0,1.730835767E0,7.067399166E0,-9.383635068E-1,7.336514806E0
3.543788792E0,1.653846940E0,3.661162160E0,-1.432177826E0,4.265026540E0
3.553822792E0,1.956604365E0,-1.786937755E0,-1.741444078E0,3.170816087E0
3.563856792E0,1.182044392E0,-1.058701778E1,1.322036163E0,1.073452160E1
3.573890750E0,-5.483758575E0,-3.352532903E1,8.510848669E0,3.502076298E1
3.583925750E0,-1.287688917E1,-6.185180507E1,1.410148908E1,6.473261975E1
3.593959750E0,-1.073423897E1,-6.417928225E1,1.334553882E1,6.642520277E1
3.603993750E0,-4.455961320E0,-4.951465250E1,1.465532098E1,5.182986433E1
3.614027750E0,-5.448683467E0,-3.744776759E1,1.800226722E1,4.190590739E1
3.624062750E0,-6.071742302E0,-2.469679587E1,1.387903527E1,2.897283902E1
3.634096750E0,-4.880872342E0,-1.166737507E1,6.384841989E0,1.416745436E1
3.644130750E0,-4.132290452E0,-6.464574621E0,-8.413294016E-1,7.718444440E0
3.654164750E0,-2.776501821E0,-3.099583874E0,-8.453472281E0,9.422185318E0
3.664198750E0,2.424878484E0,6.223016202E-1,-2.686664849E1,2.698303348E1
3.674233750E0,3.441601844E0,1.629578072E0,-2.031790495E1,2.067165715E1
3.684267750E0,9.449368005E-1,2.127526372E0,-1.006881297E1,1.033442154E1
3.694301750E0,5.803346917E-2,3.534812016E0,-4.669046137E0,5.856471267E0
3.704335750E0,4.922361553E-2,5.109982916E0,-9.387722272E-1,5.195733024E0
3.714370750E0,1.067339124E0,7.259080836E0,8.268676293E-1,7.383574843E0
3.724404750E0,2.358732588E0,9.750681167E0,2.342306297E0,1.030173779E1
3.734438750E0,3.838728066E0,1.199361930E1,3.217732714E0,1.299755903E1
3.744472750E0,5.082460656E0,1.399624739E1,3.545117149E0,1.530667184E1
3.754507750E0,5.914897174E0,1.588862272E1,3.605772656E0,1.733308792E1
3.764541750E0,6.534184554E0,1.735324265E1,3.611170805E0,1.889103366E1
3.774575750E0,6.626852397E0,1.852859849E1,3.631293998E0,2.001025814E1
3.784609750E0,6.797865914E0,1.915960427E1,3.465838260E0,2.062312905E1
3.794643750E0,7.522136543E0,1.776358154E1,3.059527524E0,1.953171974E1
3.804678750E0,8.579892592E0,1.723628197E1,3.569578975E0,1.958177385E1
3.814712750E0,9.178353944E0,1.608008161E1,3.555552675E0,1.885346548E1
3.824746750E0,9.289783164E0,1.416135405E1,3.177633094E0,1.723198688E1
3.834780750E0,8.727664011E0,1.236955199E1,2.910076200E0,1.541578668E1
3.844815750E0,7.469007572E0,1.126450425E1,2.465878429E0,1.373883862E1
3.854849750E0,6.065615004E0,1.104037346E1,2.059485247E0,1.276412985E1
3.864883750E0,4.706723256E0,1.016035230E1,1.907403261E0,1.135888154E1
3.874917750E0,3.249629860E0,8.300707925E0,2.114694657E0,9.161538068E0
3.884951750E0,2.078877392E0,6.626954139E0,1.784087237E0,7.170859059E0
3.894986750E0,1.184500734E0,5.006659107E0,7.831801575E-1,5.204137638E0
3.905020750E0,4.993026616E-1,3.766262938E0,-4.106814571E-1,3.821347789E0
3.915054750E0,1.805903783E-1,3.661963813E0,-7.772743966E-1,3.747899057E0
3.925088750E0,1.547278512E-1,4.241811724E0,-5.307407282E-1,4.277685488E0
3.935123750E0,2.524770708E-1,4.973788399E0,-4.570840104E-1,5.001124024E0
3.945157750E0,5.031375580E-1,4.627534415E0,-1.095830632E0,4.782056768E0
3.955191750E0,6.728834709E-1,2.864856173E0,-1.377746680E0,3.249362856E0
3.965225750E0,5.027642132E-1,-4.815579700E-1,-1.974076138E0,2.093238288E0
3.975260750E0,-1.637328118E0,-7.045564494E0,-1.705828688E0,7.431734246E0
3.985294750E0,-1.046019986E1,-2.682312649E1,4.446117532E-1,2.879398505E1
3.995328750E0,-2.111480092E1,-5.125802090E1,4.538190129E0,5.562207020E1
4.005362750E0,-2.306191905E1,-6.007794228E1,6.345496075E0,6.466433777E1
4.015396750E0,-1.580969934E1,-5.371220957E1,8.309337831E0,5.660382625E1
4.025431750E0,-8.516256174E0,-4.102719445E1,1.375594671E1,4.410196564E1
4.035465750E0,-7.685391973E0,-2.630479421E1,1.563238954E1,3.154962838E1
4.045499750E0,-4.566925101E0,-1.158772897E1,1.016818406E1,1.607868884E1
4.055533750E0,-2.171295705E0,-3.766050684E0,3.550419404E0,5.612765872E0
4.065568750E0,-2.538611360E0,-1.123381104E0,-1.389762123E0,3.104508255E0
4.075602750E0,-2.539918505E0,-9.501070547E-1,-4.591646544E0,5.332645442E0
4.085636750E0,-5.906871870E-1,1.035384017E0,-7.202106736E0,7.300087181E0
4.095670750E0,5.028404902E0,3.336759220E0,-1.455161008E1,1.575335437E1
4.105704750E0,5.053208790E0,4.607902388E0,-1.238118678E1,1.414430874E1
4.115739750E0,3.071538289E0,6.452205421E0,-7.596703745E0,1.042953547E1
4.125773750E0,3.550387829E0,8.477425985E0,-4.767874022E0,1.035396676E1
4.135807750E0,4.393047911E0,1.026334515E1,-2.306894390E0,1.139986340E1
4.145841750E0,5.635666898E0,1.230099105E1,3.735318303E-2,1.353057713E1
4.155876750E0,7.390447891E0,1.430603872E1,2.205963846E0,1.625262257E1
4.165910750E0,9.073447294E0,1.628037097E1,3.922902828E0,1.904644563E1
4.175944750E0,1.058188392E1,1.722770059E1,4.446597589E0,2.070125999E1
4.185978750E0,1.159962806E1,1.744448962E1,4.457010895E0,2.141790222E1
4.196012750E0,1.147639565E1,1.493579554E1,3.773472555E0,1.921001668E1
4.206047750E0,1.049136201E1,1.055662629E1,2.191440532E0,1.504371786E1
4.216081750E0,9.569495834E0,1.023903594E1,1.401963508E0,1.408469415E1
4.226115750E0,7.758278686E0,9.751534860E0,5.858220112E-1,1.247503538E1
4.236149750E0,6.316243039E0,9.660101949E0,-1.178365982E-1,1.154237329E1
4.246184750E0,5.440670443E0,9.605294827E0,-4.831992835E-1,1.104970883E1
4.256218750E0,4.571506979E0,9.038506672E0,-7.122668803E-1,1.015384671E1
4.266252750E0,3.678469334E0,8.285502825E0,-8.630624789E-1,9.106347816E0
4.276286750E0,3.024136666E0,7.790775756E0,-6.123409249E-1,8.379531662E0
4.286321750E0,2.461648261E0,7.497085317E0,-4.201937807E-1,7.902060695E0
4.296355750E0,1.706219720E0,7.013580809E0,-7.900763637E-1,7.261247975E0
4.306389750E0,1.350350574E0,7.382151861E0,-1.254868028E0,7.608830826E0
4.316423750E0,1.263423089E0,8.432084336E0,-1.525756080E0,8.661652023E0
4.326457750E0,1.674782019E0,1.035618958E1,-1.525269007E0,1.060103783E1
4.336492750E0,1.875455098E0,1.198961746E1,-1.105697370E0,1.218568116E1
4.346526750E0,1.178808470E0,1.123897531E1,-5.113612648E-1,1.131219014E1
4.356560750E0,3.757514334E-1,8.217818965E0,7.242476424E-2,8.226723712E0
4.366594750E0,9.033692367E-1,6.771048828E0,1.299330840E0,6.953519889E0
4.376629750E0,7.833780858E-1,2.752871468E0,2.733455788E0,3.957747224E0
4.386663750E0,-1.983443962E0,-7.251437355E0,2.263895720E0,7.851281265E0
4.396697750E0,-1.329857867E1,-3.061502479E1,6.463500488E0,3.399865844E1
4.406731750E0,-1.940045342E1,-4.819339226E1,1.323695252E1,5.361154319E1
4.416765750E0,-1.288863389E1,-4.807974110E1,1.681529530E1,5.254077030E1
4.426800750E0,-8.745088128E0,-4.917195889E1,1.828420943E1,5.318524628E1
4.436834750E0,-5.721449645E0,-4.379017692E1,1.658761174E1,4.717481790E1
4.446868750E0,-6.429504776E0,-3.366165803E1,1.557732281E1,3.764437194E1
4.456902750E0,-8.172957957E0,-2.171304125E1,1.401970525E1,2.710729675E1
4.466937750E0,-5.766781354E0,-1.179231720E1,9.650341192E0,1.629243988E1
4.476971750E0,-3.046716859E0,-5.293041696E0,4.883217368E0,7.819500359E0
4.487005750E0,-1.811155753E0,-1.363626823E0,9.606551394E-1,2.462239138E0
4.497039750E0,-2.507270869E0,1.054443601E0,-7.801935752E0,8.262472995E0
4.507073750E0,-1.038654950E0,3.509474276E0,-1.375297515E1,1.423163867E1
4.517108750E0,3.222438261E0,5.112397816E0,-7.061536163E0,9.294407606E0
4.527142750E0,5.232228314E0,5.377403569E0,-2.831916176E0,8.019503196E0
4.537176750E0,5.420468313E0,5.736933657E0,-2.081357634E0,8.162471079E0
4.547210750E0,5.101585144E0,6.111409228E0,-1.858178622E0,8.174859114E0
4.557245750E0,4.674519424E0,6.392457402E0,-1.756137108E0,8.111637382E0
4.567279750E0,4.218353865E0,6.880806913E0,-2.010985517E0,8.317696547E0
4.577314000E0,4.039088465E0,7.981883814E0,-2.138140969E0,9.197627501E0
4.587348000E0,4.184258165E0,9.199765863E0,-2.263622217E0,1.035701182E1
4.597383000E0,4.064777330E0,9.670905265E0,-2.284744552E0,1.073633462E1
4.607417000E0,3.708383689E0,9.619368491E0,-2.335018620E0,1.057055683E1
4.617451000E0,3.496306639E0,9.652678324E0,-2.583943361E0,1.058655384E1
4.627485000E0,3.578502996E0,9.875359007E0,-2.907750470E0,1.089878030E1
4.637519000E0,3.553026385E0,9.962984211E0,-3.094420198E0,1.102091136E1
4.647554000E0,3.175388932E0,9.921057336E0,-3.343333537E0,1.094021721E1
4.657588000E0,2.688663193E0,9.829120395E0,-3.777031755E0,1.086768082E1
4.667622000E0,1.968364431E0,9.701942870E0,-5.160387669E0,1.116385932E1
4.677656000E0,1.013422899E0,9.652867774E0,-6.766383335E0,1.183168735E1
4.687691000E0,3.847586305E-1,9.749316427E0,-7.401435978E0,1.224656950E1
4.697725000E0,1.943532987E-1,9.651899475E0,-6.762831151E0,1.178697679E1
4.707759000E0,2.829078266E-1,9.320902630E0,-5.463135445E0,1.080764135E1
4.717793000E0,5.547938345E-1,8.594177924E0,-4.324229398E0,9.636734420E0
4.727828000E0,1.044668080E0,7.884490836E0,-3.507959847E0,8.692658364E0
4.737862000E0,1.240391345E0,7.128099697E0,-2.997695849E0,7.831638167E0
4.747896000E0,1.336281735E0,6.363776810E0,-2.548939882E0,6.984296577E0
4.757930000E0,1.424282038E0,5.386625798E0,-2.108259797E0,5.957270867E0
4.767964000E0,1.722034100E0,4.641492888E0,-2.184150224E0,5.411041477E0
4.777999000E0,1.895961137E0,3.768627552E0,-2.456684268E0,4.881856189E0
4.788033000E0,3.126921946E0,4.423236208E0,-2.934559661E0,6.160706113E0
4.798067000E0,4.076702142E0,3.378209547E0,-2.038860071E0,5.673513064E0
4.808101000E0,3.645299249E0,-2.020187865E0,1.282850755E0,4.360627441E0
4.818136000E0,3.584076562E0,-1.126045798E1,6.705873424E0,1.358720932E1
4.828170000E0,3.792730359E0,-2.399002187E1,1.331543385E1,2.769849692E1
4.838204000E0,1.345556003E0,-3.790623608E1,1.851439911E1,4.220753758E1
4.848238000E0,-2.960669233E0,-4.323978085E1,2.327555059E1,4.919548216E1
4.858272000E0,-7.077444098E0,-3.579507782E1,2.485240432E1,4.414770448E1
4.868307000E0,-9.729384438E0,-2.626849470E1,2.570374254E1,3.801811563E1
4.878341000E0,-9.931022161E0,-1.918532851E1,2.239389572E1,3.111572909E1
4.888375000E0,-8.534448617E0,-1.178456847E1,1.274758969E1,1.934460933E1
4.898409000E0,-6.485898832E0,-5.379322041E0,3.142482557E0,8.993285601E0
4.908444000E0,-5.440692662E0,-1.407057602E0,-4.572054863E-1,5.638260778E0
4.918478000E0,-3.960782553E0,1.679475871E0,-1.510632549E0,4.559654410E0
4.928512000E0,-2.724009027E0,4.239142470E0,-2.745698104E0,5.738415473E0
4.938546000E0,-1.522086660E0,6.462770171E0,-5.534103101E0,8.643520302E0
4.948581000E0,1.161012176E0,9.984817715E0,-1.696361928E1,1.971823809E1
4.958615000E0,3.066065295E0,1.061796124E1,-1.506287659E1,1.868240103E1
4.968649000E0,3.069988192E0,9.845221288E0,-8.453458833E0,1.333469819E1
4.978683000E0,2.914119257E0,9.819333326E0,-5.618096600E0,1.168222613E1
4.988717000E0,2.418350214E0,9.809679573E0,-3.570963011E0,1.071587644E1
4.998752000E0,1.886184593E0,9.712612869E0,-2.240295627E0,1.014452885E1
5.008786000E0,-1.771151588E0,1.755853138E1,-7.852886635E-1,1.766509780E1
5.018820000E0,-1.273613032E1,4.265811855E1,5.740649562E0,4.488740526E1
5.028854000E0,-2.019190622E0,1.776185310E1,1.331356771E0,1.792576545E1
5.038889000E0,-2.788584507E0,1.727756331E1,-5.946020441E-1,1.751125207E1
5.048923000E0,-3.288597167E0,1.696915894E1,-1.405190440E0,1.734190839E1
5.058957000E0,-1.622508350E0,1.398666848E1,-1.753948933E0,1.418928347E1
5.068991000E0,-1.302956991E-2,1.191958185E1,-1.477992514E0,1.201087271E1
5.079025000E0,1.299029709E0,1.091858063E1,-1.136755441E0,1.105418899E1
5.089060000E0,2.741366487E0,1.022772275E1,-8.069594680E-1,1.061944379E1
5.099094000E0,3.658729718E0,1.002265622E1,-7.796332365E-1,1.069802640E1
5.109128000E0,3.924919533E0,9.877285080E0,-9.460841703E-1,1.067055899E1
5.119162000E0,3.950747269E0,9.809428142E0,-1.073894803E0,1.062951243E1
5.129197000E0,3.890933762E0,9.683589630E0,-1.080750809E0,1.049186809E1
5.139231000E0,3.657893566E0,9.283261179E0,-1.101766287E0,1.003857621E1
5.149265000E0,3.298500888E0,8.803226994E0,-1.068610382E0,9.461439730E0
5.159299000E0,3.269585822E0,8.499019752E0,-7.940893078E-1,9.140793512E0
5.169334000E0,3.583275493E0,8.266122814E0,-3.103609975E-1,9.014708735E0
5.179368000E0,3.896000959E0,7.912668568E0,9.801044405E-2,8.820360162E0
5.189402000E0,4.336193971E0,7.333063316E0,6.968045032E-1,8.547627289E0
5.199436000E0,4.696862512E0,5.581788315E0,1.966771065E0,7.555466012E0
5.209470000E0,3.768946810E0,-1.026474030E0,6.249008245E0,7.369444554E0
5.219505000E0,-2.088495331E0,-1.506148027E1,1.270474363E1,1.981465396E1
5.229539000E0,-9.581713006E0,-3.353094236E1,1.762012946E1,3.907175811E1
5.239573000E0,-1.165586541E1,-4.381333657E1,2.258151883E1,5.064970536E1
5.249607000E0,-1.110982668E1,-4.899579865E1,3.041275791E1,5.872778199E1
5.259642000E0,-1.126844995E1,-4.537730304E1,3.544025474E1,5.866932121E1
5.269676000E0,-9.140732959E0,-3.972729292E1,3.293426207E1,5.240683562E1
5.279710000E0,-5.426783305E0,-2.905695466E1,2.287674943E1,3.737783107E1
5.289744000E0,-1.690420982E0,-1.688461638E1,1.023391378E1,1.981617483E1
5.299778000E0,-1.756195726E0,-1.067843782E1,-8.404204811E0,1.370196761E1
5.309813000E0,-4.331672904E-1,-4.718342258E0,-1.538011844E1,1.609342819E1
5.319847000E0,3.219791518E0,8.374557674E-1,-8.035660656E0,8.697139286E0
5.329881000E0,5.687004282E0,2.915181988E0,-3.829069928E0,7.449971829E0
5.339915000E0,6.242235416E0,5.575628273E0,-4.391372391E0,9.451840302E0
5.349950000E0,5.236613141E0,8.291036630E0,-4.886388897E0,1.095628596E1
5.359984000E0,4.952892789E0,9.074237838E0,-4.287777271E0,1.119187086E1
5.370018000E0,5.699177601E0,6.976548053E0,-6.670857373E0,1.120951320E1
5.380052000E0,7.953859863E0,8.200520563E0,-1.276296436E1,1.712908881E1
5.390087000E0,9.045519823E0,9.306865219E0,-1.534099823E1,2.009441205E1
5.400121000E0,7.899090164E0,9.511821238E0,-1.200223692E1,1.723148455E1
5.410155000E0,6.322372091E0,9.293942873E0,-7.993853064E0,1.379316678E1
5.420189000E0,5.411866474E0,9.089749331E0,-5.704715499E0,1.201896920E1
5.430223000E0,4.973842778E0,9.181258256E0,-4.961840783E0,1.156090304E1
5.440258000E0,4.925682186E0,9.512526997E0,-4.628612056E0,1.166938578E1
5.450292000E0,5.219332280E0,9.958881805E0,-4.386789343E0,1.206916223E1
5.460326000E0,5.125506688E0,1.015405368E1,-4.237172836E0,1.213792645E1
5.470360000E0,4.732854463E0,1.020862106E1,-4.030562348E0,1.195245950E1
5.480395000E0,4.335246722E0,1.032648573E1,-3.902650412E0,1.186007386E1
5.490429000E0,3.753253468E0,1.039535774E1,-3.827349384E0,1.169610950E1
5.500463000E0,3.039859537E0,1.022660125E1,-3.791647455E0,1.132257522E1
5.510497000E0,2.466195349E0,1.013688976E1,-3.727554078E0,1.107850680E1
5.520531000E0,1.977052663E0,1.004902833E1,-3.614563360E0,1.086079076E1
5.530566000E0,1.550066172E0,9.867342474E0,-3.559679347E0,1.060370075E1
5.540600000E0,1.233549810E0,9.790047546E0,-3.399535805E0,1.043664313E1
5.550634000E0,8.626344627E-1,9.496921948E0,-3.196859908E0,1.005761294E1
5.560668000E0,5.074052214E-1,9.128783589E0,-3.033939231E0,9.633116688E0
5.570703000E0,1.964345421E-1,8.802306642E0,-2.865917150E0,9.259193802E0
5.580737500E0,2.017801031E-2,8.422131205E0,-2.678417409E0,8.837795031E0
5.590771500E0,-7.335332036E-2,8.093524702E0,-2.460996297E0,8.459729640E0
5.600805500E0,1.862842508E-2,7.602980146E0,-2.039414387E0,7.871776494E0
5.610840500E0,5.596498374E-1,4.961016911E0,-8.650543329E-1,5.066874355E0
5.620874500E0,9.743716110E-1,-5.720336920E0,3.582665044E0,6.819614603E0
5.630908500E0,-1.632024547E0,-2.923536256E1,1.673333722E1,3.372498336E1
5.640942500E0,-1.043083850E0,-5.946174866E1,3.197139873E1,6.752005564E1
5.650977500E0,2.051490934E0,-7.109704356E1,3.735299124E1,8.033831074E1
5.661011500E0,-7.134778386E-1,-6.335583992E1,3.307888008E1,7.147505725E1
5.671045500E0,-7.266312672E0,-4.482835708E1,2.559595965E1,5.212997265E1
5.681079500E0,-8.585392483E0,-2.469186082E1,1.684100434E1,3.109688702E1
5.691113500E0,-6.359474428E0,-1.094968782E1,4.747096526E0,1.352307302E1
5.701148500E0,-8.006388325E0,-2.587978233E0,-1.980801839E1,2.152109379E1
5.711182500E0,-4.093820158E0,3.138633919E0,-1.620901038E1,1.701006772E1
5.721216500E0,-5.503403758E-1,5.266788867E0,-6.044672617E0,8.036168648E0
5.731250500E0,8.456870390E-1,6.471589526E0,-3.457682271E0,7.385947756E0
5.741284500E0,2.909991415E0,1.104887297E1,-6.595176861E0,1.319249793E1
5.751319500E0,4.951330998E0,2.292256821E1,-5.630909604E0,2.411777260E1
5.761353500E0,2.630441590E0,1.891380604E1,-3.209720859E0,1.936371839E1
5.771387500E0,1.850588059E0,1.534676826E1,-4.601760473E0,1.612836544E1
5.781421500E0,2.037466533E0,1.437546973E1,-3.624247811E0,1.496464406E1
5.791456500E0,1.527476916E0,1.108170742E1,-2.632011275E0,1.149194973E1
5.801490500E0,1.466848598E-1,1.182148311E1,-3.451658762E0,1.231596231E1
5.811524500E0,-5.883078088E-1,1.401898370E1,-4.816408251E0,1.483495192E1
5.821558500E0,7.150603876E-2,1.346461737E1,-6.761620193E0,1.506720086E1
5.831593500E0,1.153167406E0,1.272083166E1,-9.246172875E0,1.576835648E1
5.841627500E0,1.937539372E0,1.187737314E1,-8.762730932E0,1.488662168E1
5.851661500E0,2.675868900E0,1.157367929E1,-7.136774626E0,1.385798970E1
5.861695500E0,3.793289353E0,1.112227424E1,-6.020874449E0,1.320397506E1
5.871730500E0,3.625420762E0,1.051326568E1,-5.379976344E0,1.235380817E1
5.881764500E0,3.562693002E0,9.795672567E0,-4.901527046E0,1.151837445E1
5.891798500E0,4.362722788E0,9.003619845E0,-4.420716350E0,1.093806443E1
5.901832500E0,4.900908118E0,8.399763851E0,-4.042091888E0,1.053154499E1
5.911866500E0,4.834152504E0,8.311979603E0,-3.910875106E0,1.038041326E1
5.921901500E0,4.648844007E0,8.128081747E0,-3.810232830E0,1.010917097E1
5.931935500E0,4.457259402E0,7.727999464E0,-3.697061141E0,9.656987013E0
5.941969500E0,4.112126328E0,7.094749517E0,-3.522418258E0,8.924824034E0
5.952003500E0,3.673795947E0,6.103501453E0,-3.081251684E0,7.761676274E0
5.962038500E0,3.332387842E0,4.806382030E0,-2.307558926E0,6.287363927E0
5.972072500E0,2.926299884E0,3.291823368E0,-1.420085199E0,4.627739629E0
5.982106500E0,2.384201013E0,1.466895669E0,-5.131224096E-1,2.845960643E0
5.992140500E0,2.128645822E0,-6.375084740E-1,5.199943498E-1,2.282092069E0
6.002175500E0,2.071895378E0,-3.463925051E0,1.846120348E0,4.438433007E0
6.012209500E0,1.608184279E0,-7.803214538E0,4.460278904E0,9.130744860E0
6.022243500E0,-5.845757503E-1,-1.664589211E1,1.051142497E1,1.969562154E1
6.032277500E0,-5.126667945E0,-3.148288257E1,2.062931596E1,3.798714646E1
6.042311500E0,-7.262809020E0,-4.553920542E1,3.088506558E1,5.550184593E1
6.052346500E0,-6.341204218E0,-5.158574564E1,3.386769754E1,6.203483667E1
6.062380500E0,-4.737150997E0,-4.393433184E1,2.378227497E1,5.018229485E1
6.072414500E0,-5.427692547E0,-2.723761456E1,1.300988994E1,3.066927990E1
6.082448500E0,-5.941818924E0,-1.406356872E1,7.834074388E0,1.715989216E1
6.092483500E0,-5.148914262E0,-6.935275481E0,3.602312858E0,9.358740407E0
6.102517500E0,-6.675867267E0,-2.523405091E0,-6.090661553E0,9.382480225E0
6.112551500E0,-7.188918926E0,5.460124129E-1,-1.218824972E1,1.416093627E1
6.122585500E0,-2.882967923E0,2.489992347E0,-6.571463478E0,7.595768438E0
6.132619500E0,5.548612967E-1,3.426579469E0,-2.789461005E0,4.453134920E0
6.142654500E0,1.389087062E0,4.397819531E0,-1.998253351E0,5.026270580E0
6.152688500E0,1.916359441E0,5.866025560E0,-2.584298580E0,6.690387772E0
6.162722500E0,2.856067808E0,8.262633196E0,-4.567011639E0,9.863357743E0
6.172756500E0,3.221826642E0,9.599727108E0,-4.099330282E0,1.092425907E1
6.182791500E0,3.468681469E0,1.155230888E1,-3.330233728E0,1.251311505E1
6.192825500E0,3.786711528E0,2.134093848E1,-3.263551203E0,2.191861323E1
6.202859500E0,3.888859169E0,2.519294849E1,-2.443620711E0,2.560818544E1
6.212893500E0,2.156755141E0,2.053326492E1,-1.176022710E0,2.067969029E1
6.222928500E0,1.375967518E0,1.697021260E1,-1.553198817E0,1.709660285E1
6.232962500E0,1.567585453E0,1.348158833E1,-2.881980329E0,1.387502644E1
6.242996500E0,2.225297373E0,1.091200135E1,-2.708193186E0,1.146115317E1
6.253030500E0,3.435518693E0,9.700214433E0,-3.579360198E0,1.089535535E1
6.263064500E0,4.851157669E0,8.807888979E0,-5.324514334E0,1.137818491E1
6.273099500E0,4.927929271E0,9.384991622E0,-6.453747917E0,1.241021421E1
6.283133500E0,4.144992358E0,9.649736590E0,-6.957844564E0,1.259801488E1
6.293167500E0,3.487784615E0,9.634024537E0,-7.311474811E0,1.258716546E1
6.303201500E0,3.020985894E0,9.426775240E0,-7.095092749E0,1.217911279E1
6.313236500E0,3.147163253E0,8.936333011E0,-6.349646428E0,1.140529237E1
6.323270500E0,3.535884980E0,8.091172952E0,-5.414839783E0,1.035809115E1
6.333304500E0,3.766626635E0,6.978702167E0,-4.857139955E0,9.299546693E0
6.343338500E0,3.655018491E0,6.203819209E0,-4.434622491E0,8.456501025E0
6.353373500E0,3.569446244E0,5.450635267E0,-3.874189675E0,7.580218793E0
6.363407500E0,3.461232408E0,4.591488084E0,-3.289709892E0,6.624506305E0
6.373441500E0,3.233040432E0,3.432966968E0,-2.547106780E0,5.359623642E0
6.383475500E0,3.052122025E0,2.037707877E0,-1.642125904E0,4.020482525E0
6.393509500E0,3.177640987E0,-6.778852522E-2,-4.940797824E-1,3.216537324E0
6.403544500E0,3.843626863E0,-3.482670055E0,1.407306109E0,5.374287735E0
6.413578500E0,3.147057418E0,-1.113825585E1,6.134281197E0,1.309939386E1
6.423612500E0,-2.252932191E-1,-2.620320703E1,1.515855575E1,3.027277040E1
6.433646500E0,-4.749257657E0,-4.595028807E1,2.688904332E1,5.345095951E1
6.443681500E0,-8.870882787E0,-5.897605086E1,3.342429616E1,6.836702941E1
6.453715500E0,-1.230948121E1,-5.320400233E1,2.995116467E1,6.228371743E1
6.463749500E0,-1.474092305E1,-3.437673976E1,2.229004683E1,4.354194801E1
6.473783500E0,-1.233378224E1,-1.845101295E1,1.400379614E1,2.624249168E1
6.483817500E0,-9.738697883E0,-8.377264935E0,8.222284484E-1,1.287232939E1
6.493852500E0,-9.278848286E0,-2.287523734E0,-1.238065118E1,1.564002282E1
6.503886500E0,-4.562073666E0,1.364838367E0,-1.017031011E1,1.122989348E1
6.513920500E0,-1.314866307E0,3.244250422E0,-5.002561378E0,6.105706719E0
6.523954500E0,2.186393800E-1,4.943409190E0,-4.370353990E0,6.601900605E0
6.533989500E0,2.688107708E0,8.794735667E0,-9.830105066E0,1.346121332E1
6.544023500E0,3.608223516E0,1.020062909E1,-7.364163487E0,1.308827776E1
6.554057500E0,4.612812295E0,1.237618858E1,-4.551607150E0,1.397015421E1
6.564091500E0,5.882741581E0,1.469420730E1,-3.886289903E0,1.629814793E1
6.574126500E0,5.817186107E0,1.403340644E1,-3.053522433E0,1.549516537E1
6.584160167E0,6.025836396E0,1.458424222E1,-2.491819017E0,1.597560602E1
6.594194167E0,7.249967365E0,1.769925982E1,-1.953133311E0,1.922603846E1
6.604228167E0,7.613732007E0,1.889726777E1,-7.371643976E-1,2.038673725E1
6.614262167E0,8.165120350E0,2.242446496E1,9.951516652E-1,2.388547981E1
6.624297167E0,4.924881703E0,2.766916714E1,2.664833450E0,2.823010109E1
6.634331167E0,3.458238049E0,2.240017095E1,3.103934788E0,2.287709510E1
6.644365167E0,4.793854371E0,1.506512660E1,2.106392196E0,1.594916823E1
6.654399167E0,4.442641947E0,1.326910285E1,2.211589453E0,1.416676695E1
6.664434167E0,4.151986505E0,1.097227678E1,2.009904951E0,1.190250258E1
6.674468167E0,3.634837995E0,8.436719424E0,1.192167749E0,9.263452155E0
6.684502167E0,3.253204263E0,6.411590077E0,5.369012815E-1,7.209721789E0
6.694536167E0,3.455617035E0,6.253200699E0,9.649484575E-2,7.145146558E0
6.704571167E0,3.759790947E0,6.217825629E0,-2.367713948E-2,7.266219383E0
6.714605167E0,3.583419043E0,4.927743915E0,-8.123653650E-2,6.093451526E0
6.724639167E0,3.582970853E0,4.474256088E0,2.726205826E-2,5.732136678E0
6.734673167E0,3.833150407E0,5.435445371E0,6.691834259E-1,6.684677620E0
6.744707167E0,3.476408564E0,4.873749556E0,9.852827346E-1,6.067094305E0
6.754742167E0,3.062520713E0,3.784924911E0,9.734275049E-1,4.965103303E0
6.764776167E0,2.752737567E0,1.824628907E0,1.093934526E0,3.479012433E0
6.774810167E0,1.969921106E0,-1.111322392E0,1.850249067E0,2.922164991E0
6.784844167E0,-2.184578240E-2,-6.532464303E0,3.818553418E0,7.566697914E0
6.794879167E0,-5.098128271E0,-1.704872902E1,7.618133206E0,1.935680827E1
6.804913167E0,-1.258444886E1,-3.273664255E1,1.408890237E1,3.779620733E1
6.814947167E0,-1.733365331E1,-4.763377630E1,2.158852128E1,5.509533949E1
6.824981167E0,-1.759128865E1,-5.524772115E1,2.680806874E1,6.387829583E1
6.835016167E0,-1.404842209E1,-4.864625678E1,2.375978424E1,5.593159938E1
6.845050167E0,-7.887865849E0,-3.223693482E1,1.391458400E1,3.598685930E1
6.855084167E0,-3.926746788E0,-1.862199957E1,6.490011764E0,2.010767170E1
6.865118167E0,-1.481760168E0,-9.939745038E0,2.184850720E0,1.028434331E1
6.875152167E0,-1.226792037E0,-5.011433358E0,-4.990507928E0,7.178067454E0
6.885187167E0,-5.213576866E0,-4.323808399E0,-2.584906456E1,2.672172976E1
6.895221167E0,-2.214393777E0,-1.197531400E0,-1.974364522E1,1.990349587E1
6.905255167E0,2.672668427E0,1.314556405E0,-7.447138985E0,8.020666689E0
6.915289167E0,4.201589020E0,1.907440683E0,-2.686473118E0,5.339364950E0
6.925324167E0,4.543534192E0,2.807493818E0,-1.533655230E0,5.556781699E0
6.935358167E0,3.731153039E0,3.746083612E0,-1.825491956E0,5.593484273E0
6.945392167E0,2.772380995E0,4.692167197E0,-2.687170984E0,6.076464209E0
6.955426167E0,3.269967645E0,7.475685092E0,-2.354307123E0,8.492427099E0
6.965461167E0,3.717226726E0,9.620308138E0,-1.897762957E0,1.048663947E1
6.975495167E0,4.261533506E0,1.409538576E1,-1.933065667E0,1.485184535E1
6.985529167E0,4.833613391E0,1.738431943E1,-1.981921347E0,1.815231095E1
6.995563167E0,2.519596800E0,2.374584214E1,2.806647433E-1,2.388079060E1
7.005597167E0,5.412223738E-1,2.317964923E1,-7.786473960E-2,2.318609763E1
7.015632167E0,1.873897254E0,1.920176270E1,-1.412843130E0,1.934464544E1
7.025666167E0,4.390377780E0,1.716761928E1,-2.686357636E0,1.792258593E1
7.035700167E0,5.414941524E0,1.402575595E1,-2.414889832E0,1.522744609E1
7.045734167E0,5.351723768E0,8.798440463E0,-2.674036383E0,1.063973554E1
7.055769167E0,5.611633673E0,7.744842369E0,-3.423255912E0,1.015833140E1
7.065803167E0,5.568643774E0,7.861945726E0,-3.482481775E0,1.024439668E1
7.075837167E0,5.182451552E0,7.429782110E0,-3.480579675E0,9.704323839E0
7.085871167E0,4.950154538E0,6.996364852E0,-3.430634513E0,9.231598142E0
7.095906167E0,4.708201432E0,6.530532383E0,-3.143905477E0,8.642867324E0
7.105940167E0,4.347709185E0,6.041406362E0,-2.961127947E0,8.010583294E0
7.115974167E0,4.056880081E0,5.606456548E0,-2.784848721E0,7.459625554E0
7.126008167E0,3.813221927E0,5.153224829E0,-2.484090167E0,6.875106658E0
7.136042167E0,3.659419105E0,4.881388943E0,-2.414101335E0,6.561035852E0
7.146077167E0,3.358843569E0,4.680251157E0,-2.387117896E0,6.235776845E0
7.156111167E0,3.307878653E0,4.265194740E0,-2.358746037E0,5.890469439E0
7.166145167E0,3.468668897E0,3.228106844E0,-1.811038224E0,5.072691313E0
7.176179167E0,3.955058421E0,7.276719546E-1,-2.008261299E-1,4.026453120E0
7.186214167E0,3.847652671E0,-5.037639409E0,3.748716028E0,7.364449318E0
7.196248167E0,9.742072311E-1,-1.792520910E1,1.213840337E1,2.167032620E1
7.206282167E0,-5.564502191E0,-3.891275707E1,2.469465813E1,4.642189664E1
7.216316167E0,-1.379920908E1,-5.857873022E1,3.591882829E1,7.008600453E1
7.226351167E0,-1.905907309E1,-5.936421710E1,3.825841154E1,7.315097123E1
7.236385167E0,-1.733886084E1,-3.756869035E1,2.737864940E1,4.961484690E1
7.246419167E0,-1.210614311E1,-1.921962477E1,1.494548204E1,2.719044153E1
7.256453167E0,-1.050996434E1,-1.005885048E1,2.727346618E0,1.480129194E1
7.266487167E0,-1.431020662E1,-4.630279682E0,-1.833106317E1,2.371179834E1
7.276522167E0,-8.978469801E0,-5.518280536E-1,-1.463493057E1,1.717843494E1
7.286556167E0,-3.525028747E0,1.475368284E0,-5.653212054E0,6.823587456E0
7.296590167E0,-6.943647525E-1,4.032510640E0,-6.166440883E0,7.400559278E0
7.306624167E0,2.102017601E0,8.076555498E0,-1.032396207E1,1.327529358E1
7.316659167E0,2.924249558E0,9.102348912E0,-5.204327740E0,1.088526612E1
7.326693167E0,7.577596214E0,1.930800193E1,-3.030829974E0,2.096198543E1
7.336727167E0,9.536544435E0,2.293353993E1,-1.349394116E0,2.487395823E1
7.346761167E0,7.925444734E0,2.083877024E1,-1.218478246E-1,2.229533284E1
7.356796167E0,6.209965217E0,1.926700242E1,8.422727036E-1,2.026056449E1
7.366830167E0,3.867218332E0,1.678102594E1,2.177568013E0,1.735799561E1
7.376864167E0,2.358015866E0,1.478254470E1,3.359256967E0,1.534172330E1
7.386898167E0,1.808598034E0,1.376786450E1,4.308899753E0,1.453931693E1
7.396932167E0,1.450402427E0,1.290016693E1,5.092324909E0,1.394452391E1
7.406967167E0,2.131973180E0,1.240467622E1,4.982560977E0,1.353688353E1
7.417001167E0,3.368450544E0,1.181583003E1,3.907125871E0,1.289286356E1
7.427035167E0,3.878503166E0,1.073703394E1,2.998627603E0,1.180332378E1
7.437069167E0,3.951622013E0,9.509702792E0,2.377170321E0,1.056885530E1
7.447104167E0,3.860757159E0,7.812651359E0,1.919887651E0,8.923504676E0
7.457138167E0,4.105305844E0,6.185486434E0,1.583733562E0,7.590914997E0
7.467172167E0,4.716198669E0,5.286263604E0,1.497632142E0,7.240857325E0
7.477206167E0,4.864218887E0,4.463390207E0,1.391453723E0,6.746748920E0
7.487241167E0,4.721336617E0,3.756197541E0,1.306504204E0,6.173086153E0
7.497275167E0,4.623863533E0,3.256723117E0,1.249261132E0,5.791978315E0
7.507309167E0,4.306024385E0,3.015704396E0,1.189203211E0,5.389853735E0
7.517343167E0,3.903022880E0,3.040973724E0,1.115480347E0,5.072021805E0
7.527377167E0,3.745089000E0,3.267503044E0,1.085105231E0,5.087211528E0
7.537412167E0,3.488356765E0,3.404931323E0,8.994315755E-1,4.956931247E0
7.547446167E0,2.983301174E0,3.218698089E0,5.887444496E-1,4.427947979E0
7.557480167E0,2.109901695E0,2.360559551E0,3.219313216E-1,3.182383749E0
7.567514167E0,1.288417304E0,9.511028355E-1,3.299683195E-1,1.635082520E0
7.577549167E0,8.806435946E-1,-1.007081739E0,5.675693063E-1,1.453231464E0
7.587583292E0,2.790909652E-1,-4.605936554E0,9.681077812E-1,4.714846337E0
7.597617292E0,-2.024271268E0,-1.134646467E1,1.639705596E0,1.164167381E1
7.607651292E0,-7.173371764E0,-2.384444491E1,4.497259035E0,2.530296730E1
7.617686292E0,-1.540359267E1,-4.263689549E1,1.224313402E1,4.695817134E1
7.627720292E0,-2.296667025E1,-5.907611309E1,2.163451080E1,6.697392879E1
7.637754292E0,-2.276862272E1,-5.723666325E1,2.543417888E1,6.664340369E1
7.647788292E0,-1.361151229E1,-3.749448918E1,1.859083157E1,4.400828336E1
7.657822292E0,-4.640160892E0,-2.115079404E1,5.098086755E0,2.224584613E1
7.667857292E0,3.342323431E0,-1.064679737E1,-1.923019303E1,2.223343752E1
7.677891292E0,4.410629026E0,-2.933193752E0,-1.641955224E1,1.725279600E1
7.687925292E0,1.614011907E0,-5.393524343E-1,-5.777982280E0,6.023372371E0
7.697959292E0,4.456543118E-1,2.886343521E-1,-2.241019074E0,2.303059713E0
7.707994292E0,-4.759925902E-2,1.783632324E0,-1.829420700E0,2.555462787E0
7.718028292E0,-2.333682239E-2,3.381349502E0,-1.653486752E0,3.764052006E0
7.728062292E0,2.600381054E-1,5.044470711E0,-1.467823622E0,5.260115090E0
7.738096292E0,6.188305669E-1,6.791845620E0,-1.459142261E0,6.974325368E0
7.748131292E0,1.023794397E0,9.202872489E0,-9.328045589E-1,9.306510698E0
7.758165292E0,1.264458485E0,1.125456398E1,-1.664452328E-1,1.132659568E1
7.768199292E0,1.007226458E0,1.355920427E1,7.581400412E-1,1.361768343E1
7.778233292E0,-4.996566374E-1,1.495259810E1,1.697749590E0,1.505696518E1
7.788267292E0,-2.279287931E0,1.598357215E1,3.479930050E0,1.651604206E1
7.798302292E0,9.278391764E-1,1.197591627E1,-3.485086709E-1,1.201685958E1
7.808336292E0,2.916499951E0,8.784402468E0,-3.656301662E0,9.951896328E0
7.818370292E0,3.016017222E0,9.534669818E0,-3.737462185E0,1.067590333E1
7.828404292E0,3.578832779E0,9.874104195E0,-4.075656660E0,1.126574254E1
7.838439292E0,4.265416057E0,1.042150883E1,-4.512746555E0,1.213122013E1
7.848473292E0,4.606849012E0,1.089835511E1,-5.160604016E0,1.290848697E1
7.858507292E0,4.149495299E0,1.062948610E1,-5.375691504E0,1.261357781E1
7.868541292E0,4.326318609E0,1.088562689E1,-6.054015298E0,1.318578806E1
7.878576292E0,4.777349435E0,1.138038086E1,-7.084633834E0,1.423123932E1
7.888610292E0,4.878473521E0,1.182098259E1,-9.027135007E0,1.565325205E1
7.898644292E0,4.345993320E0,1.220867287E1,-1.071873683E1,1.681757029E1
7.908678292E0,3.172736635E0,1.170699346E1,-1.086457341E1,1.628370072E1
7.918712292E0,1.708141700E0,1.019401472E1,-9.134289912E0,1.379387315E1
7.928747292E0,6.560660747E-1,9.399187492E0,-8.189616675E0,1.248378827E1
7.938781292E0,4.149302633E-1,9.241780447E0,-6.609473303E0,1.136960027E1
7.948815292E0,8.250345272E-1,9.045209336E0,-3.973735013E0,9.913983248E0
7.958849292E0,1.536593017E0,7.870454594E0,-1.264407760E0,8.118121741E0
7.968884292E0,1.122314923E1,-4.304246539E-1,2.098584409E0,1.142577790E1
7.978918292E0,6.077297741E0,-1.268085074E0,2.429437704E0,6.666614969E0
7.988952292E0,2.995734401E0,-4.445819324E-1,1.194234155E1,1.232037335E1
7.998986292E0,3.323648009E0,2.925397074E-1,1.397015828E1,1.436306158E1
8.009021292E0,2.943533675E0,1.021716735E0,1.271459268E1,1.309080451E1
8.019055292E0,2.581113017E0,1.915296417E0,1.102795982E1,1.148679252E1
8.029089292E0,7.034697443E-1,2.076595954E0,6.015090383E0,6.402220924E0
8.039123292E0,-7.120955569E-1,-4.846441305E-1,1.243397252E-1,8.702990191E-1
8.049158292E0,-9.807855241E0,-1.891880424E1,3.207255673E0,2.154998068E1
8.059192292E0,-3.477769270E1,-5.067899686E1,7.550182128E0,6.192619706E1
8.069226292E0,-4.660659359E1,-6.577034705E1,1.331962747E1,8.170266576E1
8.079260292E0,-3.552079195E1,-4.758915503E1,2.087906925E1,6.294751679E1
8.089294292E0,-1.777224009E1,-2.298260274E1,1.393998665E1,3.222383861E1
8.099329292E0,-8.467866372E0,-9.383249736E0,3.085388589E-1,1.264299540E1
8.109363292E0,-3.475785543E0,-1.038155013E0,-3.766642539E1,3.784069836E1
8.119397292E0,-5.954281095E-1,9.318170226E0,-3.568558987E1,3.688691035E1
8.129431292E0,1.506790051E0,1.194614692E1,-1.317325179E1,1.784699989E1
8.139466292E0,2.019359899E0,9.002957355E0,-6.860866154E0,1.149793633E1
8.149500292E0,2.934582465E0,9.075482125E0,-4.820972003E0,1.068727847E1
8.159534292E0,3.390495425E0,9.106189363E0,-2.951464546E0,1.015525908E1
8.169568292E0,3.776163151E0,9.250709730E0,-2.052136613E0,1.020030898E1
8.179603292E0,3.871793486E0,9.421043215E0,-1.648504486E0,1.031815909E1
8.189637292E0,3.693653676E0,9.631400891E0,-1.769182100E0,1.046599092E1
8.199671292E0,1.260334122E1,3.924349897E1,-3.697007931E0,4.138314016E1
8.209705292E0,8.464058080E0,2.460478175E1,-1.154134681E0,2.604549080E1
8.219739292E0,2.279443759E0,8.322709828E0,5.658297231E-1,8.647746875E0
8.229774292E0,4.184867738E0,1.630081634E1,1.185995136E-1,1.682984840E1
8.239808292E0,6.437913072E0,1.820409439E1,1.040712950E0,1.933698169E1
8.249842292E0,9.680037446E0,1.709658731E1,1.769196718E0,1.972628905E1
8.259876292E0,1.026419417E1,1.390888999E1,1.510391936E0,1.735200814E1
8.269911292E0,9.244741477E0,1.052839359E1,1.279029892E0,1.406940774E1
8.279945292E0,7.972922371E0,8.280616307E0,1.652219076E0,1.161317895E1
8.289979292E0,6.531075590E0,6.937563497E0,2.515068716E0,9.854456163E0
8.300013292E0,6.169302510E0,6.596872553E0,2.585650456E0,9.394924652E0
8.310048292E0,6.450113872E0,5.947076740E0,2.026605184E0,9.004377785E0
8.320082292E0,5.988489060E0,4.610996150E0,1.465790545E0,7.698819951E0
8.330116292E0,4.691832152E0,2.700639460E0,1.282398473E0,5.563388201E0
8.340150292E0,2.892414977E0,3.753339422E-1,9.901487875E-1,3.080151715E0
8.350184292E0,1.098175804E0,-1.997507685E0,8.127033341E-1,2.420023503E0
8.360219292E0,-8.217647642E-1,-4.467121900E0,6.258918107E-1,4.584999014E0
8.370253292E0,-3.188081776E0,-7.799913200E0,1.171530586E0,8.507349485E0
8.380287292E0,-7.420758687E0,-1.345363864E1,2.970604237E0,1.564904284E1
8.390321292E0,-1.587754926E1,-2.414965787E1,7.245658552E0,2.979600835E1
8.400356292E0,-2.891888085E1,-3.911339843E1,1.545044407E1,5.103798417E1
8.410390292E0,-3.816963677E1,-4.935141695E1,2.364050104E1,6.671848931E1
8.420424292E0,-3.211856379E1,-4.244934956E1,2.072502085E1,5.712333943E1
8.430458292E0,-1.622743261E1,-2.418197660E1,9.467401110E0,3.062236512E1
8.440493292E0,-6.830138451E0,-1.316168248E1,3.624415041E0,1.526489638E1
8.450527292E0,-2.016324610E0,-7.345670498E0,8.801886812E-1,7.668061822E0
8.460561292E0,8.010705909E-1,-3.936479478E0,-1.253613800E0,4.208221992E0
8.470595292E0,2.866330841E0,-2.354531656E0,-4.655484690E0,5.952580071E0
8.480630292E0,3.511804392E0,-2.082889897E0,-1.265417340E1,1.329658997E1
8.490664292E0,1.532932368E0,-1.390000690E0,-1.193256735E1,1.211066254E1
8.500698292E0,1.082373996E0,-1.104509801E0,-9.680350272E0,9.803094244E0
8.510732292E0,2.384565002E0,-2.716341573E-1,-9.229347512E0,9.536288107E0
8.520766292E0,4.394021472E0,1.697654865E0,-7.143511788E0,8.556822856E0
8.530801292E0,5.406211631E0,3.394522694E0,-5.849899524E0,8.658593013E0
8.540835292E0,5.693998722E0,4.728453264E0,-4.953366998E0,8.905938262E0
8.550869292E0,5.768413897E0,5.849942209E0,-4.138579717E0,9.199144787E0
8.560903292E0,6.038350022E0,6.844529618E0,-3.554902757E0,9.795233039E0
8.570938292E0,5.912536653E0,7.556701189E0,-3.256417600E0,1.013242706E1
8.580972375E0,5.483310678E0,8.202060719E0,-3.301994600E0,1.040402155E1
8.591006375E0,5.043505336E0,9.254192916E0,-3.425555622E0,1.108203338E1
8.601040375E0,4.156611945E0,1.244516000E1,-2.757599527E0,1.340760178E1
8.611075375E0,3.033616172E0,1.540547197E1,-3.094796759E-1,1.570436791E1
8.621109375E0,1.691803410E0,1.710805253E1,1.602958623E0,1.726606893E1
8.631143375E0,3.692334251E0,1.362109588E1,-3.304691336E0,1.449443238E1
8.641177375E0,4.418642051E0,9.129578226E0,-5.333151256E0,1.145932365E1
8.651212375E0,4.247972351E0,7.768613055E0,-6.732923228E0,1.112334811E1
8.661246375E0,4.361344600E0,8.119968150E0,-6.659124350E0,1.137097826E1
8.671280375E0,4.483791727E0,8.197002878E0,-6.400156431E0,1.132507160E1
8.681314375E0,4.573756987E0,8.483080827E0,-6.247736476E0,1.148547449E1
8.691348375E0,4.677048637E0,8.912609687E0,-6.675133442E0,1.207753294E1
8.701383375E0,4.408302419E0,9.265060551E0,-7.312111573E0,1.259926398E1
8.711417375E0,3.710603877E0,9.205117820E0,-7.758175190E0,1.259730358E1
8.721451375E0,3.402314694E0,9.190213267E0,-7.643576195E0,1.242819465E1
8.731485375E0,2.988886142E0,9.056076971E0,-7.624545262E0,1.220981822E1
8.741520375E0,2.560553037E0,8.650807039E0,-7.129070919E0,1.149854541E1
8.751554375E0,2.200938457E0,7.938942447E0,-6.234794834E0,1.033167963E1
8.761588375E0,1.815631504E0,7.044682733E0,-5.253029199E0,8.973203906E0
8.771622375E0,1.541064091E0,6.064794640E0,-3.981035846E0,7.416553038E0
8.781657375E0,1.435343800E0,4.493274157E0,-1.943861235E0,5.101795858E0
8.791691375E0,2.036013646E-1,4.877911019E-1,1.849049218E0,1.923116400E0
8.801725375E0,-3.144331446E0,-1.131187956E1,1.005426393E1,1.545747918E1
8.811759375E0,-8.934025115E0,-3.272310040E1,2.740167573E1,4.360584752E1
8.821793375E0,-1.674157946E1,-5.698174335E1,3.808439138E1,7.055225316E1
8.831828375E0,-2.249719497E1,-6.433503804E1,3.872779093E1,7.838981242E1
8.841862375E0,-1.871481710E1,-4.903917096E1,2.922979601E1,6.007882857E1
8.851896375E0,-1.235005738E1,-2.768897283E1,1.653901436E1,3.453609893E1
8.861930375E0,-8.421584491E0,-1.329054342E1,6.511841174E0,1.702837941E1
8.871965375E0,-7.580456672E0,-5.309618552E0,-2.702797375E0,9.641601847E0
8.881999375E0,-1.122333868E1,4.037584269E-1,-1.704498446E1,2.041219849E1
8.892033375E0,-5.824367073E0,8.872945685E0,-2.272899497E1,2.508504792E1
8.902067375E0,-1.512158965E0,1.240228822E1,-1.607200544E1,2.035712987E1
8.912102375E0,1.043188881E0,1.162858698E1,-1.016570718E1,1.548075840E1
8.922136375E0,2.497176528E0,1.032189449E1,-6.929515389E0,1.268051971E1
8.932170375E0,2.953768349E0,9.101725599E0,-4.301853274E0,1.049152505E1
8.942204375E0,3.522064209E0,8.621537631E0,-2.669674360E0,9.688292347E0
8.952238375E0,4.017841438E0,8.690351758E0,-1.900418762E0,9.760986373E0
8.962273375E0,4.162119437E0,8.724692456E0,-1.897810904E0,9.851151348E0
8.972307375E0,4.003325140E0,8.833907334E0,-2.162871037E0,9.936928202E0
8.982341375E0,3.729564058E0,8.958719076E0,-2.462435296E0,1.001158744E1
8.992375375E0,3.906820354E0,1.036194675E1,-2.781753205E0,1.141802683E1
9.002410375E0,5.210231674E0,1.501302323E1,-2.926169199E0,1.615858430E1
9.012444375E0,4.851410561E0,1.472698094E1,-3.055151467E0,1.580361043E1
9.022478375E0,6.130783392E0,1.655023517E1,-3.235334587E0,1.794336031E1
9.032512375E0,6.977469574E0,1.683593714E1,-3.653041839E0,1.858705399E1
9.042547375E0,6.928137785E0,1.525258365E1,-3.963913445E0,1.721490665E1
9.052581375E0,7.084171320E0,1.380023352E1,-3.965319408E0,1.601111134E1
9.062615375E0,7.296469687E0,1.281160267E1,-3.661818802E0,1.519159471E1
9.072649375E0,7.228819740E0,1.194549788E1,-3.420093153E0,1.437524927E1
9.082684375E0,7.297028680E0,1.100942882E1,-3.288688383E0,1.361137840E1
9.092718375E0,7.448017237E0,9.538078744E0,-2.968874631E0,1.246042228E1
9.102752375E0,7.421345748E0,7.695839193E0,-2.423182353E0,1.096239601E1
9.112786375E0,7.381788749E0,6.072056882E0,-1.827343184E0,9.731385463E0
9.122820375E0,7.180610032E0,4.623385230E0,-9.452772546E-1,8.592461842E0
9.132855375E0,6.825716786E0,2.859168001E0,2.804961973E-1,7.405668736E0
9.142889375E0,5.890249990E0,6.561283475E-1,1.370051159E0,6.082975385E0
9.152923375E0,4.402596999E0,-2.784454034E0,2.602320868E0,5.823067791E0
9.162957375E0,2.013029703E0,-8.391814561E0,5.251028867E0,1.010188816E1
9.172992375E0,-2.850952663E0,-1.837144638E1,9.107314952E0,2.070220179E1
9.183026375E0,-1.226410565E1,-3.401559935E1,1.437794778E1,3.891265436E1
9.193060375E0,-2.289272636E1,-5.004917689E1,2.059329945E1,5.876292207E1
9.203094375E0,-2.721055598E1,-5.243807322E1,2.402470989E1,6.377579921E1
9.213129375E0,-2.280986196E1,-3.911634542E1,1.993327043E1,4.947437268E1
9.223163375E0,-1.272982000E1,-2.177921770E1,1.092628492E1,2.749120483E1
9.233197375E0,-6.372885017E0,-1.112745721E1,4.911916671E0,1.373174762E1
9.243231375E0,-2.414983095E0,-3.030599009E0,1.777425504E0,4.263322076E0
9.253266375E0,-6.933417821E-1,1.812121128E0,-6.387439907E-1,2.042669747E0
9.263300375E0,-3.390380527E0,2.046362926E0,-4.809390130E0,6.229969082E0
9.273334375E0,-7.813438395E0,1.270763683E0,-1.156760871E1,1.401692659E1
9.283368375E0,-5.886914154E0,1.403422973E0,-1.125169651E1,1.277599423E1
9.293402375E0,-1.936466262E0,1.976303927E0,-8.668501298E0,9.099373250E0
9.303437375E0,6.303181529E-1,1.884063515E0,-9.394973989E0,9.602735680E0
9.313471375E0,2.345813457E0,2.421323231E0,-9.016916998E0,9.626548661E0
9.323505375E0,4.615278943E0,4.571525105E0,-6.973453707E0,9.530409126E0
9.333539375E0,7.533802323E0,8.061539848E0,-6.351786509E0,1.273152756E1
9.343574375E0,9.335708950E0,9.078871756E0,-5.916743724E0,1.430346917E1
9.353608375E0,1.007714057E1,9.743456347E0,-4.813062182E0,1.482056919E1
9.363642375E0,1.002032084E1,1.007882691E1,-4.040870404E0,1.477559526E1
9.373676375E0,9.897453296E0,1.010104867E1,-3.546931540E0,1.457983159E1
9.383711375E0,1.000353114E1,1.019461581E1,-3.261614898E0,1.465056172E1
9.393745375E0,1.008531732E1,1.044279269E1,-3.047619961E0,1.483420143E1
9.403779375E0,1.025924976E1,1.063745586E1,-2.875821749E0,1.505583022E1
9.413813375E0,1.023462714E1,1.033190844E1,-2.575909579E0,1.476926656E1
9.423848375E0,9.587646176E0,9.777325759E0,-1.976531968E0,1.383566901E1
9.433882375E0,8.284915765E0,9.043290864E0,-1.310491567E0,1.233443663E1
9.443916375E0,6.879899426E0,7.876804671E0,-1.046922620E0,1.051061915E1
9.453950375E0,5.594640495E0,6.690290594E0,-1.249091563E0,8.810233835E0
9.463984375E0,4.566027845E0,5.947822845E0,-1.549195814E0,7.656710426E0
9.474019375E0,3.850188316E0,5.424198251E0,-1.987969122E0,6.942470596E0
9.484053375E0,3.368725071E0,4.937012921E0,-2.446265114E0,6.458066134E0
9.494087375E0,2.830914255E0,4.388610751E0,-2.880985132E0,5.964398979E0
9.504121375E0,2.969310248E0,4.475217370E0,-3.501340799E0,6.411221511E0
9.514156375E0,3.245891150E0,5.032635362E0,-3.816358373E0,7.101254768E0
9.524190375E0,2.982378191E0,5.089542219E0,-3.703713518E0,6.965307853E0
9.534224375E0,2.540957555E0,5.137138554E0,-3.231260247E0,6.579338919E0
9.544258375E0,1.833453817E0,4.790467663E0,-2.298285388E0,5.620698271E0
9.554293375E0,2.861744285E-1,2.070970933E0,-6.358537851E-1,2.185206270E0
9.564327375E0,-1.364101325E0,-1.155881099E0,1.099198190E0,2.098825910E0
9.574361375E0,-3.702815970E0,-4.885286112E0,3.021481445E0,6.834194659E0
9.584394625E0,-8.956047483E0,-1.381347863E1,3.783426855E0,1.689192994E1
9.594429625E0,-1.974276814E1,-3.088294421E1,3.618476901E0,3.683241116E1
9.604463625E0,-3.139091289E1,-4.975320019E1,3.796134024E0,5.895066560E1
9.614497625E0,-3.154834566E1,-5.366047809E1,4.255060930E0,6.239271244E1
9.624531625E0,-1.871008671E1,-3.606651726E1,6.446621915E0,4.113903190E1
9.634565625E0,-8.500372798E0,-1.642554681E1,6.757955743E0,1.969073110E1
9.644600625E0,-5.090228097E0,-5.824010392E0,7.560966733E0,1.081654922E1
9.654634625E0,-2.155872796E0,2.230035664E0,8.851196966E0,9.378941002E0
9.664668625E0,-3.869006118E-1,4.702036713E0,6.627985003E0,8.135663865E0
9.674702625E0,-2.182898920E0,-4.408882463E-1,1.855279427E0,2.898532713E0
9.684737625E0,-2.884998661E0,-4.058029643E0,-1.558113402E0,5.217138989E0
9.694771625E0,-1.617354175E0,-2.872742313E0,-3.779959456E0,5.015633201E0
9.704805625E0,2.747121316E-1,7.974140346E-2,-5.246114867E0,5.253907750E0
9.714839625E0,2.778067997E0,3.893108926E0,-5.780027052E0,7.502177792E0
9.724874625E0,5.405112355E0,7.655956505E0,-5.736828407E0,1.098818046E1
9.734908625E0,7.570211765E0,1.010308467E1,-5.211330366E0,1.365790577E1
9.744942625E0,9.148957652E0,1.103566996E1,-4.617348565E0,1.506019075E1
9.754976625E0,1.049847222E1,1.108799435E1,-4.106766186E0,1.581224419E1
9.765011625E0,1.174910511E1,1.088209751E1,-3.705603338E0,1.643754888E1
9.775045625E0,1.282640548E1,1.084207098E1,-3.578684844E0,1.717190048E1
9.785079625E0,1.347553880E1,1.091055124E1,-3.696504486E0,1.772835073E1
9.795113625E0,1.327316433E1,1.079003778E1,-3.807294604E0,1.752419182E1
9.805147625E0,1.227745484E1,1.033171782E1,-3.943848724E0,1.652374755E1
9.815182625E0,1.060060905E1,9.560936095E0,-4.294707391E0,1.490734459E1
9.825216625E0,8.980741444E0,8.932000809E0,-4.632234991E0,1.348673260E1
9.835250625E0,7.738717995E0,8.373249652E0,-4.730641876E0,1.234414997E1
9.845284625E0,6.985703623E0,7.894338132E0,-4.701187112E0,1.154217440E1
9.855319625E0,6.436163000E0,7.241831549E0,-4.589761986E0,1.072073847E1
9.865353625E0,5.788371613E0,6.449408113E0,-4.242571862E0,9.648809613E0
9.875387625E0,4.888399755E0,5.556170493E0,-3.705758289E0,8.276480364E0
9.885421625E0,3.814191395E0,4.703313160E0,-3.094770446E0,6.800501069E0
9.895456625E0,2.749456402E0,4.038838497E0,-2.647297066E0,5.556969378E0
9.905490625E0,1.894264275E0,3.620988280E0,-2.253302320E0,4.666600970E0
9.915524625E0,1.232828410E0,3.404670537E0,-1.801051910E0,4.044185374E0
9.925558625E0,9.485970113E-1,3.510708039E0,-1.197922725E0,3.828828291E0
9.935593625E0,8.868910521E-1,3.636676944E0,-8.288626993E-1,3.833928574E0
9.945627625E0,9.449992195E-1,3.425605323E0,-4.647279292E-1,3.583820225E0
9.955661625E0,1.383646520E0,2.944183009E0,7.410936534E-2,3.253948906E0
9.965695625E0,5.229401770E-1,4.781274086E-1,7.811330473E-1,1.054628411E0
9.975729625E0,-2.135731185E0,-4.131441436E0,1.969291361E0,5.050570710E0
9.985764625E0,-7.630340438E0,-1.221276124E1,3.647465057E0,1.485522244E1
9.995798625E0,-1.642596897E1,-2.626634526E1,5.608915887E0,3.148322232E1
1.000583263E1,-2.692699877E1,-4.413997139E1,7.610316063E0,5.226200578E1
1.001586663E1,-3.083873458E1,-5.250283230E1,9.482329636E0,6.162377403E1
1.002590163E1,-2.570563002E1,-4.114131806E1,8.670928477E0,4.928054857E1
1.003593562E1,-1.460729312E1,-2.148299541E1,5.769064692E0,2.661154283E1
1.004596963E1,-8.286091640E0,-1.203997134E1,3.275716628E0,1.497833582E1
1.005600363E1,-4.519978976E0,-6.363773886E0,1.883210406E0,8.029589619E0
1.006603863E1,-1.100701217E0,-4.557442671E-1,1.080245683E0,1.608159427E0
1.007607263E1,5.751075733E-1,3.311763543E0,6.583964825E-1,3.425202536E0
1.008610663E1,-1.776395810E-1,4.254526495E0,-1.215245102E-1,4.259967103E0
1.009614062E1,-1.883616788E0,2.324878086E0,-3.378076085E-1,3.011176564E0
1.010617562E1,-2.124801277E0,1.538880740E0,-3.353736319E-1,2.644883717E0
1.011620963E1,-9.328495824E-1,2.550435600E0,-4.979488850E-1,2.760956933E0
1.012624363E1,6.601439229E-1,3.994031283E0,-7.032415567E-1,4.108847111E0
1.013627763E1,2.426033748E0,5.636544566E0,-1.044697024E0,6.224762345E0
1.014631163E1,4.429026706E0,7.357440358E0,-1.350447053E0,8.693210766E0
1.015634663E1,6.360164400E0,8.947444475E0,-1.564604250E0,1.108857251E1
1.016638062E1,8.034733288E0,9.862145469E0,-1.794910287E0,1.284681109E1
1.017641463E1,9.140132450E0,9.812191536E0,-2.069795350E0,1.356853628E1
1.018644862E1,9.738348219E0,9.382284946E0,-2.459082211E0,1.374444550E1
1.019648362E1,1.039529459E1,9.186454677E0,-2.772192423E0,1.414701912E1
1.020651763E1,1.128437075E1,9.296004601E0,-3.019426441E0,1.492881981E1
1.021655163E1,1.189351146E1,9.537197569E0,-3.527072641E0,1.564781115E1
1.022658563E1,1.166805218E1,9.575997938E0,-3.988959116E0,1.561265426E1
1.023662063E1,1.060594171E1,9.471281322E0,-4.373168254E0,1.487668545E1
1.024665463E1,9.109338089E0,9.283597979E0,-4.670996184E0,1.381967573E1
1.025668862E1,7.677480690E0,9.016766725E0,-4.856140081E0,1.279952688E1
1.026672263E1,6.335149426E0,8.570141775E0,-5.195117791E0,1.185625140E1
1.027675763E1,5.410198263E0,8.385867358E0,-5.613751534E0,1.145020624E1
1.028679163E1,4.138591119E0,8.382661915E0,-6.378286675E0,1.131722131E1
1.029682563E1,2.331690970E0,8.349981242E0,-7.688950589E0,1.158787861E1
1.030685963E1,2.089777625E0,7.980495685E0,-7.699852722E0,1.128464505E1
1.031689363E1,2.559594386E0,7.425602521E0,-7.064024738E0,1.056368978E1
1.032692862E1,3.365241885E0,6.802588710E0,-6.380082940E0,9.914914241E0
1.033696263E1,4.137104172E0,6.445967612E0,-5.911013453E0,9.675030203E0
1.034699662E1,4.002293691E0,5.839206721E0,-5.488121182E0,8.957352513E0
1.035703063E1,3.253845118E0,4.889435297E0,-5.195210177E0,7.841192151E0
1.036706563E1,2.806643340E0,3.352872393E0,-4.663335162E0,6.392628172E0
1.037709963E1,2.206919281E0,9.524283993E-1,-3.638084954E0,4.360421391E0
1.038713363E1,7.972146446E-1,-3.282315211E0,-1.324681444E0,3.628212405E0
1.039716763E1,-2.859327338E0,-1.261565545E1,4.707704419E0,1.376564551E1
1.040720263E1,-1.017278699E1,-3.036297939E1,1.607036705E1,3.582810084E1
1.041723662E1,-1.824217848E1,-5.257263870E1,3.124158435E1,6.381767787E1
1.042727063E1,-1.971849986E1,-6.167422279E1,3.836260892E1,7.526100422E1
1.043730463E1,-1.737079132E1,-4.968127476E1,3.387926333E1,6.259215555E1
1.044733963E1,-1.213422729E1,-2.671569443E1,2.109175354E1,3.613626804E1
1.045737363E1,-6.116805038E0,-1.165660918E1,9.781827530E0,1.640048753E1
1.046740763E1,-3.197409254E0,-4.338266224E0,4.293710441E0,6.890568128E0
1.047744163E1,-7.803515670E-1,1.815643491E0,1.081046094E0,2.252591954E0
1.048747662E1,3.115530986E0,1.252986160E1,-5.154221195E-1,1.292167268E1
1.049751063E1,2.044306460E-1,1.375650336E1,3.003891559E0,1.408213553E1
1.050754462E1,-3.222861891E0,1.068767175E1,2.747900165E0,1.149626554E1
1.051757863E1,-6.791300660E0,2.886316624E0,-1.017146902E1,1.256627910E1
1.052761263E1,-4.905864218E0,4.570153933E0,-1.187623527E1,1.363813678E1
1.053764763E1,-5.358253938E-1,6.294703066E0,-9.169525818E0,1.113510661E1
1.054768163E1,1.763742435E0,7.294201552E0,-6.575309776E0,9.977517843E0
1.055771563E1,2.596361678E0,8.466867667E0,-4.876494531E0,1.010985366E1
1.056774962E1,2.764750087E0,1.056165139E1,-3.547497550E0,1.147941906E1
1.057778462E1,3.400521061E0,1.164074100E1,-2.576809174E0,1.239799742E1
1.058781954E1,4.067560312E0,1.183626955E1,-1.982573311E0,1.267173709E1
1.059785354E1,4.685944298E0,1.209829732E1,-2.175847470E0,1.315527211E1
1.060788754E1,5.165897500E0,1.187770994E1,-2.719180104E0,1.323481888E1
1.061792254E1,5.539636906E0,1.132109009E1,-3.345977648E0,1.304033069E1
1.062795654E1,5.926217383E0,1.072546698E1,-3.921280811E0,1.286592933E1
1.063799054E1,5.934016399E0,1.023912014E1,-4.520418686E0,1.266831942E1
1.064802454E1,5.793550492E0,9.659276322E0,-5.049374186E0,1.234354188E1
1.065805954E1,5.975464972E0,9.288356443E0,-5.459454623E0,1.232012142E1
1.066809354E1,6.125053706E0,9.049583638E0,-5.848562851E0,1.239422988E1
1.067812754E1,6.028199841E0,8.723173934E0,-6.166922693E0,1.226637242E1
1.068816154E1,5.469169772E0,8.336912130E0,-6.394714428E0,1.184518022E1
1.069819654E1,4.831395834E0,7.944342350E0,-6.486416895E0,1.133704394E1
1.070823054E1,4.408572853E0,7.759595479E0,-6.516587943E0,1.105046402E1
1.071826454E1,4.111603003E0,7.702295104E0,-6.563169787E0,1.092272067E1
1.072829854E1,3.919670195E0,7.582417243E0,-6.374314077E0,1.065310967E1
1.073833254E1,3.451024339E0,7.216845812E0,-5.949330257E0,9.969301027E0
1.074836754E1,2.430488741E0,6.594896779E0,-5.416144881E0,8.873249936E0
1.075840154E1,1.574709993E0,5.956948010E0,-4.948969892E0,7.902989570E0
1.076843554E1,1.076199483E0,5.234325711E0,-4.478042160E0,6.972032169E0
1.077846954E1,9.115910067E-1,4.298973520E0,-3.541862589E0,5.644197205E0
1.078850454E1,1.237420813E0,2.665948514E0,-2.065178096E0,3.592137570E0
1.079853854E1,1.194150979E0,-2.025852063E0,1.425303254E0,2.749829541E0
1.080857254E1,-7.032965206E-1,-1.272678763E1,1.002703227E1,1.621749443E1
1.081860654E1,-5.726041464E0,-3.393625965E1,2.433462401E1,4.215010316E1
1.082864154E1,-1.173551384E1,-6.095879959E1,3.694120225E1,7.223814751E1
1.083867554E1,-1.622306358E1,-7.222851254E1,4.080185211E1,8.452772889E1
1.084870954E1,-1.615021662E1,-5.161275042E1,3.092112653E1,6.229624041E1
1.085874354E1,-1.128622315E1,-2.405702394E1,1.711382256E1,3.160699537E1
1.086877854E1,-5.438432128E0,-1.037963575E1,8.136745566E0,1.426604398E1
1.087881254E1,-1.192474436E0,6.005072933E-1,3.033168275E0,3.314017815E0
1.088884654E1,-2.107205251E0,1.651585237E0,1.610159469E-1,2.682158441E0
1.089888054E1,-2.957322579E0,4.101399027E0,-3.209964103E0,5.989248731E0
1.090891554E1,-9.144508506E0,5.673773788E0,-1.259506156E1,1.656651202E1
1.091894954E1,-9.593229682E0,5.173310600E0,-1.399142577E1,1.773564754E1
1.092898354E1,-1.321877704E0,7.151115507E0,-9.665639847E0,1.209588390E1
1.093901754E1,3.393481013E0,1.020886899E1,-1.276878935E1,1.669666736E1
1.094905154E1,4.331591628E0,1.066022375E1,-8.060962728E0,1.404927672E1
1.095908654E1,5.788103811E0,1.212562136E1,-5.693090649E0,1.459260498E1
1.096912054E1,7.986836990E0,1.619978347E1,-4.614213873E0,1.864171449E1
1.097915454E1,7.905276518E0,1.608989792E1,-3.207756194E0,1.821175202E1
1.098918854E1,7.357573090E0,1.532293267E1,-2.130970382E0,1.713088387E1
1.099922354E1,7.242875862E0,1.501247710E1,-1.704711869E0,1.675529056E1
1.100925754E1,7.123460516E0,1.447441163E1,-1.399816411E0,1.619295427E1
1.101929154E1,7.120913469E0,1.435719718E1,-1.163739318E0,1.606831692E1
1.102932554E1,7.418353143E0,1.458146363E1,-9.016657966E-1,1.638487248E1
1.103936054E1,7.441950751E0,1.458429485E1,-5.176908392E-1,1.638146181E1
1.104939454E1,7.224944206E0,1.403904316E1,2.864485167E-2,1.578909029E1
1.105942854E1,6.627296201E0,1.275198913E1,5.975742569E-1,1.438371916E1
1.106946254E1,5.494627379E0,1.059276091E1,9.390346941E-1,1.196993316E1
1.107949754E1,4.839522587E0,8.755000328E0,1.068617837E0,1.006046488E1
1.108953154E1,4.714258855E0,7.544578156E0,1.099801623E0,8.964064911E0
1.109956554E1,5.000023102E0,6.916081411E0,1.202235485E0,8.618455968E0
1.110959954E1,5.251384962E0,6.534327226E0,1.409524543E0,8.500660901E0
1.111963454E1,5.052890702E0,5.986927854E0,1.691905298E0,8.014833318E0
1.112966854E1,4.410991261E0,5.061959149E0,2.110175929E0,7.037976753E0
1.113970254E1,3.815476028E0,4.243184651E0,2.310788636E0,6.156477680E0
1.114973654E1,3.207994176E0,3.603447803E0,2.236155360E0,5.317560859E0
1.115977154E1,2.361337230E0,2.362491471E0,2.436144168E0,4.134256629E0
1.116980554E1,1.246973702E0,6.837617040E-1,2.840442878E0,3.176568782E0
1.117983954E1,1.607925832E-2,-1.602577969E0,3.447945195E0,3.802215244E0
1.118987354E1,-1.689231951E0,-5.370161793E0,4.585154380E0,7.260563542E0
1.119990754E1,-5.463308523E0,-1.273077543E1,6.645664060E0,1.536506538E1
1.120994254E1,-1.237333631E1,-2.591492526E1,1.011371841E1,3.044618372E1
1.121997654E1,-2.152109119E1,-4.427606183E1,1.522811773E1,5.153079261E1
1.123001054E1,-2.557561835E1,-5.662870251E1,2.023195088E1,6.534718080E1
1.124004454E1,-2.060179896E1,-5.037094683E1,1.924899534E1,5.772512647E1
1.125007954E1,-1.081357283E1,-3.017893009E1,1.122531738E1,3.396629107E1
1.126011354E1,-5.142395786E0,-1.630843643E1,6.258161477E0,1.820917127E1
1.127014754E1,-1.959358111E0,-7.496705832E0,3.136468111E0,8.359253241E0
1.128018154E1,-2.950344220E-1,-3.937910292E0,7.751922762E-1,4.024314332E0
1.129021654E1,1.065372925E0,-3.758186764E0,-8.368169006E0,9.235000798E0
1.130025054E1,6.106674737E0,-4.279627422E0,-2.177272963E1,2.301430952E1
1.131028454E1,8.298221689E0,-2.607496823E0,-1.347272746E1,1.603664267E1
1.132031854E1,6.578137490E0,-1.486625928E0,-7.281894332E0,9.925116349E0
1.133035354E1,3.721703061E0,-1.209186071E0,-3.768990956E0,5.433092808E0
1.134038754E1,1.403317431E0,-1.052756095E-1,-4.604566551E0,4.814812135E0
1.135042154E1,1.771158166E0,4.805676271E0,-4.521837221E0,6.832169313E0
1.136045554E1,3.479553197E0,8.945610203E0,-4.834090231E0,1.074707685E1
1.137049054E1,4.371743580E0,1.042327235E1,-4.592487958E0,1.220031533E1
1.138052454E1,5.283386189E0,1.152699278E1,-4.771984030E0,1.354834173E1
1.139055854E1,5.831448051E0,1.292541053E1,-4.907296786E0,1.500511865E1
1.140059254E1,5.796861770E0,1.550057576E1,-3.486702003E0,1.691237849E1
1.141062654E1,5.266846755E0,1.657440756E1,-1.395672489E0,1.744702159E1
1.142066154E1,5.228735772E0,1.520111412E1,-2.768389978E0,1.631188313E1
1.143069554E1,5.351633720E0,1.472251250E1,-3.662797626E0,1.608752449E1
1.144072954E1,5.385306666E0,1.453137638E1,-3.350540523E0,1.585523728E1
1.145076354E1,5.479678388E0,1.403602132E1,-3.320869412E0,1.542935330E1
1.146079854E1,5.320390878E0,1.309704619E1,-3.730952772E0,1.462050569E1
1.147083254E1,5.102144138E0,1.204626412E1,-4.249665412E0,1.375514486E1
1.148086654E1,4.875342337E0,1.090862399E1,-4.633883906E0,1.281561237E1
1.149090054E1,4.678817127E0,9.635636029E0,-5.104813977E0,1.186574638E1
1.150093554E1,4.505138158E0,8.110648273E0,-5.796935445E0,1.093998838E1
1.151096954E1,4.506504944E0,6.789151223E0,-6.436741290E0,1.038425730E1
1.152100354E1,4.532117795E0,5.600782410E0,-6.541022873E0,9.731075765E0
1.153103754E1,4.681379962E0,4.747395319E0,-6.112081658E0,9.044922490E0
1.154107254E1,4.767134349E0,4.175984355E0,-5.637826860E0,8.482305520E0
1.155110654E1,4.351703126E0,3.108687404E0,-5.256933385E0,7.499107019E0
1.156114054E1,3.228033461E0,2.517913386E0,-5.322142704E0,6.714558124E0
1.157117454E1,1.691224974E0,8.688494682E-1,-4.572394586E0,4.951962597E0
1.158120954E1,8.018231276E-1,-1.475696898E0,-2.275729315E0,2.828346792E0
1.159124300E1,8.952663115E-1,-4.789694661E0,-7.692655385E-2,4.873252960E0
1.160127700E1,-8.734386554E-1,-1.247936153E1,2.922366755E0,1.284669556E1
1.161131100E1,-4.590033882E0,-2.513202986E1,8.934095866E0,2.706483706E1
1.162134600E1,-1.057085373E1,-4.310543055E1,1.792376367E1,4.786525248E1
1.163138000E1,-1.529191670E1,-5.922456220E1,2.856187793E1,6.750683191E1
1.164141400E1,-1.410759942E1,-5.684818827E1,3.125200643E1,6.638846871E1
1.165144800E1,-1.020838133E1,-3.430533824E1,2.279338451E1,4.243354403E1
1.166148200E1,-5.110386373E0,-1.275220899E1,1.389709264E1,1.954134251E1
1.167151700E1,-2.325465732E0,-2.984268596E0,8.255204893E0,9.080862169E0
1.168155100E1,-1.151147193E0,2.270304269E0,4.912272182E0,5.532615957E0
1.169158500E1,-2.256408361E-1,6.424788412E0,3.178652848E0,7.171656284E0
1.170161900E1,-2.382107417E0,5.474651536E0,1.460093018E0,6.146390552E0
1.171165400E1,-4.453911286E0,4.503301547E0,6.050611049E-2,6.334091218E0
1.172168800E1,-5.551161768E0,4.394680746E0,-3.846064568E-1,7.090595036E0
1.173172200E1,-6.597631522E0,4.469375417E0,-2.356684893E0,8.310115643E0
1.174175600E1,-5.939658378E0,5.455359818E0,-5.889380509E0,9.986255313E0
1.175179100E1,-3.503967661E0,7.442282288E0,-7.888802572E0,1.139730499E1
1.176182500E1,-1.277939533E0,8.688367798E0,-9.170368402E0,1.269710680E1
1.177185900E1,6.455475184E-1,9.242135957E0,-8.796298628E0,1.277531519E1
1.178189300E1,2.027474080E0,9.709937183E0,-6.920780818E0,1.209507083E1
1.179192800E1,2.559714254E0,1.047817069E1,-5.053914549E0,1.191160150E1
1.180196200E1,2.829216809E0,1.168880745E1,-4.010831503E0,1.267751777E1
1.181199600E1,3.105312392E0,1.311189110E1,-3.582477933E0,1.394269707E1
1.182203000E1,3.109770893E0,1.380742793E1,-3.674129530E0,1.462241324E1
1.183206500E1,2.880225579E0,1.381641627E1,-3.777481990E0,1.461021657E1
1.184209900E1,2.608210768E0,1.336462998E1,-3.964186510E0,1.418206165E1
1.185213300E1,2.442148382E0,1.281220610E1,-3.909465927E0,1.361619028E1
1.186216700E1,2.141658508E0,1.221234025E1,-4.118996222E0,1.306499465E1
1.187220100E1,1.574455785E0,1.141574014E1,-4.924733768E0,1.253200051E1
1.188223600E1,1.533632718E0,1.088704075E1,-5.862932383E0,1.246008273E1
1.189227000E1,1.979991181E0,1.074404124E1,-7.338418781E0,1.316081979E1
1.190230400E1,2.342487853E0,1.070412581E1,-8.842788670E0,1.408049964E1
1.191233800E1,2.622920609E0,1.046265686E1,-1.000407844E1,1.471150864E1
1.192237300E1,3.147836852E0,9.806390514E0,-1.007536302E1,1.440788367E1
1.193240700E1,3.724621699E0,8.903546503E0,-9.488745786E0,1.353448350E1
1.194244100E1,3.275756097E0,8.002165466E0,-8.485044907E0,1.211450441E1
1.195247500E1,2.666664214E0,7.362242677E0,-7.369148823E0,1.075258432E1
1.196251000E1,1.981389396E0,6.629568429E0,-6.215254024E0,9.300885123E0
1.197254400E1,1.512486117E0,6.229491409E0,-5.469265081E0,8.426567391E0
1.198257800E1,1.423210536E0,5.696428825E0,-5.011433358E0,7.719410203E0
1.199261200E1,1.524292961E0,4.633488050E0,-4.354226199E0,6.538498783E0
1.200264700E1,1.566424634E0,2.440796798E0,-2.946928861E0,4.134678326E0
1.201268100E1,1.024877302E0,-2.499691708E0,7.567466497E-1,2.805618935E0
1.202271500E1,-2.034093713E0,-1.435058515E1,9.768415772E0,1.747852334E1
1.203274900E1,-9.151701751E0,-3.767448519E1,2.329764137E1,4.523163244E1
1.204278400E1,-1.557382266E1,-6.564747132E1,3.701050345E1,7.695395902E1
1.205281800E1,-1.772457476E1,-7.359572253E1,4.279138361E1,8.695742313E1
1.206285200E1,-1.540218817E1,-5.300205354E1,3.360261753E1,6.461873555E1
1.207288600E1,-9.364776628E0,-2.542078642E1,1.780823555E1,3.241988089E1
1.208292100E1,-5.281898657E0,-1.125542001E1,7.777973278E0,1.466559925E1
1.209295500E1,-2.967361664E0,-4.074532825E0,2.865389439E0,5.798060850E0
1.210298900E1,-4.924798672E0,3.940567267E-1,-6.297247775E0,8.004014755E0
1.211302300E1,-6.986420492E0,3.347985874E0,-1.311783304E1,1.523471774E1
1.212305800E1,-1.725211038E0,5.003409809E0,-6.991952543E0,8.769142672E0
1.213309200E1,2.921432662E0,5.361224908E0,-4.027844562E0,7.314440042E0
1.214312600E1,5.085491853E0,8.136578336E0,-7.488231463E0,1.217126718E1
1.215316000E1,5.309954767E0,9.354308358E0,-5.278041249E0,1.198150341E1
1.216319400E1,4.766967119E0,9.092288193E0,-3.231108804E0,1.076260861E1
1.217322900E1,4.174855258E0,8.773874556E0,-2.635417863E0,1.006755772E1
1.218326300E1,3.718520714E0,8.653366950E0,-1.947889382E0,9.617818303E0
1.219329700E1,3.959533880E0,9.849660494E0,-1.518009835E0,1.072371551E1
1.220333100E1,6.020235933E0,1.509993390E1,-8.286225249E-1,1.627691186E1
1.221336600E1,6.309810517E0,1.484212782E1,-1.161328511E0,1.616945117E1
1.222340000E1,6.535914161E0,1.501340680E1,-1.107657503E0,1.641180864E1
1.223343400E1,6.458136252E0,1.449467691E1,-1.231423178E0,1.591601664E1
1.224346800E1,6.661489549E0,1.484468189E1,-1.433808029E0,1.633388591E1
1.225350300E1,6.916929842E0,1.551764846E1,-1.548322824E0,1.705985451E1
1.226353700E1,5.984930445E0,1.374579009E1,-1.767988098E0,1.509608955E1
1.227357100E1,5.560617886E0,1.323397278E1,-1.750761616E0,1.446110898E1
1.228360500E1,5.972807997E0,1.434273585E1,-1.450611758E0,1.560425523E1
1.229364000E1,5.634354783E0,1.285120586E1,-9.696818516E-1,1.406555113E1
1.230367400E1,4.835077533E0,1.005896976E1,-5.104550194E-1,1.117235033E1
1.231370800E1,4.453622141E0,8.405225151E0,-9.128380716E-2,9.512670116E0
1.232374200E1,4.665339003E0,7.807873015E0,3.840404097E-1,9.103612253E0
1.233377700E1,4.974657295E0,7.540955806E0,9.036333847E-1,9.079084919E0
1.234381100E1,4.771793703E0,7.134219393E0,9.851295376E-1,8.639304468E0
1.235384500E1,4.287722307E0,6.846622337E0,8.125577384E-1,8.119177919E0
1.236387900E1,3.909734314E0,6.401049301E0,9.339569720E-1,7.558553445E0
1.237391400E1,3.391782397E0,5.517996361E0,8.977557635E-1,6.538993583E0
1.238394800E1,2.609742154E0,4.159256641E0,1.184121323E0,5.050971512E0
1.239398200E1,1.342314307E0,2.158182154E0,1.717896171E0,3.067690526E0
1.240401600E1,-2.615518034E-2,-6.241586959E-1,2.544763801E0,2.620320776E0
1.241405100E1,-1.645223467E0,-4.670455901E0,3.870681930E0,6.285069386E0
1.242408500E1,-3.997113058E0,-1.090732591E1,6.200698550E0,1.316796620E1
1.243411900E1,-7.969854337E0,-2.117201008E1,9.973305717E0,2.472325658E1
1.244415300E1,-1.352255158E1,-3.589812213E1,1.504370474E1,4.120494662E1
1.245418700E1,-1.872159870E1,-5.228260277E1,2.138443007E1,5.950850914E1
1.246422200E1,-1.918358020E1,-5.819534934E1,2.510303703E1,6.621835774E1
1.247425600E1,-1.293613900E1,-4.367730227E1,1.843300821E1,4.914088133E1
1.248429000E1,-5.555226753E0,-2.153805747E1,9.385269949E0,2.414190871E1
1.249432400E1,-1.684014042E0,-8.892837328E0,4.825184922E0,1.025674746E1
1.250435900E1,-1.697318942E0,-3.941035044E0,-1.098011205E0,4.429252467E0
1.251439300E1,-6.239251581E0,-3.361929145E0,-1.569844086E1,1.722416539E1
1.252442700E1,-3.794654093E0,-2.760596809E0,-1.270791750E1,1.354664023E1
1.253446100E1,-4.842283934E-2,-2.666229181E0,-5.691406651E0,6.285159702E0
1.254449600E1,2.284288762E0,-3.086465646E0,-2.237031857E0,4.443934840E0
1.255453000E1,3.106672746E0,-1.426043512E0,-1.409029868E0,3.697347809E0
1.256456400E1,3.814259223E0,1.771637346E0,-1.404227696E0,4.433861491E0
1.257459800E1,4.614217381E0,4.971394549E0,-1.629516676E0,6.975750167E0
1.258463263E1,5.587569457E0,8.278173925E0,-1.497635651E0,1.009910929E1
1.259466663E1,6.591587255E0,1.183057670E1,-1.421684266E0,1.361736956E1
1.260470063E1,7.315459104E0,1.457645607E1,-1.385700793E0,1.636793146E1
1.261473463E1,7.514491893E0,1.648476156E1,-1.477798387E0,1.817687652E1
1.262476963E1,7.485026019E0,1.802377211E1,-1.576118149E0,1.957973759E1
1.263480362E1,7.428489291E0,1.946749175E1,-1.540247966E0,2.089349306E1
1.264483763E1,6.440705118E0,1.904820312E1,-1.445225887E0,2.015949906E1
1.265487163E1,5.352620730E0,1.805604991E1,-1.224849299E0,1.887251289E1
1.266490663E1,4.277291459E0,1.666732333E1,-9.136258377E-1,1.723164534E1
1.267494063E1,3.422011040E0,1.479606814E1,-6.859134793E-1,1.520211397E1
1.268497463E1,2.606809191E0,1.276408351E1,-6.120099360E-1,1.304192617E1
1.269500862E1,1.922299335E0,1.078255101E1,-7.734480518E-1,1.097983893E1
1.270504362E1,1.716760203E0,8.931302066E0,-1.097962673E0,9.160837529E0
1.271507763E1,1.698757942E0,7.077883809E0,-1.611645831E0,7.455174045E0
1.272511162E1,1.803790307E0,5.660405298E0,-2.160644271E0,6.321568736E0
1.273514563E1,1.800177898E0,4.245432320E0,-2.707270203E0,5.347302871E0
1.274518063E1,1.674786697E0,2.654427161E0,-3.097806321E0,4.409909073E0
1.275521463E1,1.389822203E0,1.572758923E0,-3.367126735E0,3.967709520E0
1.276524863E1,9.111501266E-1,1.200790054E0,-3.537083074E0,3.844872947E0
1.277528263E1,5.979345185E-1,1.625456370E0,-3.591684959E0,3.987459710E0
1.278531662E1,7.401140986E-1,2.632412978E0,-3.535869192E0,4.469870011E0
1.279535162E1,1.036568809E0,3.350417147E0,-3.426384757E0,4.903048282E0
1.280538563E1,9.639249024E-1,3.485076769E0,-3.302563534E0,4.897125401E0
1.281541963E1,8.767525649E-1,4.167201837E0,-3.314422272E0,5.396263634E0
1.282545363E1,1.718273609E0,6.748250535E0,-2.892131095E0,7.540276636E0
1.283548863E1,2.261146359E0,8.377330424E0,-2.349214783E0,8.989508217E0
1.284552263E1,2.136924309E0,7.778974321E0,-1.770832769E0,8.259221252E0
1.285555662E1,1.668450361E-1,2.717407520E0,-7.765119928E-1,2.831097274E0
1.286559063E1,-2.246774050E0,-3.854663483E0,7.348213452E-1,4.521768084E0
1.287562563E1,-6.779388127E0,-1.390485658E1,3.192542324E0,1.579548880E1
1.288565963E1,-1.458230563E1,-3.238288367E1,7.737435701E0,3.634780190E1
1.289569363E1,-2.169495230E1,-5.508633800E1,1.262874737E1,6.053644232E1
1.290572763E1,-1.881005421E1,-6.075006334E1,1.437314488E1,6.519950636E1
1.291576263E1,-7.478585311E0,-4.840318568E1,1.237430110E1,5.051654135E1
1.292579663E1,-2.942432060E0,-3.161582253E1,8.686185032E0,3.291911224E1
1.293583063E1,-1.671864258E0,-1.599886846E1,5.942662092E0,1.714859047E1
1.294586462E1,-2.705285950E-1,-5.542136006E0,6.234972589E0,8.346456758E0
1.295589962E1,4.077289787E-1,2.559764832E-1,5.743431083E0,5.763572459E0
1.296593363E1,1.287403690E0,3.764578355E0,3.279157130E0,5.155805459E0
1.297596763E1,1.466806206E0,5.559267179E0,1.117848469E0,5.857179971E0
1.298600163E1,1.249448828E0,6.337198876E0,-1.896509314E-1,6.461979529E0
1.299603663E1,7.476763026E-1,6.324006972E0,-9.998335308E-1,6.446064779E0
1.300607063E1,1.011043520E-1,6.110518697E0,-1.849062667E0,6.384958385E0
1.301610462E1,5.009340347E-1,7.105348181E0,-2.381022466E0,7.510404494E0
1.302613863E1,1.042608252E0,7.843403621E0,-2.614493017E0,8.333161828E0
1.303617363E1,1.112538174E0,7.950234005E0,-3.040308895E0,8.584138868E0
1.304620763E1,1.352840757E0,8.271034475E0,-3.878482116E0,9.234869405E0
1.305624163E1,2.162829960E0,8.472291545E0,-6.956414920E0,1.117359682E1
1.306627563E1,5.363135778E0,9.347180017E0,-1.640272980E1,1.962606799E1
1.307630963E1,7.581933678E0,1.028889632E1,-1.742626268E1,2.161068571E1
1.308634463E1,7.050667943E0,1.143029269E1,-1.186638622E1,1.792134569E1
1.309637863E1,5.711618137E0,1.205197451E1,-8.240599133E0,1.567737686E1
1.310641262E1,4.601862507E0,1.253929549E1,-6.134387031E0,1.469835958E1
1.311644663E1,4.002479048E0,1.319658334E1,-4.816012394E0,1.460697182E1
1.312648163E1,3.455515001E0,1.319259087E1,-4.026067593E0,1.421950273E1
1.313651563E1,3.057278684E0,1.332804279E1,-3.346689547E0,1.407778421E1
1.314654963E1,2.374479724E0,1.224413857E1,-2.919995709E0,1.280950656E1
1.315658363E1,1.563751872E0,1.041519851E1,-2.721658154E0,1.087791814E1
1.316661863E1,9.465023924E-1,8.689456549E0,-2.637151854E0,9.130010504E0
1.317665262E1,5.135384390E-1,7.659749009E0,-2.618191673E0,8.111128420E0
1.318668663E1,1.464296289E-1,7.374408978E0,-2.743013647E0,7.869401075E0
1.319672062E1,-3.694738626E-1,6.793653579E0,-2.747607805E0,7.337546493E0
1.320675563E1,-8.235336931E-1,5.980988252E0,-2.658207093E0,6.596703204E0
1.321678963E1,-1.175569624E0,5.228397219E0,-2.422100911E0,5.880873595E0
1.322682363E1,-1.336841898E0,4.623215076E0,-2.130180423E0,5.262977535E0
1.323685763E1,-1.246012712E0,4.242280086E0,-1.829276274E0,4.784949289E0
1.324689263E1,-9.904851486E-1,4.001173072E0,-1.638040162E0,4.435495729E0
1.325692663E1,-8.898861422E-1,3.541533975E0,-1.435770647E0,3.923747901E0
1.326696062E1,-8.401698987E-1,2.707422230E0,-9.682857558E-1,2.995596417E0
1.327699463E1,-6.619464733E-1,9.684819299E-1,-3.631878135E-1,1.228021079E0
1.328702963E1,-1.919758574E0,-3.868478115E0,1.050333593E0,4.444524335E0
1.329706363E1,-5.790393580E0,-1.448760997E1,4.374920080E0,1.620368557E1
1.330709763E1,-1.132051824E1,-3.052649093E1,1.065547815E1,3.425726195E1
1.331713163E1,-1.519539437E1,-4.698589077E1,1.801782783E1,5.256630158E1
1.332716663E1,-1.378915655E1,-5.259939556E1,2.219627386E1,5.873254485E1
1.333720062E1,-8.502879499E0,-4.044140167E1,2.069874112E1,4.621951766E1
1.334723463E1,-5.425074749E0,-2.355541704E1,1.760754625E1,2.990509643E1
1.335726862E1,-1.345311005E0,-1.201483533E1,1.150831326E1,1.669153690E1
1.336730363E1,8.092777428E-1,-5.513337885E0,6.290744501E0,8.403885499E0
1.337733763E1,1.762836701E0,-2.199117342E0,3.680183737E0,4.635457114E0
1.338737163E1,2.147372407E0,-4.733636820E-1,2.079724799E0,3.026637849E0
1.339740563E1,2.163545805E0,5.943349725E-1,1.036216661E0,2.471418516E0
1.340744063E1,2.050241969E0,1.282763924E0,2.861782292E-1,2.435338456E0
1.341747463E1,2.022610366E0,1.770938019E0,-2.097887421E-1,2.696513578E0
1.342750862E1,2.074905232E0,2.200523597E0,-5.461585933E-1,3.073406096E0
1.343754263E1,2.163677075E0,2.706793070E0,-9.839881611E-1,3.602285373E0
1.344757663E1,2.049149416E0,3.276510095E0,-1.434651783E0,4.122227246E0
1.345761163E1,1.951901157E0,3.987413405E0,-1.845202335E0,4.807718320E0
1.346764563E1,1.951240422E0,4.768628898E0,-2.304734721E0,5.644374445E0
1.347767963E1,1.965498857E0,5.630638293E0,-2.718590705E0,6.554235940E0
1.348771362E1,2.047827653E0,6.485052740E0,-3.047601250E0,7.452340607E0
1.349774862E1,2.149102598E0,7.330824417E0,-3.294416023E0,8.319423391E0
1.350778263E1,3.246003417E0,1.045691723E1,-3.644129221E0,1.153964184E1
1.351781663E1,4.341101831E0,1.347890563E1,-3.812589258E0,1.466498888E1
1.352785063E1,3.953400151E0,1.302945589E1,-3.901451148E0,1.416394770E1
1.353788563E1,3.759017361E0,1.309608959E1,-4.059212535E0,1.421671483E1
1.354791963E1,3.475472717E0,1.315718364E1,-4.128172550E0,1.422083684E1
1.355795363E1,2.268913508E0,1.136392563E1,-4.573358207E0,1.245802470E1
1.356798763E1,1.045045445E0,1.322095454E1,-8.327119213E0,1.565971498E1
1.357802263E1,-2.027825352E0,1.341005232E1,-1.283580546E1,1.867349675E1
1.358805713E1,-5.079244103E0,6.603371149E0,-1.091679606E1,1.373243123E1
1.359809113E1,-1.626258169E0,1.068443239E1,-8.132031541E0,1.352522636E1
1.360812512E1,-1.371917590E-1,1.039827433E1,-6.237689205E0,1.212648743E1
1.361816012E1,4.915707421E-1,9.531741532E0,-4.651339599E0,1.061747138E1
1.362819413E1,6.520021136E-1,8.470937330E0,-4.124088270E0,9.444045217E0
1.363822813E1,7.028718665E-1,7.664961802E0,-4.070189221E0,8.707014906E0
1.364826213E1,6.821852946E-1,7.584065573E0,-4.039394275E0,8.619752520E0
1.365829713E1,6.858889941E-1,7.431832729E0,-3.864800508E0,8.404716794E0
1.366833113E1,6.193470953E-1,7.090055373E0,-3.568987822E0,7.961793145E0
1.367836513E1,5.651352932E-1,6.531788950E0,-3.169737598E0,7.282230512E0
1.368839913E1,4.119197512E-1,5.895534704E0,-2.786304385E0,6.533796710E0
1.369843413E1,9.205461636E-2,5.185434217E0,-2.379089377E0,5.705897680E0
1.370846812E1,-2.813446283E-1,4.249184479E0,-2.077594074E0,4.738261355E0
1.371850213E1,-6.056592751E-1,2.722540206E0,-1.756866694E0,3.296305343E0
1.372853613E1,-1.116799552E0,-1.943444914E-1,-1.134063383E0,1.603468358E0
1.373857113E1,-2.081677477E0,-6.331425920E0,5.718547672E-1,6.689346244E0
1.374860513E1,-4.188026696E0,-1.791253117E1,4.397165228E0,1.891384156E1
1.375863913E1,-8.799000626E0,-3.630160807E1,1.082246293E1,3.888900699E1
1.376867312E1,-1.428764806E1,-5.666028215E1,1.991362378E1,6.173391995E1
1.377870812E1,-1.359436007E1,-6.269756973E1,2.646209835E1,6.939765504E1
1.378874213E1,-9.017919211E0,-4.763942705E1,2.332117758E1,5.380255756E1
1.379877613E1,-6.090057535E0,-2.670502911E1,1.636226356E1,3.190565858E1
1.380881013E1,-2.655110408E0,-1.244216389E1,9.492116121E0,1.587316358E1
1.381884513E1,-2.145258638E-1,-4.328457520E0,3.570052600E0,5.614876794E0
1.382887913E1,1.715619558E0,7.821528018E-2,-1.474246788E-1,1.723717533E0
1.383891313E1,1.537099386E0,2.579164140E0,-2.888801106E0,4.166525412E0
1.384894713E1,3.138346821E-2,4.012184549E0,-5.908902608E0,7.142390343E0
1.385898112E1,-9.805257323E-1,4.983612306E0,-8.961335705E0,1.030064852E1
1.386901612E1,2.560282311E-1,5.812034125E0,-8.545223866E0,1.033760814E1
1.387905013E1,2.439106075E0,6.009777603E0,-6.107173505E0,8.908660590E0
1.388908413E1,3.895257485E0,6.045945556E0,-4.479958000E0,8.473282258E0
1.389911913E1,4.419346348E0,6.306229098E0,-3.639066117E0,8.517156203E0
1.390915313E1,4.361149595E0,6.730891905E0,-3.327184989E0,8.683011666E0
1.391918713E1,4.288728613E0,7.256516247E0,-3.367899444E0,9.077057223E0
1.392922112E1,4.810783522E0,8.103534551E0,-5.098656274E0,1.071481246E1
1.393925513E1,5.587715637E0,9.087864189E0,-7.519322863E0,1.305189863E1
1.394929013E1,5.601098744E0,9.397809303E0,-6.966813024E0,1.297025869E1
1.395932413E1,5.264066988E0,9.447993032E0,-5.840381427E0,1.229166501E1
1.396935813E1,4.917698983E0,9.336357991E0,-5.141590624E0,1.173828343E1
1.397939213E1,6.108958075E0,1.314844322E1,-4.512911738E0,1.518444270E1
1.398942713E1,8.647993358E0,2.030491244E1,-4.065948527E0,2.244123873E1
1.399946113E1,6.946605631E0,1.700710503E1,-4.218613481E0,1.884923476E1
1.400949513E1,5.164113514E0,1.360194742E1,-4.122588459E0,1.512206261E1
1.401952912E1,4.670551795E0,1.381923697E1,-4.083253070E0,1.514788170E1
1.402956412E1,4.124839052E0,1.376263475E1,-4.049886226E0,1.492735713E1
1.403959813E1,3.254438902E0,1.248925268E1,-3.559652450E0,1.338820118E1
1.404963213E1,2.469925872E0,1.099776012E1,-2.884535562E0,1.163493906E1
1.405966613E1,2.077123666E0,1.007925726E1,-2.503514618E0,1.059119706E1
1.406970113E1,1.698175267E0,9.559768406E0,-2.524725977E0,1.003230843E1
1.407973513E1,1.356842591E0,9.334033138E0,-2.562200490E0,9.773948423E0
1.408976912E1,1.138963934E0,9.251664580E0,-2.405696255E0,9.626936731E0
1.409980313E1,1.034008021E0,9.163663985E0,-2.114612212E0,9.461157171E0
1.410983813E1,9.876656943E-1,9.045951932E0,-1.798553249E0,9.275749224E0
1.411987213E1,9.621789238E-1,9.025735769E0,-1.498144505E0,9.199681049E0
1.412990613E1,9.967656429E-1,8.554984623E0,-1.258192170E0,8.704272007E0
1.413994013E1,6.484344350E-1,4.169992129E0,-1.319042535E0,4.421444874E0
1.414997513E1,-1.632861576E0,-5.576237553E0,3.568507473E0,6.818717457E0
1.416000913E1,-7.425488500E0,-2.980582394E1,1.510982388E1,3.423202883E1
1.417004313E1,-1.452179747E1,-6.716419696E1,2.987951991E1,7.493128629E1
1.418007712E1,-1.135380059E1,-8.575780011E1,3.534292666E1,9.344748008E1
1.419011212E1,-5.980983574E0,-6.899186349E1,2.772222477E1,7.459337195E1
1.420014613E1,-4.480697089E0,-4.338209272E1,1.777194539E1,4.709484747E1
1.421018013E1,-3.648611404E0,-2.146536489E1,1.046018465E1,2.415553183E1
1.422021413E1,-2.533172865E0,-9.825506816E0,5.515936972E0,1.154916056E1
1.423024913E1,-1.306190355E0,-3.116421517E0,2.065361407E0,3.960294693E0
1.424028313E1,-1.305764531E0,6.099628258E-1,-2.080736368E0,2.531114279E0
1.425031712E1,-6.758696585E0,2.048151589E0,-1.692969023E1,1.834364511E1
1.426035113E1,-5.198344869E0,4.679762329E0,-1.786451033E1,1.918498616E1
1.427038613E1,9.654741222E-1,6.657026954E0,-8.487695450E0,1.083001026E1
1.428042013E1,4.251295323E0,7.218770716E0,-4.735721937E0,9.623472598E0
1.429045413E1,4.906907362E0,7.590646614E0,-3.675846565E0,9.757433261E0
1.430048813E1,4.804258614E0,8.072277675E0,-3.145701741E0,9.906462897E0
1.431052313E1,4.921150010E0,8.749808586E0,-3.280128352E0,1.056106575E1
1.432055713E1,5.696214232E0,1.053969509E1,-5.978804902E0,1.338947860E1
1.433059113E1,5.486364679E0,1.090127755E1,-5.679871849E0,1.346101756E1
1.434062512E1,5.112287888E0,1.078604764E1,-4.529613433E0,1.276682063E1
1.435066012E1,6.135835971E0,1.394047781E1,-3.844798645E0,1.570884723E1
1.436069413E1,9.279057031E0,2.197796456E1,-3.442096810E0,2.410352372E1
1.437072813E1,9.221050898E0,2.133445041E1,-3.210054735E0,2.346254473E1
1.438076213E1,7.973916982E0,1.855873036E1,-3.104619496E0,2.043644996E1
1.439079713E1,6.017581297E0,1.471961228E1,-3.125159011E0,1.620632251E1
1.440083113E1,4.992205374E0,1.292382594E1,-3.157754899E0,1.420981377E1
1.441086512E1,4.591376987E0,1.268212894E1,-2.846320499E0,1.378472624E1
1.442089913E1,3.926383091E0,1.209803537E1,-2.426195716E0,1.294856631E1
1.443093413E1,3.207470558E0,1.134288150E1,-2.006063915E0,1.195713680E1
1.444096813E1,2.469217190E0,1.052561500E1,-1.433883458E0,1.090603623E1
1.445100213E1,1.852446158E0,9.826002660E0,-7.962589172E-1,1.003074839E1
1.446103613E1,1.304107723E0,9.316175741E0,-3.533852488E-1,9.413644805E0
1.447107113E1,9.584589983E-1,9.010676849E0,-1.269793046E-1,9.062398396E0
1.448110512E1,7.636369356E-1,8.841701673E0,-1.062725598E-1,8.875253444E0
1.449113913E1,5.706030976E-1,8.737134161E0,-3.638833398E-1,8.763304875E0
1.450117312E1,3.620393472E-1,8.611127248E0,-7.651083143E-1,8.652628254E0
1.451120812E1,5.615442988E-2,8.413367398E0,-1.296622556E0,8.512880497E0
1.452124213E1,-3.398348016E-1,7.796471529E0,-1.748015910E0,7.997250504E0
1.453127613E1,-5.086742865E-1,6.772072676E0,-1.916595815E0,7.056419586E0
1.454131013E1,-5.899188263E-1,5.390860351E0,-1.616146579E0,5.658737431E0
1.455134513E1,-9.466174364E-1,3.053745212E0,-7.788654971E-1,3.290604178E0
1.456137913E1,-1.194071457E0,-6.416535652E-1,5.520847464E-1,1.463667827E0
1.457141312E1,-1.282331230E0,-7.158563105E0,3.161487177E0,7.929968492E0
1.458144713E1,-2.821105551E0,-2.042157140E1,9.169214746E0,2.256266195E1
1.459148088E1,-5.759399244E0,-4.272369156E1,1.926741640E1,4.721988813E1
1.460151588E1,-8.425541886E0,-6.408464155E1,3.006987718E1,7.128834794E1
1.461154988E1,-8.601096935E0,-6.501830624E1,3.290461201E1,7.337623938E1
1.462158388E1,-5.475297069E0,-4.963295805E1,2.508842367E1,5.588236219E1
1.463161787E1,-4.063196243E0,-3.033126643E1,1.585690742E1,3.446645906E1
1.464165287E1,-2.469211635E0,-1.541604023E1,8.375005571E0,1.771699807E1
1.465168688E1,-9.618241440E-1,-7.140109293E0,3.403287086E0,7.967975238E0
1.466172088E1,-9.915158665E-1,-2.551005118E0,-2.234227533E0,3.533058660E0
1.467175488E1,-5.157215554E0,-7.496434522E-1,-1.743101296E1,1.819337930E1
1.468178988E1,-2.948608181E0,1.207904361E0,-1.811567046E1,1.839377175E1
1.469182388E1,1.327721411E0,3.031583680E0,-1.210099523E1,1.254541467E1
1.470185787E1,3.260718520E0,2.880028528E0,-5.341860684E0,6.889290613E0
1.471189188E1,4.007968706E0,2.740480049E0,-1.739441991E0,5.157489941E0
1.472192688E1,3.581143014E0,3.035194336E0,-1.150851031E0,4.833368188E0
1.473196088E1,2.545326303E0,3.711805480E0,-1.147272389E0,4.644611915E0
1.474199488E1,2.196991733E0,4.772549456E0,-1.127089993E0,5.373484236E0
1.475202888E1,1.965597090E0,5.968375223E0,-1.052214643E0,6.371203213E0
1.476206388E1,2.105008598E0,7.634072716E0,-8.278026722E-1,7.962121871E0
1.477209788E1,2.479322348E0,9.241552990E0,-6.430031756E-1,9.589931911E0
1.478213188E1,2.587422747E0,1.017734314E1,-6.009633762E-1,1.051828060E1
1.479216587E1,2.919573832E0,1.163247187E1,-3.109286159E-1,1.199729093E1
1.480220087E1,2.804581320E0,1.181245501E1,-3.362341958E-1,1.214548572E1
1.481223488E1,3.498608395E0,1.443524114E1,-4.860516284E-1,1.486111347E1
1.482226888E1,5.747127108E0,2.127180334E1,-2.773942494E-1,2.203624366E1
1.483230288E1,8.683100041E0,2.817849938E1,7.906797963E-1,2.949659690E1
1.484233788E1,6.003701761E0,2.191651266E1,1.056704720E0,2.274850735E1
1.485237188E1,1.928207508E0,1.415066300E1,1.003105633E0,1.431661512E1
1.486240587E1,2.073189878E-1,1.118402083E1,1.582537222E0,1.129733275E1
1.487243988E1,-4.127898169E-1,1.042050311E1,1.975240903E0,1.061408767E1
1.488247488E1,-6.878398445E-1,1.005334123E1,2.407196943E0,1.036037600E1
1.489250888E1,-8.589256469E-1,9.525591431E0,2.549686571E0,9.898259796E0
1.490254288E1,-9.992719057E-1,9.061528330E0,2.489523400E0,9.450268079E0
1.491257688E1,-1.177952291E0,8.787661121E0,2.341642638E0,9.170269888E0
1.492261188E1,-1.288818423E0,8.582916772E0,2.032170564E0,8.913878530E0
1.493264588E1,-1.312235353E0,8.516897029E0,1.773811340E0,8.798062474E0
1.494267988E1,-1.274228159E0,8.657734820E0,1.681299033E0,8.911049099E0
1.495271387E1,-1.234758722E0,8.888205748E0,1.600205169E0,9.115124086E0
1.496274887E1,-1.321327188E0,8.875718434E0,1.201182986E0,9.053569674E0
1.497278288E1,-1.479436046E0,8.566977262E0,9.405404252E-1,8.744509518E0
1.498281688E1,-1.646170570E0,7.811513491E0,8.087184566E-1,8.023942056E0
1.499285088E1,-1.906936069E0,5.930388202E0,1.116169733E0,6.328644742E0
1.500288588E1,-2.446197725E0,1.998361378E0,2.101219164E0,3.793738721E0
1.501291988E1,-4.124230357E0,-7.464692912E0,3.872585784E0,9.366313947E0
1.502295387E1,-6.470576203E0,-2.652713342E1,9.665994188E0,2.896530006E1
1.503298788E1,-5.778030227E0,-5.362577837E1,2.089928425E1,5.784366708E1
1.504302288E1,-1.965821769E0,-7.477714544E1,3.103719376E1,8.098637744E1
1.505305688E1,2.524440341E0,-7.008908182E1,3.246539022E1,7.728423999E1
1.506309088E1,3.119363543E0,-4.978702048E1,2.475809574E1,5.569058396E1
1.507312488E1,1.769755419E0,-2.970762580E1,1.479037061E1,3.323296748E1
1.508315988E1,2.020566472E0,-1.628004703E1,7.407184376E0,1.799969446E1
1.509319387E1,2.381139703E0,-8.506212997E0,2.703457233E0,9.237649422E0
1.510322788E1,2.122169299E0,-4.071301069E0,-1.614187616E0,4.866692571E0
1.511326187E1,2.778552732E0,-7.727506544E0,-3.332637869E1,3.432320249E1
1.512329687E1,9.814312906E0,-6.237210903E0,-3.942507139E1,4.110425516E1
1.513333088E1,1.243283173E1,8.994736755E-1,-9.139196311E0,1.545669004E1
1.514336488E1,9.534483876E0,1.306501281E0,-3.757074331E0,1.033096975E1
1.515339888E1,4.208498383E0,-9.249786454E-1,-5.117160373E0,6.689721550E0
1.516343388E1,1.390394792E0,1.156795603E0,-9.357241321E0,9.530442744E0
1.517346788E1,3.551427172E0,7.599640217E0,-1.516679213E1,1.733201517E1
1.518350187E1,3.811399350E0,9.505505660E0,-1.379077974E1,1.717751462E1
1.519353588E1,3.283375896E0,9.037851784E0,-6.494481375E0,1.160351716E1
1.520357088E1,3.079960619E0,9.036139719E0,-3.386107674E0,1.012934863E1
1.521360488E1,2.760603241E0,9.044469078E0,-2.171719043E0,9.702562278E0
1.522363888E1,2.449233892E0,9.285235784E0,-2.238277607E0,9.860235132E0
1.523367288E1,2.276473227E0,1.054738886E1,-2.566144729E0,1.109120556E1
1.524370788E1,3.205078462E0,1.538664861E1,-3.160893685E0,1.603161665E1
1.525374187E1,3.472392404E0,1.702953144E1,-1.862868235E0,1.747949450E1
1.526377588E1,3.189305013E0,1.880454497E1,-6.504145946E-1,1.908417190E1
1.527380987E1,2.488421200E0,1.927313615E1,-1.225263575E-1,1.943350277E1
1.528384487E1,1.276608122E0,1.833095090E1,8.575994253E-1,1.839535175E1
1.529387888E1,-8.054978102E-1,1.855938759E1,1.673358514E0,1.865207289E1
1.530391288E1,-1.998160673E0,1.555799308E1,6.859472470E-1,1.570077445E1
1.531394688E1,-2.034984536E0,1.274216347E1,2.623338684E-2,1.290366538E1
1.532398188E1,-1.462619600E0,1.105761923E1,5.593428952E-1,1.116794805E1
1.533401588E1,-7.917971992E-1,1.020535364E1,2.388003457E0,1.051088703E1
1.534404987E1,-6.674649292E-1,1.040231593E1,2.663164070E0,1.075853749E1
1.535408388E1,-8.622022073E-1,9.784483920E0,1.909847982E0,1.000634986E1
1.536411888E1,-9.564540611E-1,8.849833395E0,1.798566697E0,9.081255291E0
1.537415288E1,-1.020238852E0,8.371387314E0,1.547308332E0,8.574099133E0
1.538418688E1,-1.230727213E0,7.954396053E0,1.075723885E0,8.120608839E0
1.539422088E1,-1.463669467E0,7.776944168E0,5.792642858E-1,7.934654120E0
1.540425588E1,-1.631248183E0,7.376861885E0,3.565586058E-1,7.563477768E0
1.541428987E1,-1.942434222E0,6.417309823E0,2.765060574E-1,6.710541832E0
1.542432388E1,-1.963261566E0,4.978935703E0,3.859824528E-1,5.365927615E0
1.543435787E1,-1.368415547E0,2.686413184E0,7.984630251E-1,3.118801069E0
1.544439288E1,6.564888284E-2,-2.402301654E0,2.057109377E0,3.163394063E0
1.545442688E1,2.120193087E-1,-1.498099686E1,5.020506483E0,1.580128806E1
1.546446088E1,-2.213808325E0,-3.793442667E1,1.175323558E1,3.977512063E1
1.547449488E1,-2.478896670E0,-5.883539959E1,1.939532659E1,6.199941828E1
1.548452988E1,-4.425704902E-1,-6.165028663E1,2.408043853E1,6.618777251E1
1.549456388E1,3.564357777E-1,-5.508289983E1,2.590255723E1,6.087031601E1
1.550459787E1,-3.271955114E0,-4.634214040E1,2.575015306E1,5.311657039E1
1.551463188E1,-5.533326591E0,-2.999689691E1,1.981706754E1,3.637509716E1
1.552466688E1,-3.049944814E0,-1.568482620E1,1.070757918E1,1.923455714E1
1.553470088E1,-1.598487257E0,-7.528175547E0,3.455130254E0,8.436024754E0
1.554473488E1,-2.233407022E0,-4.049344189E0,-4.932191892E0,6.761051112E0
1.555476888E1,-6.701675123E0,-5.455572656E0,-3.238498632E1,3.351810051E1
1.556480388E1,1.913573535E0,-1.320689549E0,-2.732515439E1,2.742389555E1
1.557483787E1,7.012141224E0,2.279650458E0,-1.086890152E1,1.313392367E1
1.558487188E1,6.252731752E0,2.585001415E0,-3.119229349E0,7.450401225E0
1.559490617E1,3.630549355E0,1.289903374E0,-5.963579337E0,7.099930834E0
1.560494117E1,3.137210122E0,4.092770290E0,-5.225262526E0,7.341404802E0
1.561497517E1,3.901423082E0,7.912866789E0,-2.231676539E0,9.100271592E0
1.562500917E1,3.625243884E0,8.932791937E0,-1.566395983E0,9.766819410E0
1.563504317E1,3.373658659E0,9.341776605E0,-1.426703078E0,1.003423363E1
1.564507817E1,3.095711848E0,9.520190358E0,-1.544771810E0,1.012935221E1
1.565511217E1,3.849616166E0,1.362460889E1,-1.795544856E0,1.427142226E1
1.566514617E1,3.940186613E0,1.482035981E1,-1.836712909E0,1.544479361E1
1.567518017E1,7.697054830E0,2.558346298E1,-1.415979430E0,2.675375168E1
1.568521517E1,7.848865505E0,2.652062196E1,-1.080441492E0,2.767879030E1
1.569524917E1,4.487485706E0,2.032169394E1,-1.040352104E0,2.083725282E1
1.570528317E1,3.705635790E0,1.895934883E1,-1.093840679E0,1.934903440E1
1.571531717E1,2.499928520E0,1.636137946E1,-1.178915035E0,1.659319804E1
1.572535217E1,1.729445884E0,1.448689427E1,-1.097534657E0,1.463098325E1
1.573538617E1,1.248949330E0,1.321253104E1,-7.888901098E-1,1.329485609E1
1.574542017E1,7.544861162E-1,1.243945780E1,-3.057577769E-1,1.246606784E1
1.575545417E1,3.060295263E-1,1.143495292E1,4.664220138E-1,1.144855240E1
1.576548917E1,-3.390766735E-1,1.014963669E1,1.190310162E0,1.022481962E1
1.577552317E1,-5.379526109E-1,9.050942531E0,1.885928777E0,9.260976247E0
1.578555717E1,-4.322248654E-1,8.318475859E0,3.628830566E0,9.085827988E0
1.579559117E1,-2.503976548E-1,8.128474095E0,6.218424969E0,1.023736290E1
1.580562617E1,-4.406197129E-1,7.573196184E0,5.649334180E0,9.458457742E0
1.581566017E1,-8.576013257E-1,6.688959183E0,4.226751051E0,7.958836563E0
1.582569417E1,-1.031756332E0,6.515530182E0,3.214557091E0,7.338258102E0
1.583572817E1,-8.534784539E-1,6.210256993E0,2.169545048E0,6.633448810E0
1.584576317E1,-4.639632596E-1,6.164202569E0,1.510895966E0,6.363604469E0
1.585579717E1,1.465329419E-1,5.265932250E0,1.606231309E0,5.507403507E0
1.586583117E1,6.650366537E-1,2.594694344E0,1.990809699E0,3.337369586E0
1.587586517E1,6.752105165E-2,-3.950921516E0,2.923725940E0,4.915537945E0
1.588590017E1,-3.931703765E0,-1.817841927E1,3.560554383E0,1.893649305E1
1.589593417E1,-1.074685843E1,-4.193536059E1,5.497705353E0,4.363821947E1
1.590596817E1,-1.641467332E1,-6.786262114E1,1.070928072E1,7.063614897E1
1.591600217E1,-1.441289191E1,-7.748119733E1,1.917167760E1,8.110869630E1
1.592603717E1,-3.702943439E0,-5.875856718E1,2.107663030E1,6.253403355E1
1.593607117E1,-1.747107837E0,-3.305561518E1,1.577393426E1,3.666801171E1
1.594610517E1,-4.412874649E-1,-1.661331961E1,1.058994840E1,1.970644895E1
1.595613917E1,1.673532469E0,-6.526921728E0,5.878283079E0,8.941791214E0
1.596617417E1,1.415990832E0,-1.279336286E0,1.034727375E0,2.170804485E0
1.597620817E1,5.012525618E-2,7.999347693E-1,-4.578897275E0,4.648516799E0
1.598624217E1,-4.734075946E0,-9.584171176E-1,-1.954618475E1,2.013413462E1
1.599627617E1,-1.362452410E-1,-1.638718439E0,-2.109992326E1,2.116390140E1
1.600631117E1,3.676767794E0,-1.719408846E-1,-1.409291473E1,1.456565929E1
1.601634517E1,5.236982685E0,2.260493225E0,-8.482879683E0,1.022228277E1
1.602637917E1,7.118833614E0,4.264998273E0,-4.710603468E0,9.542420413E0
1.603641317E1,7.291571474E0,5.099091892E0,-3.497112093E0,9.560206361E0
1.604644817E1,6.182382731E0,5.076842651E0,-3.528253194E0,8.743269305E0
1.605648217E1,5.236231903E0,5.479157985E0,-3.788770625E0,8.473138711E0
1.606651617E1,4.670281654E0,6.988499177E0,-4.240630587E0,9.414541903E0
1.607655017E1,4.080262511E0,9.180447248E0,-4.197353590E0,1.088792593E1
1.608658517E1,4.102201849E0,1.222131689E1,-3.995156872E0,1.349629301E1
1.609661917E1,4.482688358E0,1.429550672E1,-4.341258829E0,1.559815808E1
1.610665317E1,4.699706013E0,1.417113878E1,-4.569122484E0,1.561362518E1
1.611668717E1,3.818143820E0,1.205741476E1,-4.334317600E0,1.336958421E1
1.612672217E1,2.704099258E0,9.936934866E0,-3.725618649E0,1.095148673E1
1.613675617E1,2.012921091E0,1.035191995E1,-2.229982747E0,1.077900371E1
1.614679017E1,-2.466912802E0,2.034776551E1,9.207908696E0,2.247004234E1
1.615682417E1,-1.351023735E0,9.965568681E0,-2.329871901E0,1.032308710E1
1.616685917E1,-9.445625786E-1,6.407530355E0,-5.045305694E0,8.209978883E0
1.617689317E1,-1.820705864E0,6.997058916E0,-3.717307709E0,8.129709707E0
1.618692717E1,-2.768319227E0,6.358621320E0,-4.076514446E0,8.044478010E0
1.619696117E1,-2.964086931E0,6.568853865E0,-4.301597750E0,8.392818099E0
1.620699617E1,-2.080207926E0,7.147274471E0,-5.532201587E0,9.274483909E0
1.621703017E1,-9.617767815E-1,7.585953639E0,-6.459989820E0,1.001015363E1
1.622706417E1,-1.905831237E-1,7.791206696E0,-6.802020945E0,1.034440490E1
1.623709817E1,1.137941987E-1,7.773918818E0,-7.170097908E0,1.057625014E1
1.624713317E1,4.545177405E-1,7.817534369E0,-7.301233413E0,1.070646717E1
1.625716717E1,7.776826054E-1,7.838205446E0,-7.389125835E0,1.080006646E1
1.626720117E1,1.045490929E0,7.866999475E0,-7.248848208E0,1.074841999E1
1.627723517E1,1.218071792E0,7.856483842E0,-6.944291303E0,1.055609866E1
1.628727017E1,1.262152196E0,7.582979745E0,-6.557658201E0,1.010433031E1
1.629730417E1,9.847547311E-1,7.017134746E0,-5.754019221E0,9.127905517E0
1.630733817E1,8.246277802E-1,6.432664027E0,-4.302253808E0,7.782580888E0
1.631737217E1,5.328308519E-1,5.170044345E0,-1.474509913E0,5.402540766E0
1.632740717E1,-1.973258404E-1,2.191858023E0,4.507610945E0,5.016147477E0
1.633744117E1,-2.471973859E0,-6.022528042E0,1.286807040E1,1.442112113E1
1.634747517E1,-5.760949926E0,-2.229401592E1,2.277023655E1,3.238356624E1
1.635750917E1,-1.078522786E1,-4.007276513E1,3.530192599E1,5.448278282E1
1.636754417E1,-1.480677322E1,-5.351856382E1,3.928314777E1,6.801943036E1
1.637757817E1,-1.615669183E1,-5.847105257E1,3.779834325E1,7.147459291E1
1.638761217E1,-1.224771473E1,-4.707634018E1,2.708565712E1,5.567603742E1
1.639764617E1,-6.082079594E0,-2.577780805E1,1.315019154E1,2.957050249E1
1.640768117E1,-2.832183686E0,-1.237061151E1,5.591643797E0,1.386794051E1
1.641771517E1,-2.623605902E0,-5.035461321E0,2.623087254E-1,5.684011305E0
1.642774917E1,-7.603339165E0,8.729594761E-1,-2.121268799E1,2.255107440E1
1.643778317E1,4.253995568E-1,7.787922315E0,-1.586408430E1,1.767772240E1
1.644781817E1,9.478880364E0,7.060273165E0,-2.217137876E1,2.512502072E1
1.645785217E1,1.137270697E1,8.694215013E0,-1.841349488E1,2.332347813E1
1.646788617E1,8.912236050E0,8.054843616E0,-1.353121365E1,1.809425876E1
1.647792017E1,5.406871197E0,5.696789013E0,-9.718429095E0,1.249542017E1
1.648795517E1,3.067831154E0,4.410926065E0,-7.707672204E0,9.395534447E0
1.649798917E1,2.216523041E0,4.742547977E0,-6.125659477E0,8.057818547E0
1.650802317E1,2.312962630E0,5.944284695E0,-4.914432728E0,8.052078347E0
1.651805717E1,2.436257312E0,6.789143037E0,-4.060531667E0,8.277422925E0
1.652809217E1,2.374147456E0,7.596770988E0,-3.555261776E0,8.717074732E0
1.653812617E1,2.184469628E0,8.459147004E0,-3.895312157E0,9.565695604E0
1.654816017E1,2.007427632E0,9.015975596E0,-4.191110225E0,1.014312509E1
1.655819417E1,1.548355861E0,9.211584256E0,-4.157556563E0,1.022428320E1
1.656822917E1,1.022719094E0,9.158817812E0,-3.934017801E0,1.002029910E1
1.657826317E1,5.947461049E-1,9.039390771E0,-3.449439744E0,9.693448457E0
1.658829688E1,3.051370219E-1,8.936981467E0,-2.806071483E0,9.372128014E0
1.659833088E1,4.656152442E-1,9.075323666E0,-2.561328670E0,9.441329448E0
1.660836587E1,3.333928876E-1,1.018440891E1,-3.844170070E-1,1.019711293E1
1.661839988E1,-9.641115747E-1,1.292563740E1,4.905123961E0,1.385863826E1
1.662843387E1,-1.514395232E-1,1.249680027E1,1.159109931E0,1.255135398E1
1.663846788E1,9.386194687E-1,1.123732405E1,-2.686616960E0,1.159208217E1
1.664850288E1,1.256333047E0,1.097160552E1,-3.263170842E0,1.151532824E1
1.665853688E1,9.897970775E-1,1.065027763E1,-3.161398884E0,1.115358933E1
1.666857088E1,8.840336640E-1,1.044384987E1,-3.154302118E0,1.094555332E1
1.667860488E1,8.169997220E-1,1.019391181E1,-3.313652194E0,1.075005197E1
1.668863988E1,7.068190295E-1,9.974313776E0,-3.580058063E0,1.062089187E1
1.669867387E1,6.650422816E-1,1.003873606E1,-3.641691517E0,1.069955233E1
1.670870788E1,8.138928039E-1,1.029863193E1,-3.493915128E0,1.090558041E1
1.671874188E1,1.005656700E0,1.038390656E1,-2.916523047E0,1.083249590E1
1.672877688E1,8.486561090E-1,9.159075090E0,-1.685754611E0,9.351504815E0
1.673881088E1,7.228523140E-1,7.725062993E0,1.392526687E0,7.882781507E0
1.674884488E1,9.149951094E-1,5.624839025E0,8.744384708E0,1.043744672E1
1.675887988E1,1.098818633E0,1.717810217E0,1.813639884E1,1.825067772E1
1.676891387E1,1.109413787E-1,-4.400043227E0,2.580685936E1,2.617950875E1
