"Time (s)","Linear Acceleration x (m/s^2)","Linear Acceleration y (m/s^2)","Linear Acceleration z (m/s^2)","Absolute acceleration (m/s^2)"
-3.496291669E-3,-4.681307164E0,3.502123157E0,-1.236797208E0,5.975715079E0
6.532708328E-3,-5.064298035E0,3.846662153E0,-3.692142463E-1,6.370262433E0
1.656170833E-2,-3.710320871E0,2.452905797E0,2.264856856E-2,4.447891722E0
2.659070833E-2,-2.346297607E0,5.105268306E-1,-6.773098862E-1,2.494894544E0
3.662070833E-2,-9.036748999E-1,-4.973986620E-1,-2.477189283E0,2.683374834E0
4.664970833E-2,-2.735222232E-1,-4.574563318E-1,-5.584080423E0,5.609459410E0
5.667870833E-2,-9.788239002E-2,-1.094482411E0,-9.515389209E0,9.578627485E0
6.670870833E-2,9.724679768E-2,-1.070953215E0,-9.027089399E0,9.090915287E0
7.673770833E-2,-1.446312885E0,-1.725726762E0,-4.818027345E0,5.318208469E0
8.676670833E-2,-2.054778823E0,-1.861813690E0,-1.794404064E0,3.302779462E0
9.679570833E-2,1.531685742E0,-5.987847036E-1,8.918629396E-1,1.870835064E0
1.068257083E-1,2.746957594E0,-1.181131130E0,4.861494377E0,5.707449022E0
1.168547083E-1,5.096481110E0,-2.234122283E0,8.781374195E0,1.039605477E1
1.268837083E-1,7.890145678E0,-1.980513922E0,9.346245632E0,1.239068770E1
1.369132083E-1,8.213518338E0,-1.334134637E0,6.351699386E0,1.046832765E1
1.469432083E-1,6.121149520E0,-2.000081044E-1,3.348506277E0,6.980040757E0
1.569722083E-1,3.718356700E0,1.471779263E0,2.418997793E0,4.673741656E0
1.670012083E-1,8.766747969E-1,2.139035447E0,2.117858001E0,3.135180035E0
1.770312083E-1,6.114053339E-1,1.544311634E0,5.458855283E-1,1.748343764E0
1.870602083E-1,2.092644807E0,2.122637515E0,7.739202145E-1,3.079562438E0
1.970892083E-1,2.491599746E0,2.737485105E0,9.716948287E-1,3.827020360E0
2.071182083E-1,1.630238807E0,2.247842774E0,2.259766124E-1,2.785954260E0
2.171482083E-1,5.452873582E-1,1.674766524E0,-1.056325528E0,2.053778185E0
2.271772083E-1,4.184238285E-1,7.417193055E-3,-2.822616179E0,2.853470801E0
2.372062083E-1,3.755052656E-1,-9.532113415E-1,-3.787838286E0,3.923943801E0
2.472362083E-1,-4.086426061E-1,7.212131202E-2,-2.779639144E0,2.810441964E0
2.572652083E-1,-9.982840186E-1,6.965349466E-1,-1.458684131E0,1.899866129E0
2.672942083E-1,-2.930223951E0,1.380572639E0,-1.677088161E0,3.647576992E0
2.773232083E-1,-3.778942625E0,1.574192660E0,-1.889649945E0,4.508798821E0
2.873532083E-1,-4.192023852E0,1.184908431E0,-2.071344278E0,4.823643756E0
2.973822083E-1,-5.130587919E0,6.845405531E-1,-2.204597352E0,5.625991259E0
3.074112083E-1,-6.668336053E0,-2.307024783E-1,-2.460801584E0,7.111643537E0
3.174412083E-1,-8.524463911E0,-9.357650042E-1,-2.556084010E0,8.948503036E0
3.274702083E-1,-1.011068605E1,-3.849549508E-1,-2.213606157E0,1.035732663E1
3.374992083E-1,-1.139219808E1,-3.275752881E0,-3.347595280E0,1.231743189E1
3.475282083E-1,-1.095898606E1,-3.619701893E0,-6.478050699E0,1.323505792E1
3.575582083E-1,-9.886942341E0,-4.052854857E0,-5.738397215E0,1.212874536E1
3.675872083E-1,-8.142743640E0,-3.473744865E0,-2.289721702E0,9.144069272E0
3.776162083E-1,-6.142417012E0,-2.070839370E0,-6.892446381E-1,6.518644079E0
3.876462083E-1,-3.534635430E0,3.802038542E0,7.031808919E-1,5.238664722E0
3.976752083E-1,-4.462013188E-1,1.207937222E1,2.947352200E0,1.244175285E1
4.077042083E-1,1.207731868E0,9.631959885E0,1.187208141E0,9.779710152E0
4.177332083E-1,1.016380859E0,4.275874094E0,-2.186180377E-1,4.400445792E0
4.277632083E-1,5.700830609E-1,2.273066493E0,-4.999205295E-1,2.396194173E0
4.377922083E-1,-1.408831063E-1,1.189231278E0,-2.483405678E-1,1.223025805E0
4.478212083E-1,-2.016345367E0,-2.924491341E0,1.259314835E0,3.768842275E0
4.578512083E-1,-2.044435099E0,-5.970272060E0,-3.155013725E0,7.055350802E0
4.678802083E-1,-8.853356928E-1,-8.808412305E0,-4.166171558E0,9.784116315E0
4.779092083E-1,4.458548713E-1,-8.219073193E0,-1.769130059E0,8.419131302E0
4.879382083E-1,1.268321301E0,-5.859517609E0,-6.187172771E-1,6.027055385E0
4.979682083E-1,1.814288106E0,-5.653298593E0,6.911210096E-1,5.977380242E0
5.079972083E-1,2.677055300E0,-5.991033769E0,2.254790436E0,6.938529427E0
5.180262083E-1,3.226414075E0,-5.127004745E0,2.659581481E0,6.615836991E0
5.280562083E-1,3.187064068E0,-3.561641380E0,2.614481907E0,5.447768565E0
5.380852083E-1,2.301830701E0,-5.018180460E0,3.149318537E0,6.356002435E0
5.481142083E-1,1.311463228E0,-5.970185521E0,3.496374174E0,7.041852265E0
5.581432083E-1,1.203442351E0,-4.329730459E0,2.768366590E0,5.278133469E0
5.681732083E-1,1.629773954E0,-2.793724210E0,2.528788623E0,4.105585220E0
5.782022083E-1,2.079784441E0,-7.182924360E-1,2.181659310E0,3.098561713E0
5.882312083E-1,2.129274690E0,2.310284606E0,1.368375932E0,3.426905069E0
5.982612083E-1,1.873644946E0,6.233775079E0,1.119325476E0,6.604800273E0
6.082902083E-1,9.252066869E-1,9.984176860E0,1.047317015E0,1.008150127E1
6.183192083E-1,-1.197328502E0,1.064281191E1,2.330549301E0,1.096058853E1
6.283482083E-1,-3.398738537E0,9.315533717E0,5.130910685E0,1.116498260E1
6.383782083E-1,-5.165607478E0,6.617776934E0,6.978768826E0,1.091703652E1
6.484072083E-1,-6.144128492E0,3.566059536E0,7.199572552E0,1.011439274E1
6.584362083E-1,-4.880897777E0,1.951515825E0,6.444414006E0,8.316372347E0
6.684662083E-1,-2.751022578E0,1.551792562E-2,5.612242953E0,6.250250954E0
6.784952083E-1,-7.097443914E-1,-1.987889015E0,4.194516521E0,4.695679789E0
6.885242083E-1,4.947457802E-1,-2.171959949E0,2.684688256E0,3.488514646E0
6.985532083E-1,1.005816987E0,-1.175782682E0,1.316458504E0,2.031550078E0
7.085832083E-1,1.210960701E0,-5.969872695E-1,9.749086046E-1,1.665312705E0
7.186122083E-1,1.807839212E0,-9.007384282E-1,9.893933272E-1,2.249113489E0
7.286412083E-1,3.049320624E0,-1.917619516E0,1.153622904E0,3.782389018E0
7.386712083E-1,4.424591593E0,-2.257713459E0,1.370131851E0,5.152818851E0
7.487002083E-1,5.761394314E0,-1.972978615E0,1.316764898E0,6.230584151E0
7.587292083E-1,7.450979437E0,-2.489986500E0,3.145357633E-1,7.862319001E0
7.687592083E-1,8.485305108E0,-2.911440355E0,-1.579096720E0,9.108810799E0
7.787882083E-1,7.986282089E0,-2.824554824E0,-2.787841326E0,8.918008232E0
7.888172083E-1,6.642648066E0,-2.542924851E0,-2.455904249E0,7.524806031E0
7.988462083E-1,5.584094456E0,-1.816860296E0,-1.528955530E0,6.068014276E0
8.088762083E-1,5.006131688E0,-3.996589440E-1,-1.132329683E0,5.148130948E0
8.189052083E-1,4.566459078E0,2.783976316E-1,-1.654885991E0,4.865048961E0
8.289342083E-1,2.405591297E0,1.358370761E0,-1.543088397E0,3.164358136E0
8.389642083E-1,1.351931807E0,2.881710187E0,-3.245525115E0,4.545921962E0
8.489932083E-1,2.890773371E0,3.799332451E0,-4.109305632E0,6.299038858E0
8.590222083E-1,2.363099289E0,3.997325605E0,-3.327389057E0,5.712649838E0
8.690512083E-1,6.832681990E-1,3.667901076E0,-5.342632517E0,6.516446573E0
8.790812083E-1,-2.014003850E0,2.424509379E0,-9.410251594E0,9.924076395E0
8.891102083E-1,-4.093630708E0,6.460916018E-1,-1.087709230E1,1.163986184E1
8.991392083E-1,-4.312575898E0,-3.529081160E-1,-9.370212200E0,1.032103346E1
9.091692083E-1,-4.224927012E0,-3.251086986E-1,-7.506421566E0,8.619864770E0
9.191982083E-1,-3.515422356E0,4.697436708E-1,-5.475485934E0,6.523787219E0
9.292272083E-1,-2.104204460E0,1.227261568E0,-2.425731154E0,3.437734574E0
9.392572083E-1,-4.830449170E-1,7.778352177E-1,1.988031395E0,2.188750521E0
9.492862083E-1,1.352526469E0,-4.402275109E-1,6.823395442E0,6.970068398E0
9.593152083E-1,1.661517903E0,-2.818112946E0,8.566311264E0,9.169737782E0
9.693442083E-1,2.547210860E-1,-5.159704714E0,7.263161023E0,8.912964917E0
9.793742083E-1,-1.151895052E0,-4.800964000E0,5.648513231E0,7.502120984E0
9.894032083E-1,-1.995507060E0,-3.389353171E0,4.912952213E0,6.293398350E0
9.994322083E-1,-2.130863378E0,-2.344957425E0,4.686489551E0,5.657083027E0
1.009461208E0,-1.998699347E0,-1.311422882E0,4.455330405E0,5.056144586E0
1.019491208E0,-1.548444154E0,-2.527844882E-1,4.063528365E0,4.355897389E0
1.029520208E0,-6.076116604E-1,1.120193787E0,3.519520962E0,3.743134229E0
1.039549208E0,3.881066000E-1,2.137475410E0,3.210496784E0,3.876431021E0
1.049579208E0,8.545635509E-1,2.363440474E0,3.143714565E0,4.024806952E0
1.059608208E0,9.351250264E-1,2.053713461E0,3.019365338E0,3.769451530E0
1.069637208E0,8.063830787E-1,1.642909139E0,2.907331517E0,3.435401091E0
1.079667208E0,9.930788273E-1,2.126060475E0,2.516819372E0,3.441034503E0
1.089696208E0,3.533399329E-1,2.153835334E0,2.732258863E0,3.497012189E0
1.099725208E0,-9.184034514E-1,6.692337120E-1,2.988480345E0,3.197241535E0
1.109754208E0,-2.245786601E0,-1.041737017E0,3.371299893E0,4.182635107E0
1.119784208E0,-3.536184065E0,-3.046974136E0,3.741163180E0,5.982052413E0
1.129813208E0,-4.056395347E0,-4.346593829E0,3.960748639E0,7.143861064E0
1.139842042E0,-3.913670952E0,-4.736643459E0,3.950535600E0,7.304747984E0
1.149872042E0,-2.927141883E0,-4.005366696E0,3.779982845E0,6.236937732E0
1.159901042E0,-1.667211921E0,-2.354510021E0,3.105808235E0,4.239027934E0
1.169930042E0,-9.318222266E-1,-6.200872797E-1,2.329667541E0,2.584598953E0
1.179959042E0,-5.209076849E-1,6.953462076E-1,1.692771124E0,1.902715229E0
1.189989042E0,-1.672116566E-1,1.479442039E0,1.116873153E0,1.861213079E0
1.200018042E0,2.801058957E-1,1.828941813E0,6.705434883E-1,1.968023384E0
1.210047042E0,6.256617227E-1,1.878631452E0,3.666157436E-1,2.013731816E0
1.220077042E0,8.107559189E-1,1.615719586E0,5.660338640E-2,1.808612420E0
1.230106042E0,8.589726439E-1,1.201103464E0,-2.306662438E-1,1.494553596E0
1.240135042E0,8.356244195E-1,7.102139229E-1,-4.007330775E-1,1.167586822E0
1.250165042E0,7.666568032E-1,1.912612545E-1,-5.300519262E-1,9.514717893E-1
1.260194042E0,7.215075275E-1,-2.629364240E-1,-5.938047762E-1,9.707279679E-1
1.270223042E0,7.361290750E-1,-6.078104657E-1,-7.405558558E-1,1.208198060E0
1.280252042E0,7.087600127E-1,-8.102486730E-1,-9.733263481E-1,1.451278005E0
1.290282042E0,5.396085423E-1,-8.230061281E-1,-1.360726751E0,1.679313477E0
1.300311042E0,3.285109010E-1,-4.985540718E-1,-1.847467546E0,1.941548843E0
1.310340042E0,9.491726696E-2,-6.057130694E-2,-2.171538364E0,2.174455573E0
1.320370042E0,-1.171805406E-1,3.283106339E-1,-2.222896652E0,2.250064150E0
1.330399042E0,-2.592301664E-1,6.085711884E-1,-2.095016438E0,2.196964507E0
1.340428042E0,-3.412487680E-1,7.488862377E-1,-1.942344029E0,2.109497961E0
1.350457042E0,-4.416992551E-1,6.815584731E-1,-1.839573367E0,2.010882979E0
1.360487042E0,-6.603719643E-1,3.937591034E-1,-1.754069386E0,1.915175390E0
1.370516042E0,-9.255364698E-1,-2.744507611E-2,-1.635697475E0,1.879594962E0
1.380545042E0,-1.144142521E0,-4.699442303E-1,-1.490541224E0,1.936910640E0
1.390575042E0,-1.220382027E0,-7.177445519E-1,-1.393320154E0,1.986411484E0
1.400604042E0,-1.209575203E0,-7.462117213E-1,-1.355805003E0,1.964207553E0
1.410633042E0,-1.147847901E0,-6.148668855E-1,-1.319952362E0,1.854154883E0
1.420663042E0,-1.162660360E0,-3.478789258E-1,-1.308995849E0,1.785012323E0
1.430692042E0,-1.257589906E0,-8.685454130E-3,-1.363121332E0,1.854644865E0
1.440721042E0,-1.453614011E0,2.785028815E-1,-1.435713929E0,2.061997098E0
1.450750042E0,-1.812497104E0,3.395963448E-1,-1.501250984E0,2.377861633E0
1.460780042E0,-2.231246330E0,2.195190936E-1,-1.489204843E0,2.691538571E0
1.470809042E0,-2.626820701E0,1.606335390E-1,-1.545628135E0,3.052041360E0
1.480838042E0,-2.818126102E0,1.505003142E-1,-1.733555161E0,3.312053528E0
1.490868042E0,-2.925133950E0,-3.782563806E-3,-2.127032575E0,3.616723725E0
1.500897042E0,-3.134719208E0,-5.078909057E-1,-3.013616648E0,4.377933644E0
1.510926042E0,-3.332282007E0,-1.111133527E0,-5.234314016E0,6.303710361E0
1.520955042E0,-3.630507840E0,-1.594291295E0,-1.037817979E1,1.110985903E1
1.530985042E0,-4.675720734E0,-2.267308740E0,-1.510794108E1,1.597663722E1
1.541014042E0,-6.255950060E0,-3.231575997E0,-1.115681023E1,1.319296817E1
1.551043042E0,-7.250213533E0,-3.911669158E0,-5.076837974E0,9.676829836E0
1.561073042E0,-7.579971353E0,-3.860974383E0,-1.560443664E0,8.648587938E0
1.571102042E0,-7.525585231E0,-2.955133089E0,3.834311664E-4,8.085001224E0
1.581131042E0,-7.823530104E0,-1.897304535E0,-2.396102728E-1,8.053868690E0
1.591161042E0,-8.253259524E0,-1.087834711E0,-8.806561661E-1,8.371095055E0
1.601190042E0,-7.987698870E0,-5.512912792E-1,-9.989774984E-1,8.068780041E0
1.611219042E0,-7.106790104E0,-7.513753974E-1,-5.923486733E-1,7.170907022E0
1.621248042E0,-5.813584807E0,-1.396170087E0,9.816913748E-1,6.058941919E0
1.631278042E0,-4.251573651E0,-1.745019650E0,3.172265350E0,5.584285052E0
1.641307042E0,-2.861320654E0,-1.755525928E0,4.449520612E0,5.573801292E0
1.651336042E0,-1.975364279E0,-2.079515469E0,4.552879504E0,5.380999944E0
1.661366042E0,-1.463974107E0,-3.028640192E0,4.289284683E0,5.451040698E0
1.671395042E0,-1.182614861E0,-3.539648248E0,3.916268578E0,5.409699363E0
1.681424042E0,-8.749016288E-1,-3.342657892E0,3.621903369E0,5.005696621E0
1.691453042E0,-3.807385236E-1,-2.576052251E0,4.133297634E0,4.885197679E0
1.701483042E0,2.127339846E-1,-1.484646061E0,4.856967462E0,5.083262988E0
1.711512042E0,7.040398479E-1,-2.651612896E-1,5.407441885E0,5.459524738E0
1.721541042E0,1.292341663E0,4.891570115E-1,4.877771856E0,5.069721869E0
1.731571042E0,1.897814120E0,6.519019800E-1,4.215694551E0,4.668913704E0
1.741600042E0,2.265276540E0,7.670710784E-1,4.163827409E0,4.801805341E0
1.751629042E0,2.490066022E0,7.750975513E-1,4.611073333E0,5.297471311E0
1.761658042E0,2.462699883E0,7.492277151E-1,4.934298059E0,5.565386798E0
1.771688042E0,1.709381163E0,7.091783810E-1,2.454396544E0,3.073919377E0
1.781717042E0,9.097764695E-1,6.407279509E-1,-3.187250009E-1,1.157502120E0
1.791746042E0,7.521747118E-1,5.441734636E-1,-7.409708619E-2,9.313334171E-1
1.801776042E0,9.265720117E-1,5.329093874E-1,1.523410177E0,1.860996152E0
1.811805042E0,1.035591301E0,4.856223696E-1,2.988003505E0,3.199444229E0
1.821834042E0,1.059976529E0,4.240546972E-1,3.695188862E0,3.867530653E0
1.831864042E0,1.008005892E0,2.503882992E-1,4.152675015E0,4.280593412E0
1.841893042E0,9.358053499E-1,-6.452519417E-2,4.777689743E0,4.868902796E0
1.851922042E0,8.369309798E-1,-2.697630483E-1,5.011476628E0,5.088037299E0
1.861951042E0,7.471855751E-1,-3.745983624E-1,4.718294896E0,4.791755100E0
1.871981042E0,7.637574613E-1,-3.906881458E-1,4.409509284E0,4.492185973E0
1.882010042E0,9.759076014E-1,-3.012836337E-1,3.959963066E0,4.089556817E0
1.892039042E0,1.473079976E0,-7.968702435E-2,3.294630909E0,3.609834825E0
1.902069042E0,2.451560352E0,1.489262438E-1,2.636253137E0,3.603076157E0
1.912098042E0,3.443517391E0,2.956293762E-1,2.160716630E0,4.076015838E0
1.922127042E0,4.204797680E0,4.164112169E-1,2.061827642E0,4.701580059E0
1.932156042E0,4.776184085E0,6.035133469E-1,2.139383064E0,5.268123258E0
1.942186042E0,5.170243735E0,8.523515493E-1,2.044219337E0,5.624656091E0
1.952215042E0,5.417463428E0,1.141349598E0,1.896063756E0,5.852063454E0
1.962244042E0,5.460903563E0,1.395517538E0,1.582937171E0,5.854453605E0
1.972274042E0,5.093331215E0,1.440061042E0,1.288008584E0,5.447454890E0
1.982303042E0,4.114274888E0,1.374076967E0,1.136346136E0,4.484041470E0
1.992332042E0,2.799578150E0,1.226656966E0,8.606320837E-1,3.175375995E0
2.002361042E0,1.415248090E0,9.167200381E-1,3.424769756E-1,1.720637458E0
2.012391042E0,3.728301644E-2,6.361419797E-1,-9.247868568E-2,6.439091154E-1
2.022420042E0,-1.324655131E0,5.415235054E-1,-2.811800292E-1,1.458431052E0
2.032449042E0,-2.465885446E0,6.429077929E-1,-1.741406071E-1,2.554260444E0
2.042479042E0,-3.258276722E0,7.735954016E-1,8.616953999E-2,3.349961527E0
2.052508042E0,-3.553090120E0,9.529517251E-1,2.633656096E-1,3.688079152E0
2.062537042E0,-3.120394407E0,1.094849616E0,2.180213293E-1,3.314074567E0
2.072567042E0,-2.217489586E0,1.066095933E0,-2.400203088E-1,2.472130730E0
2.082596042E0,-1.693811198E0,9.950031459E-1,-1.090673827E0,2.246908327E0
2.092625042E0,-1.684670245E0,7.490961528E-1,-2.346813916E0,2.984425311E0
2.102654042E0,-2.112726192E0,4.599636179E-1,-3.700742255E0,4.286102161E0
2.112684042E0,-2.707266694E0,8.657621384E-2,-4.679096332E0,5.406545188E0
2.122713042E0,-3.072593712E0,-5.364393514E-1,-5.351081743E0,6.193760983E0
2.132742042E0,-3.156519090E0,-1.424340802E0,-5.356444809E0,6.378390117E0
2.142771708E0,-3.000998649E0,-2.183376052E0,-5.835942221E0,6.916020928E0
2.152800708E0,-2.729132942E0,-2.496336576E0,-6.063127599E0,7.102209459E0
2.162829708E0,-2.356500121E0,-2.624123966E0,-4.146039887E0,5.443231223E0
2.172858708E0,-1.780849634E0,-3.152255008E0,-1.130134346E0,3.792801167E0
2.182888708E0,-1.054914887E0,-4.295290943E0,1.884495332E0,4.807670160E0
2.192917708E0,1.203669807E-1,-5.672382735E0,3.890110474E0,6.879198616E0
2.202946708E0,1.130105110E0,-6.754495361E0,3.559494867E0,7.718183002E0
2.212976708E0,2.130785610E0,-6.814887743E0,1.579196123E0,7.312783510E0
2.223005708E0,2.629550474E0,-4.314635872E0,8.976082675E-1,5.131892341E0
2.233034708E0,2.607155053E0,-3.627232522E-1,2.419074099E0,3.575016801E0
2.243063708E0,2.885261201E0,2.406232737E0,3.528454338E0,5.154093344E0
2.253093708E0,2.901788649E0,4.669513330E0,3.953843955E0,6.771825021E0
2.263122708E0,2.663254702E0,5.124157736E0,4.353333914E0,7.231973056E0
2.273151708E0,2.492550211E0,3.565097085E0,4.652925364E0,6.369649772E0
2.283181708E0,2.058769840E0,2.058695873E0,3.934907162E0,4.894921483E0
2.293210708E0,1.621012193E0,5.433607006E-1,3.424649888E0,3.827681836E0
2.303239708E0,1.169779930E0,-8.278306657E-1,3.252581242E0,3.554289441E0
2.313269708E0,7.697420865E-1,-1.630079763E0,3.093991013E0,3.580843937E0
2.323298708E0,4.327658790E-1,-2.128774168E0,2.537033197E0,3.339985510E0
2.333327708E0,-5.157214969E-2,-2.195808402E0,1.973994277E0,2.953114903E0
2.343356708E0,-4.809144840E-1,-1.641498790E0,1.894738777E0,2.552612789E0
2.353386708E0,-5.695307913E-1,-7.509263313E-1,1.905889417E0,2.126186762E0
2.363415708E0,-3.743831849E-1,1.013971514E-1,1.863681875E0,1.903616107E0
2.373444708E0,-1.681621215E-1,8.763163626E-1,1.673780683E0,1.896773746E0
2.383474708E0,1.031226647E-1,1.398439391E0,1.393692037E0,1.977029213E0
2.393503708E0,4.266546616E-1,1.693355992E0,1.134421817E0,2.082402837E0
2.403532708E0,6.567098531E-1,1.981785107E0,7.626956069E-1,2.222711099E0
2.413561708E0,7.948523694E-1,2.182086157E0,-1.271477044E-1,2.325823902E0
2.423591708E0,5.932128918E-1,1.901244389E0,-7.274380660E-1,2.120329668E0
2.433620708E0,2.492843449E-1,1.241218287E0,-9.972303504E-1,1.611593588E0
2.443649708E0,-1.531070030E-1,6.146593094E-1,-1.031858219E0,1.210776282E0
2.453679708E0,-7.119172168E-1,5.446096659E-3,-1.003243627E0,1.230184360E0
2.463708708E0,-1.366054880E0,-4.822695762E-1,-7.337407798E-1,1.623904372E0
2.473737708E0,-1.802584904E0,-4.666335368E-1,-2.189051360E-1,1.874827633E0
2.483767708E0,-1.877022883E0,3.237135530E-2,2.702484403E-1,1.896654166E0
2.493796708E0,-1.612773174E0,5.702777731E-1,5.299466032E-1,1.790837081E0
2.503825708E0,-1.375400485E0,8.359378302E-1,5.078856432E-1,1.687740020E0
2.513854708E0,-1.260839789E0,9.188361454E-1,4.159456323E-1,1.614616860E0
2.523884708E0,-1.077984492E0,8.576315850E-1,2.401352066E-1,1.398301619E0
2.533913708E0,-7.448882040E-1,6.242323709E-1,-4.201809168E-3,9.718755808E-1
2.543942708E0,-3.522374403E-1,3.568929935E-1,-3.334887819E-1,6.022114170E-1
2.553972708E0,-8.062725663E-3,2.537896246E-1,-5.901595489E-1,6.424659324E-1
2.564001708E0,2.790633371E-1,2.904089820E-1,-8.128659598E-1,9.071740690E-1
2.574030708E0,5.431230113E-1,4.114644724E-1,-1.010456898E0,1.218732440E0
2.584059708E0,7.859549537E-1,3.717390740E-1,-1.063591570E0,1.373732928E0
2.594089708E0,9.665710598E-1,8.396952510E-2,-9.840852249E-1,1.381931339E0
2.604118708E0,9.228485048E-1,-2.998288465E-1,-8.561563325E-1,1.294044190E0
2.614147708E0,6.185985786E-1,-5.490944803E-1,-1.035450529E0,1.325264784E0
2.624177708E0,5.170827287E-1,-6.244522262E-1,-1.281671226E0,1.516573856E0
2.634206708E0,4.716878700E-1,-4.171549827E-1,-1.646774879E0,1.763058487E0
2.644235708E0,4.783928722E-1,-1.874728435E-1,-1.895341625E0,1.963752958E0
2.654265708E0,5.357832938E-1,1.271365947E-1,-1.935381165E0,2.012194748E0
2.664294708E0,5.438042119E-1,2.418770921E-1,-1.918955605E0,2.009133685E0
2.674323708E0,5.427651617E-1,1.064924151E-1,-1.753139971E0,1.838323805E0
2.684352708E0,3.936456674E-1,-4.706950128E-2,-1.484658048E0,1.536678876E0
2.694382708E0,7.803401649E-3,-2.208972824E-1,-1.211968322E0,1.231959300E0
2.704411708E0,-5.721135065E-1,-5.187538630E-1,-9.762046400E-1,1.244746936E0
2.714440708E0,-1.228257934E0,-8.865653622E-1,-8.739815694E-1,1.748845184E0
2.724470708E0,-1.860137878E0,-1.085525646E0,-7.282157457E-1,2.273494452E0
2.734499708E0,-2.369586190E0,-1.064883220E0,-3.984539790E-1,2.628246670E0
2.744528708E0,-2.824941325E0,-1.160799776E0,-4.312052572E-1,3.084426621E0
2.754557708E0,-3.313730254E0,-1.350379956E0,-8.517592263E-1,3.678291451E0
2.764587708E0,-3.904589057E0,-1.616309570E0,-2.320694988E0,4.821192545E0
2.774616708E0,-4.247351961E0,-1.945480914E0,-6.175580665E0,7.743558047E0
2.784645708E0,-4.025027081E0,-2.272717414E0,-1.335717829E1,1.413436590E1
2.794675708E0,-4.542469706E0,-3.378855080E0,-1.779793510E1,1.867664816E1
2.804704708E0,-5.778137816E0,-4.908529964E0,-1.162259592E1,1.387678922E1
2.814733708E0,-5.921470029E0,-4.943288738E0,-5.155058516E0,9.277636507E0
2.824763708E0,-4.961692264E0,-3.399104573E0,-1.696285008E0,6.248974704E0
2.834792708E0,-4.300372466E0,-1.816391349E0,1.229420945E-2,4.668257922E0
2.844821708E0,-4.932074947E0,-7.358697510E-1,-4.444759516E-1,5.006438499E0
2.854850708E0,-4.668731849E0,8.059802055E-2,-1.279908875E0,4.841664987E0
2.864880708E0,-3.528682964E0,-2.305370021E-1,-1.212765736E0,3.738388891E0
2.874909708E0,-2.980350376E0,-1.366329991E0,3.494260625E-1,3.297187375E0
2.884938708E0,-2.154484960E0,-2.039931573E0,2.501709582E0,3.880937657E0
2.894968708E0,-1.130676383E0,-2.322456170E0,4.164869968E0,4.900854374E0
2.904997708E0,-5.122941515E-1,-2.412162398E0,4.955664954E0,5.535303774E0
2.915026708E0,-5.319969293E-1,-2.747676802E0,5.000683837E0,5.730583511E0
2.925055708E0,-5.255380949E-1,-3.151656838E0,4.425928266E0,5.458751884E0
2.935085708E0,-3.138963702E-1,-3.302477580E0,4.042580130E0,5.229468731E0
2.945114708E0,-3.889655560E-2,-2.850736901E0,3.942533101E0,4.865365461E0
2.955143708E0,3.818915945E-1,-1.930540109E0,3.902444590E0,4.370572054E0
2.965173708E0,1.125177077E0,-7.840490538E-1,4.066427414E0,4.291455265E0
2.975202708E0,1.881075296E0,1.390906423E-1,4.288503788E0,4.684981880E0
2.985231708E0,2.372600429E0,6.254702264E-1,4.815763303E0,5.404814705E0
2.995261708E0,2.409357489E0,9.258475417E-1,4.419454229E0,5.117985234E0
3.005290708E0,2.114376276E0,1.049126728E0,1.858104947E0,3.003965367E0
3.015319708E0,1.771251137E0,9.313749146E-1,-2.298442532E-1,2.014353048E0
3.025348708E0,1.560433577E0,7.401481587E-1,-5.933750059E-1,1.826161587E0
3.035378708E0,1.602846648E0,4.918227571E-1,-1.465942280E-1,1.683002338E0
3.045407708E0,1.844504470E0,3.007515371E-1,7.359425488E-1,2.008546654E0
3.055436708E0,1.973322724E0,1.527579242E-1,1.950148162E0,2.778563551E0
3.065466708E0,1.951689488E0,6.043565154E-2,3.038351540E0,3.611692734E0
3.075495708E0,1.801174263E0,-3.602703452E-2,3.608918750E0,4.033586644E0
3.085524708E0,1.572991642E0,-1.698890966E-1,3.793201937E0,4.109932597E0
3.095553708E0,1.464533101E0,-2.139507902E-1,3.943587646E0,4.212186566E0
3.105583708E0,1.387173561E0,-1.663000757E-1,4.039142260E0,4.273941553E0
3.115612708E0,1.494610301E0,-1.793457985E-2,4.119361088E0,4.382158986E0
3.125641708E0,1.693829324E0,1.838686198E-1,4.162683109E0,4.497865729E0
3.135671708E0,1.992121814E0,4.065545654E-1,3.865151341E0,4.367291017E0
3.145700417E0,2.491730139E0,6.122210205E-1,3.334938690E0,4.207772538E0
3.155729417E0,3.281023268E0,6.693231744E-1,2.872831775E0,4.412059565E0
3.165759417E0,4.168641714E0,5.246770924E-1,2.506545522E0,4.892405364E0
3.175788417E0,4.813677309E0,2.595350987E-1,2.222104208E0,5.308163036E0
3.185817417E0,5.297448742E0,1.002119207E-1,2.019452578E0,5.670202317E0
3.195846417E0,5.304387048E0,2.007226342E-1,1.901801044E0,5.638586591E0
3.205876417E0,4.740036598E0,6.504729205E-1,1.798970740E0,5.111492707E0
3.215905417E0,3.771645592E0,1.196564856E0,1.434322000E0,4.208842777E0
3.225934417E0,2.859734597E0,1.600085886E0,8.056691337E-1,3.374531013E0
3.235964417E0,2.083344226E0,1.860446611E0,3.841506663E-1,2.819424851E0
3.245993417E0,1.367073172E0,1.990928398E0,1.533996561E-1,2.419962065E0
3.256022417E0,6.214511427E-1,2.078043725E0,1.377910987E-1,2.173350784E0
3.266051417E0,-8.331843764E-2,2.104238082E0,4.361218885E-1,2.150572521E0
3.276081417E0,-6.828515849E-1,2.120612040E0,7.310133460E-1,2.344709411E0
3.286110417E0,-1.102676114E0,2.125791503E0,6.723818529E-1,2.487364365E0
3.296139417E0,-1.510037010E0,1.999924339E0,4.014180788E-1,2.537921513E0
3.306169417E0,-1.995871634E0,1.707386386E0,2.205227682E-1,2.635773537E0
3.316198417E0,-2.547093331E0,1.231922384E0,2.853441238E-3,2.829368364E0
3.326227417E0,-3.109401349E0,5.354084873E-1,-8.129351762E-1,3.258205426E0
3.336257417E0,-3.765453098E0,-3.748340052E-1,-3.015860809E0,4.838858749E0
3.346286417E0,-4.679872257E0,-1.341578143E0,-6.950149044E0,8.485611822E0
3.356315417E0,-5.812163349E0,-2.399051771E0,-1.099762095E1,1.266824214E1
3.366344417E0,-6.313220029E0,-3.387353423E0,-1.063161098E1,1.282037684E1
3.376374417E0,-5.136774273E0,-3.974741319E0,-6.981274942E0,9.535366710E0
3.386403417E0,-3.081331206E0,-3.811496998E0,-4.772022622E0,6.840636759E0
3.396432417E0,-1.371483435E0,-2.405625796E0,-3.389119282E0,4.376543361E0
3.406462417E0,2.964596808E-2,1.652195102E-1,-1.769580003E0,1.777523490E0
3.416491417E0,1.357453918E0,2.839124916E0,-1.076598117E-1,3.148793747E0
3.426520417E0,2.201686901E0,4.157391379E0,1.838376003E0,5.050837021E0
3.436550417E0,2.409415376E0,3.385534939E0,4.123063253E0,5.853783381E0
3.446579417E0,2.371138625E0,6.670158631E-1,5.984828703E0,6.471891775E0
3.456608417E0,1.830426129E0,-2.799201297E0,6.559730455E0,7.363154986E0
3.466637417E0,4.884635317E-1,-6.266594916E0,5.596779406E0,8.416219352E0
3.476667417E0,-2.167545301E-1,-8.232461563E0,3.955254303E0,9.135887615E0
3.486696417E0,-3.690315208E-1,-8.280674195E0,1.552253176E0,8.432985195E0
3.496725417E0,-1.137107736E0,-6.924195592E0,-4.847371012E0,8.528452634E0
3.506755417E0,8.323803842E-2,-2.489746179E0,-7.160619571E0,7.581572215E0
3.516784417E0,2.575944663E0,1.641788812E0,-3.107606839E0,4.357543078E0
3.526813417E0,3.884398329E0,3.526209592E0,-2.756275132E-2,5.246280985E0
3.536842417E0,4.224945431E0,3.860608932E0,1.751664426E0,5.985214573E0
3.546872417E0,3.828742484E0,3.200478750E0,2.562136463E0,5.609534427E0
3.556901417E0,3.371037060E0,2.263947176E0,2.989576113E0,5.042510586E0
3.566930417E0,2.685162465E0,9.586206007E-1,2.853754649E0,4.033976514E0
3.576960417E0,1.516354050E0,-6.641296774E-1,2.703027463E0,3.169661701E0
3.586989417E0,3.016601944E-1,-1.792710711E0,2.765590332E0,3.309577080E0
3.597018417E0,-6.184366107E-1,-2.122684293E0,2.786601716E0,3.557162011E0
3.607047417E0,-1.124592940E0,-1.743504052E0,2.667531356E0,3.379384440E0
3.617077417E0,-1.111313913E0,-8.311355120E-1,2.371311411E0,2.747530284E0
3.627106417E0,-9.173597234E-1,2.882022429E-1,1.939660596E0,2.164923237E0
3.637135417E0,-8.579850492E-1,1.009859751E0,1.694519588E0,2.151128005E0
3.647165417E0,-7.848012981E-1,1.227108371E0,1.533973757E0,2.115368412E0
3.657194417E0,-6.826194504E-1,1.314631834E0,1.380425874E0,2.024796722E0
3.667223417E0,-6.069722673E-1,1.373932541E0,1.190689573E0,1.916728364E0
3.677253417E0,-6.090068060E-1,1.534036907E0,8.697370756E-1,1.865636916E0
3.687282417E0,-5.943723947E-1,1.738608178E0,5.121418315E-1,1.907439697E0
3.697311417E0,-5.956637523E-1,1.759874502E0,1.132693380E-1,1.861398268E0
3.707340417E0,-6.276386663E-1,1.577939556E0,-9.678198058E-2,1.700938062E0
3.717370417E0,-5.335680762E-1,1.192586410E0,-1.193077942E-1,1.311941915E0
3.727399417E0,-2.599484968E-1,8.112701815E-1,-4.858626902E-2,8.532837476E-1
3.737428417E0,8.676537126E-2,5.967592281E-1,8.612290844E-3,6.030953304E-1
3.747458417E0,3.242731315E-1,3.369709450E-1,-8.859533049E-2,4.759743839E-1
3.757487417E0,3.805733398E-1,3.626150787E-2,-2.664407334E-1,4.659845795E-1
3.767516417E0,4.640362036E-1,-1.404694158E-1,-2.726610015E-1,5.562421026E-1
3.777546417E0,5.067714563E-1,-1.310144681E-1,-1.754018515E-1,5.520397715E-1
3.787575417E0,5.129095709E-1,9.766078055E-2,-1.787979144E-1,5.518899802E-1
3.797604417E0,5.104610494E-1,5.708870530E-1,-2.442178056E-1,8.038189142E-1
3.807633417E0,5.147093439E-1,1.215914462E0,-3.581753609E-1,1.368087452E0
3.817663417E0,6.095812950E-1,1.713167528E0,-4.747390933E-1,1.879337527E0
3.827692417E0,7.330610409E-1,1.814582806E0,-6.336586672E-1,2.057088368E0
3.837721417E0,6.877419037E-1,1.589220589E0,-7.337839030E-1,1.880704608E0
3.847751417E0,5.107402539E-1,1.148493142E0,-7.692376180E-1,1.473641278E0
3.857780417E0,2.560869956E-1,5.611923695E-1,-7.361024702E-1,9.603979755E-1
3.867809417E0,-5.627360344E-2,-1.451419258E-1,-7.204320784E-1,7.370585300E-1
3.877838417E0,-3.037160754E-1,-7.745941061E-1,-7.017092939E-1,1.088409581E0
3.887868417E0,-5.249808553E-1,-1.267682785E0,-6.672813267E-1,1.525742086E0
3.897897417E0,-6.798309132E-1,-1.533676134E0,-7.619519873E-1,1.842526359E0
3.907926417E0,-6.049976626E-1,-1.411208541E0,-9.205306685E-1,1.790225804E0
3.917956417E0,-3.449866006E-1,-9.681439608E-1,-1.132503346E0,1.529340482E0
3.927985417E0,-6.410507172E-2,-5.534945101E-1,-1.377107725E0,1.485560945E0
3.938014417E0,-1.745949358E-2,-4.444258118E-1,-1.677887768E0,1.735835965E0
3.948044417E0,-2.671911505E-1,-5.234088314E-1,-1.950719581E0,2.037315586E0
3.958073417E0,-8.301294985E-1,-7.869346547E-1,-2.254895978E0,2.528425796E0
3.968102417E0,-1.785551380E0,-1.065424672E0,-2.571209587E0,3.306726811E0
3.978131417E0,-2.927271399E0,-1.272559363E0,-3.299811834E0,4.590978471E0
3.988161417E0,-4.120432006E0,-1.302222873E0,-5.634875185E0,7.101095879E0
3.998190417E0,-5.310058263E0,-1.348526389E0,-9.809213549E0,1.123547563E1
4.008219417E0,-6.145157602E0,-1.748297600E0,-1.267542569E1,1.419457371E1
4.018249417E0,-6.316267598E0,-2.546053696E0,-1.010845124E1,1.218845406E1
4.028278417E0,-6.489145791E0,-3.550167389E0,-6.445371780E0,9.810989704E0
4.038307417E0,-6.976591322E0,-4.599225120E0,-4.806698657E0,9.640023349E0
4.048337417E0,-7.456399806E0,-5.061391969E0,-3.344149224E0,9.612435735E0
4.058366417E0,-7.212873799E0,-4.457258232E0,-2.561015552E0,8.857285139E0
4.068395417E0,-6.272987092E0,-3.342190114E0,-2.657774107E0,7.588436270E0
4.078424417E0,-4.826586792E0,-2.487548795E0,-3.442402620E0,6.429150400E0
4.088454417E0,-3.183275657E0,-2.394223725E0,-4.014362637E0,5.655144431E0
4.098483417E0,-1.949521048E0,-2.956945142E0,-2.195295748E0,4.166950960E0
4.108512417E0,-1.292636655E0,-3.420219453E0,5.869242114E-1,3.703146049E0
4.118542417E0,-5.403926539E-1,-3.276500155E0,2.539897163E0,4.180736189E0
4.128571417E0,8.914372623E-2,-3.140136069E0,3.608356540E0,4.784207150E0
4.138600167E0,6.194209895E-1,-3.377365209E0,4.054371625E0,5.313022435E0
4.148629167E0,1.316753789E0,-3.861280777E0,4.245377941E0,5.887831828E0
4.158659167E0,1.747706738E0,-4.198819486E0,4.533885409E0,6.421890751E0
4.168688167E0,1.776396102E0,-4.054675096E0,4.224484670E0,6.119006780E0
4.178717167E0,2.076559994E0,-3.315658958E0,4.240549310E0,5.769571404E0
4.188747167E0,2.372187616E0,-2.126618299E0,4.969735694E0,5.903223894E0
4.198776167E0,3.185347910E0,-9.882882035E-1,4.872152681E0,5.904322707E0
4.208805167E0,4.113144329E0,-1.558060777E-1,5.047660367E0,6.513148777E0
4.218835167E0,4.250768489E0,2.681924862E-1,4.730650355E0,6.365533186E0
4.228864167E0,4.146093681E0,5.118868929E-1,3.899776213E0,5.714925679E0
4.238893167E0,3.460305917E0,7.011302733E-1,1.656177494E0,3.899772377E0
4.248922167E0,2.215044865E0,6.796785933E-1,-1.447368307E0,2.731897099E0
4.258952167E0,1.517933383E0,5.387016392E-1,-2.621752042E0,3.076996097E0
4.268981167E0,1.626320880E0,5.272065979E-1,-1.352965010E0,2.180224925E0
4.279010167E0,2.108058068E0,4.307152605E-1,7.638822994E-1,2.283186506E0
4.289040167E0,2.520843134E0,3.607732058E-2,3.432202152E0,4.258633970E0
4.299069167E0,2.591860784E0,-1.318061811E-1,4.996315967E0,5.630123305E0
4.309098167E0,2.361587783E0,-2.304452008E-1,5.139193851E0,5.660522528E0
4.319127167E0,2.232561076E0,-1.388854051E-1,4.892970231E0,5.380034925E0
4.329157167E0,2.049576263E0,6.807620823E-2,4.532607500E0,4.974929947E0
4.339186167E0,1.840251790E0,3.067887872E-1,4.280665011E0,4.669554469E0
4.349215167E0,1.602335017E0,5.724728179E-1,4.072241009E0,4.413428312E0
4.359245167E0,1.526820273E0,9.086362624E-1,3.889804372E0,4.276374406E0
4.369274167E0,1.790011344E0,1.353008865E0,3.813112291E0,4.424319037E0
4.379303167E0,2.472348081E0,1.852174555E0,3.970993838E0,5.031088121E0
4.389333167E0,3.211898070E0,2.333126169E0,4.159012519E0,5.749534943E0
4.399362167E0,3.802922933E0,2.696369238E0,4.107344768E0,6.213124089E0
4.409391167E0,4.198067827E0,2.918386263E0,3.963412631E0,6.469110568E0
4.419420167E0,4.288028994E0,3.017811733E0,3.831080785E0,6.493963373E0
4.429450167E0,4.132643039E0,3.081844591E0,3.656726462E0,6.320455125E0
4.439479167E0,3.712509192E0,3.140109172E0,3.317668646E0,5.886419570E0
4.449508167E0,3.148685575E0,3.180576582E0,2.777780022E0,5.267480432E0
4.459538167E0,2.427038299E0,3.118305489E0,1.928251508E0,4.396873652E0
4.469567167E0,1.629062640E0,2.949225063E0,8.680557087E-1,3.479266341E0
4.479596167E0,8.315033019E-1,2.643268919E0,-3.304507148E-1,2.790603160E0
4.489626167E0,-9.803149402E-3,2.208360035E0,-1.548304990E0,2.697072207E0
4.499655167E0,-1.131242686E0,1.653338817E0,-2.236795922E0,3.002747951E0
4.509684167E0,-2.130219600E0,1.043041531E0,-2.707755522E0,3.599682089E0
4.519713167E0,-2.923902818E0,2.675229800E-1,-3.724814365E0,4.742891343E0
4.529743167E0,-4.196832603E0,-7.962206179E-1,-5.448883442E0,6.923705794E0
4.539772167E0,-5.852237241E0,-2.027081732E0,-8.124976290E0,1.021630955E1
4.549801167E0,-7.923390607E0,-3.138689468E0,-1.079598089E1,1.375444269E1
4.559831167E0,-9.614677269E0,-3.505274806E0,-1.120765762E1,1.517697466E1
4.569860167E0,-9.502331207E0,-2.776780148E0,-7.454982440E0,1.239280313E1
4.579889167E0,-7.377053089E0,-1.544794030E0,-3.672258129E0,8.384078998E0
4.589919167E0,-4.397825378E0,-1.582765263E-1,-2.727585769E0,5.177416696E0
4.599948167E0,-2.253449377E0,1.184016146E0,-1.700548067E0,3.061338279E0
4.609977167E0,-6.028932497E-1,2.556757609E0,-9.545491844E-2,2.628612064E0
4.620006167E0,7.541861540E-1,3.465279266E0,1.718966796E0,3.941040979E0
4.630036167E0,1.911807092E0,2.899000989E0,4.058478709E0,5.341391441E0
4.640065167E0,3.240507911E0,3.237544835E-1,6.140635951E0,6.950763869E0
4.650094167E0,3.769451424E0,-3.432368798E0,6.542988707E0,8.294613965E0
4.660124167E0,2.791207860E0,-8.017022656E0,5.787177612E0,1.027399233E1
4.670153167E0,2.693866923E0,-1.167837485E1,4.680596727E0,1.286659799E1
4.680182167E0,3.081059895E0,-1.308615283E1,3.644239733E0,1.392913526E1
4.690212167E0,3.048850215E0,-1.301905369E1,9.990062229E-1,1.340855175E1
4.700241167E0,5.109335044E0,-1.007138925E1,-1.120156716E1,1.590639157E1
4.710270167E0,7.486467943E0,-3.881419757E0,-7.454216455E0,1.125513059E1
4.720299167E0,6.417167736E0,-4.352135235E-1,-8.142775507E-1,6.483247681E0
4.730329167E0,5.576355082E0,1.577827874E0,8.300029063E-1,5.854415566E0
4.740358167E0,4.953503823E0,3.089554730E0,1.589162117E0,6.050453272E0
4.750387167E0,4.306295403E0,4.083147528E0,1.746813576E0,6.186083697E0
4.760417167E0,3.900443673E0,4.284068967E0,2.165823880E0,6.185264816E0
4.770446167E0,3.334489039E0,3.460395087E0,2.775605443E0,5.549516815E0
4.780475167E0,2.521800323E0,2.188630945E0,3.209908555E0,4.631748613E0
4.790504167E0,1.474983537E0,8.249760550E-1,3.364458650E0,3.765068915E0
4.800534167E0,5.349974281E-1,-2.453520924E-1,3.467120554E0,3.516723594E0
4.810563167E0,-9.506929457E-2,-9.141320604E-1,3.537012323E0,3.654467371E0
4.820592167E0,-4.221701396E-1,-9.495685261E-1,3.781501951E0,3.921691602E0
4.830622167E0,-3.573841596E-1,-5.640639371E-1,3.844827297E0,3.902382414E0
4.840651167E0,-4.180291414E-2,-4.225782752E-2,3.790045903E0,3.790511991E0
4.850680167E0,1.788584331E-1,5.884222680E-1,3.492178212E0,3.545918749E0
4.860710167E0,2.767457932E-1,1.218635171E0,3.137465061E0,3.377180321E0
4.870739167E0,1.289658961E-1,1.675333119E0,2.941586845E0,3.387669764E0
4.880768167E0,-1.977475709E-1,1.788008380E0,2.768139718E0,3.301314218E0
4.890797167E0,-7.361550951E-1,1.692598193E0,2.738382068E0,3.302355116E0
4.900827167E0,-1.032403984E0,1.621996572E0,2.740244991E0,3.347487636E0
4.910856167E0,-1.029562822E0,1.600233235E0,2.568874794E0,3.196852158E0
4.920885167E0,-1.009095228E0,1.421209034E0,2.275953848E0,2.866718371E0
4.930915167E0,-1.045822467E0,1.279287754E0,2.004476981E0,2.597739355E0
4.940944167E0,-1.344953740E0,1.137858226E0,1.943147875E0,2.622869720E0
4.950973167E0,-1.367432484E0,9.245734334E-1,1.637095252E0,2.324820100E0
4.961003167E0,-1.340138851E0,6.525235391E-1,1.134118347E0,1.872961167E0
4.971032167E0,-1.310615966E0,4.259626436E-1,6.130004909E-1,1.508286441E0
4.981061167E0,-1.150758938E0,2.357743531E-1,1.583823244E-1,1.185293482E0
4.991090167E0,-1.006084204E0,2.794910610E-2,-1.637273739E-1,1.019702521E0
5.001120167E0,-9.547699168E-1,-2.376834691E-1,-5.443061223E-1,1.124432381E0
5.011149167E0,-8.932326499E-1,-5.030722153E-1,-9.826088029E-1,1.420023338E0
5.021178167E0,-7.765190095E-1,-6.969419128E-1,-1.294629679E0,1.662761500E0
5.031208167E0,-5.698699299E-1,-7.672827476E-1,-1.517838365E0,1.793685551E0
5.041237167E0,-3.955694014E-1,-8.585981297E-1,-1.700039359E0,1.945199147E0
5.051266167E0,-3.417738479E-1,-1.077531332E0,-1.926743658E0,2.233880986E0
5.061296167E0,-4.112370157E-1,-1.331125660E0,-2.259102173E0,2.654157876E0
5.071325167E0,-5.150774261E-1,-1.547191973E0,-2.886918302E0,3.315630413E0
5.081354167E0,-4.769307759E-1,-1.567261956E0,-4.496250390E0,4.785398685E0
5.091383167E0,-6.296281815E-2,-1.322181174E0,-8.371294928E0,8.475299767E0
5.101413167E0,5.256608865E-1,-1.095085258E0,-1.292808622E1,1.298502770E1
5.111442167E0,3.496500474E-1,-1.361107258E0,-1.208405233E1,1.216549173E1
5.121471167E0,-1.076648695E0,-1.981690382E0,-6.027454321E0,6.435563283E0
5.131501167E0,-2.546817343E0,-2.118871908E0,-2.145674375E0,3.947127470E0
5.141531042E0,-3.084247797E0,-1.688321539E0,-1.296008452E0,3.747352666E0
5.151560042E0,-3.131321976E0,-1.162025353E0,-1.975892575E0,3.880674131E0
5.161590042E0,-3.338691140E0,-8.099592358E-1,-2.889477336E0,4.489094761E0
5.171619042E0,-4.107497672E0,-1.091399174E0,-2.162867528E0,4.768719454E0
5.181648042E0,-4.983570206E0,-1.791298608E0,-1.415981038E0,5.481762947E0
5.191677042E0,-5.404075059E0,-2.304455516E0,-2.702707913E0,6.466774507E0
5.201707042E0,-4.945720010E0,-2.371447651E0,-9.730792447E0,1.117014915E1
5.211736042E0,-4.559301501E0,-2.743514754E0,-2.033022152E1,2.101504248E1
5.221765042E0,-4.782939958E0,-3.933041900E0,-1.517287675E1,1.638784678E1
5.231795042E0,-3.928952358E0,-4.521520886E0,-4.791654941E0,7.670774069E0
5.241824042E0,-3.576562305E0,-3.610152220E0,-1.456853660E0,5.286531903E0
5.251853042E0,-3.200767018E0,-2.471642030E0,-1.006986430E0,4.167486712E0
5.261883042E0,-2.609931019E0,-2.909105562E0,-2.418858629E-1,3.915755848E0
5.271912042E0,-2.936089293E0,-3.872720854E0,1.263925511E0,5.021562988E0
5.281941042E0,-2.638221018E0,-4.215828452E0,3.276830522E0,5.955756707E0
5.291970042E0,-1.644073027E0,-4.303130890E0,4.667483761E0,6.557843871E0
5.302000042E0,-1.279333070E0,-4.497273068E0,4.839376114E0,6.729169289E0
5.312029042E0,-9.111844790E-1,-5.003913839E0,4.454081440E0,6.760787849E0
5.322058042E0,-6.186213827E-1,-6.003540378E0,3.978059614E0,7.228426369E0
5.332088042E0,-2.429176041E-1,-7.028522199E0,2.979703674E0,7.637916421E0
5.342117042E0,7.118102127E-1,-7.446104028E0,2.252286804E0,7.811781796E0
5.352146042E0,2.061733209E0,-6.215632339E0,1.694347533E0,6.764291741E0
5.362175042E0,3.472577176E0,-4.190826343E0,1.383993699E0,5.615804149E0
5.372205042E0,4.533977502E0,-2.448106402E0,1.468665036E0,5.357905742E0
5.382234042E0,5.358414152E0,-1.229947779E0,1.807394970E0,5.787231664E0
5.392263042E0,5.566974394E0,-2.472594541E-1,1.977889692E0,5.913069319E0
5.402293042E0,5.436600780E0,4.377342582E-1,2.223311366E0,5.889936566E0
5.412322042E0,5.249425560E0,7.870153463E-1,2.970899814E0,6.082935769E0
5.422351042E0,4.814122867E0,9.346212888E-1,3.869311635E0,6.246668589E0
5.432381042E0,4.300961573E0,1.036709581E0,3.330966969E0,5.537903769E0
5.442410042E0,4.053953842E0,1.099687602E0,2.866677873E0,5.085439666E0
5.452439042E0,3.991859043E0,1.195828106E0,2.931707389E0,5.095081127E0
5.462468042E0,3.853653961E0,1.355802664E0,3.346541905E0,5.280927232E0
5.472498042E0,3.666711752E0,1.614864723E0,3.675764996E0,5.437261393E0
5.482527042E0,3.463959842E0,1.839511825E0,4.060077631E0,5.645090957E0
5.492556042E0,3.155118390E0,1.836792285E0,4.526520548E0,5.815321678E0
5.502586042E0,2.848584249E0,1.754034303E0,5.042817703E0,6.051535255E0
5.512615042E0,2.455565695E0,1.702474725E0,5.184543686E0,5.983954905E0
5.522644042E0,2.199186046E0,1.642916740E0,5.304737881E0,5.972925470E0
5.532674042E0,2.175451613E0,1.576260236E0,5.556075768E0,6.171479887E0
5.542703042E0,2.407965851E0,1.676612490E0,5.733245233E0,6.440452615E0
5.552732042E0,2.867529520E0,1.900740359E0,5.969334167E0,6.889738010E0
5.562762042E0,3.407442702E0,2.162497984E0,5.930511578E0,7.173425324E0
5.572791042E0,3.867051394E0,2.445913696E0,5.471039711E0,7.132240589E0
5.582820042E0,4.243938064E0,2.688028770E0,4.880269201E0,7.003822988E0
5.592849042E0,4.514453065E0,2.932760473E0,4.275019816E0,6.874384692E0
5.602879042E0,4.526091947E0,3.088126840E0,3.666486050E0,6.592810907E0
5.612908042E0,4.134661497E0,3.189211750E0,2.887729311E0,5.967032584E0
5.622937042E0,3.284306480E0,3.183484987E0,1.544017227E0,4.827549577E0
5.632967042E0,2.056913642E0,2.930722134E0,-2.566889665E-1,3.589695694E0
5.642996042E0,6.366001090E-1,2.436269299E0,-1.926032490E0,3.170215915E0
5.653025042E0,-1.006666002E0,1.720681785E0,-3.462023537E0,3.994962980E0
5.663055042E0,-2.929587189E0,8.904537606E-1,-5.388837215E0,6.197979955E0
5.673084042E0,-4.672086105E0,-1.159994030E-1,-6.773235687E0,8.229129122E0
5.683113042E0,-6.245891680E0,-1.415388715E0,-7.923311670E0,1.018790243E1
5.693142042E0,-7.933850107E0,-2.956411875E0,-1.095619460E1,1.384646341E1
5.703172042E0,-1.008153768E1,-4.479783461E0,-1.297513525E1,1.703114784E1
5.713201042E0,-1.147569165E1,-5.367479090E0,-1.108807738E1,1.683587807E1
5.723230042E0,-9.914889693E0,-4.581500455E0,-6.734938763E0,1.283178024E1
5.733260042E0,-6.128550925E0,-2.357717804E0,-4.070426910E0,7.725693814E0
5.743289042E0,-2.900916244E0,6.955666476E-1,-1.372591482E0,3.283768474E0
5.753318042E0,-2.423781985E-1,3.682015085E0,2.013845536E0,4.203755003E0
5.763347042E0,2.015016295E0,5.550723227E0,4.630955036E0,7.504436258E0
5.773377042E0,3.465259678E0,5.405494763E0,5.929974804E0,8.740251681E0
5.783406042E0,4.036546973E0,2.759746040E0,5.789406570E0,7.578069550E0
5.793435042E0,3.471978129E0,-1.811320644E0,5.864579544E0,7.051865557E0
5.803465042E0,1.894386774E0,-7.380737420E0,6.119865471E0,9.773266572E0
5.813494042E0,1.527248582E0,-1.200607387E1,5.145481946E0,1.315120840E1
5.823523042E0,1.451569239E0,-1.417646793E1,3.930990697E0,1.478282734E1
5.833553042E0,9.950013918E-1,-1.506085813E1,-1.039846846E1,1.832887399E1
5.843582042E0,3.781060194E0,-9.471765472E0,-1.657400410E1,1.946043086E1
5.853611042E0,5.093199652E0,-2.009405599E0,-2.562853332E0,6.045379290E0
5.863640042E0,4.267699395E0,1.009197847E0,1.063661006E0,4.512550626E0
5.873670042E0,4.124339992E0,3.112229648E0,3.028837535E0,5.989157751E0
5.883699042E0,4.229621449E0,4.701649627E0,4.415500342E0,7.713096012E0
5.893728042E0,3.905672838E0,5.274718276E0,5.079111371E0,8.299054496E0
5.903758042E0,3.191700325E0,4.879530698E0,5.195456929E0,7.809580238E0
5.913787042E0,1.916381076E0,3.550516468E0,4.569781466E0,6.096030369E0
5.923816042E0,4.881694168E-1,1.862396657E0,4.171239924E0,4.594134652E0
5.933846042E0,-6.724748236E-1,4.658991265E-1,4.115910062E0,4.196427054E0
5.943875042E0,-1.395253828E0,-5.668565673E-1,4.054011437E0,4.324704422E0
5.953904042E0,-1.663430819E0,-1.110982668E0,3.949959065E0,4.427579609E0
5.963934042E0,-1.602123055E0,-9.428331184E-1,3.753164005E0,4.188313816E0
5.973963042E0,-1.429428757E0,-3.510440236E-1,3.524978753E0,3.819944200E0
5.983992042E0,-1.204629043E0,3.051123905E-1,3.254387155E0,3.483570073E0
5.994021042E0,-1.002640487E0,1.030194613E0,2.885555316E0,3.223820462E0
6.004051042E0,-9.175883496E-1,1.716522076E0,2.576439922E0,3.229002801E0
6.014080042E0,-9.294351009E-1,2.336716359E0,2.328023304E0,3.426920695E0
6.024109042E0,-9.906703591E-1,2.647944937E0,2.021561376E0,3.475593553E0
6.034139042E0,-1.007610912E0,2.389989172E0,1.769539365E0,3.139840371E0
6.044168042E0,-8.255283245E-1,1.787061716E0,1.619199264E0,2.548900321E0
6.054197042E0,-6.610239288E-1,1.243634942E0,1.362692438E0,1.959722221E0
6.064227042E0,-5.995273000E-1,8.235405636E-1,9.264737785E-1,1.376955230E0
6.074256042E0,-5.125628310E-1,5.666144925E-1,4.931582612E-1,9.093831478E-1
6.084285042E0,-3.045922807E-1,6.371611494E-1,2.447439637E-1,7.474291910E-1
6.094314042E0,2.475126386E-2,1.040913729E0,4.012713868E-2,1.041980904E0
6.104344042E0,3.585357687E-1,1.485778082E0,-2.011575940E-1,1.541605911E0
6.114373042E0,6.091105941E-1,1.744406862E0,-4.667808867E-1,1.905742746E0
6.124402042E0,7.695041049E-1,1.724890026E0,-7.038539064E-1,2.015636994E0
6.134432042E0,7.072692651E-1,1.308850692E0,-8.643682352E-1,1.720596522E0
6.144460208E0,5.392220414E-1,6.233710760E-1,-9.951925957E-1,1.292192018E0
6.154489208E0,3.943192667E-1,-5.869259655E-2,-1.150891816E0,1.217983775E0
6.164519208E0,1.881721705E-1,-6.878617716E-1,-1.259333108E0,1.447232690E0
6.174548208E0,-4.952065408E-2,-1.131265490E0,-1.422849909E0,1.818437727E0
6.184577208E0,-3.656866211E-1,-1.406930718E0,-1.566546987E0,2.137112588E0
6.194606208E0,-6.078858948E-1,-1.522668750E0,-1.783694450E0,2.422728065E0
6.204636208E0,-7.469882315E-1,-1.506046286E0,-2.157424063E0,2.735076858E0
6.214665208E0,-8.680869913E-1,-1.614101661E0,-2.874862513E0,3.409359715E0
6.224694208E0,-9.448384210E-1,-1.909314716E0,-4.358061680E0,4.850866308E0
6.234724208E0,-6.636168766E-1,-2.001459233E0,-6.591798339E0,6.920840395E0
6.244753208E0,-2.066414782E-1,-1.920049619E0,-9.192254530E0,9.392914063E0
6.254782208E0,-3.185013449E-1,-2.074072296E0,-9.906624069E0,1.012642185E1
6.264812208E0,-1.545036397E0,-2.469968557E0,-6.765221493E0,7.365874286E0
6.274841208E0,-3.058758907E0,-2.417852324E0,-3.501328228E0,5.240354498E0
6.284870208E0,-3.968228690E0,-1.938126871E0,-2.502696300E0,5.076087418E0
6.294899208E0,-4.456835771E0,-1.352104300E0,-2.919460689E0,5.496801055E0
6.304929208E0,-5.064746516E0,-1.094171339E0,-3.182576330E0,6.080925940E0
6.314958208E0,-6.065146058E0,-1.445928723E0,-2.853968365E0,6.857247407E0
6.324987208E0,-7.292789449E0,-2.192315860E0,-3.992211630E0,8.598184720E0
6.335017208E0,-8.645460929E0,-3.106930901E0,-9.545351511E0,1.324804702E1
6.345046208E0,-9.896829983E0,-4.368403358E0,-1.570960203E1,1.907411302E1
6.355075208E0,-9.246987977E0,-4.871400729E0,-9.313903513E0,1.399950465E1
6.365105208E0,-7.475388054E0,-3.656548122E0,-1.500879101E0,8.456027956E0
6.375134208E0,-7.334185982E0,-2.786659604E0,-1.276378472E-1,7.846785787E0
6.385163208E0,-6.431377639E0,-2.853686821E0,-5.488958211E-1,7.057438164E0
6.395192208E0,-5.368594154E0,-3.641868687E0,9.487019688E-1,6.556298205E0
6.405222208E0,-4.339206164E0,-4.205678270E0,3.036200057E0,6.762762057E0
6.415251208E0,-2.400660633E0,-4.003528331E0,4.485480988E0,6.473866717E0
6.425280208E0,-9.046657106E-1,-3.841324815E0,4.776973459E0,6.196262729E0
6.435310208E0,-5.567309439E-2,-3.962239972E0,4.478953156E0,5.980256388E0
6.445339208E0,4.446491754E-1,-4.444507794E0,4.088066790E0,6.055051816E0
6.455368208E0,6.630900425E-1,-5.005734662E0,3.411481959E0,6.093872091E0
6.465398208E0,8.729957289E-1,-4.979159067E0,3.095477375E0,5.927573427E0
6.475427208E0,1.172381064E0,-4.071300484E0,3.257839351E0,5.344481474E0
6.485456208E0,1.956575421E0,-2.538486814E0,3.976743113E0,5.107503155E0
6.495486208E0,2.905068644E0,-1.180101435E0,4.089373350E0,5.153158024E0
6.505515208E0,3.930478189E0,-4.792179143E-1,3.890251976E0,5.550889031E0
6.515544208E0,4.745661327E0,-5.314066529E-2,3.868755273E0,6.123021535E0
6.525573208E0,4.926433554E0,3.457324129E-1,3.415026541E0,6.004305516E0
6.535603208E0,4.652055006E0,4.070170802E-1,2.445391248E0,5.271358177E0
6.545632208E0,4.245136451E0,2.883671343E-1,1.463177424E0,4.499469665E0
6.555661208E0,3.831239537E0,7.876667261E-2,1.202672857E0,4.016344430E0
6.565691208E0,3.616639121E0,-3.101889431E-2,1.493899280E0,3.913154196E0
6.575720208E0,3.613971621E0,8.145112932E-2,2.009767542E0,4.136011453E0
6.585749208E0,3.609298527E0,2.104453844E-1,3.310354656E0,4.902017040E0
6.595779208E0,3.406798631E0,3.854806155E-1,4.977866832E0,6.044338708E0
6.605808208E0,3.043439494E0,7.439441711E-1,5.877693679E0,6.660575041E0
6.615837208E0,2.677699079E0,1.155888115E0,6.336649822E0,6.975620450E0
6.625866208E0,2.198267741E0,1.405857169E0,6.855166288E0,7.334992861E0
6.635896208E0,1.668081110E0,1.480920215E0,7.311378332E0,7.644074332E0
6.645925208E0,1.149121425E0,1.516065490E0,7.298496332E0,7.542346009E0
6.655954208E0,6.570422673E-1,1.541475735E0,6.869332922E0,7.070755743E0
6.665984208E0,5.946214861E-1,1.485482798E0,6.514174213E0,6.707808847E0
6.676013208E0,1.185536422E0,1.481102064E0,6.019736581E0,6.311607437E0
6.686042208E0,2.107341784E0,1.704822966E0,5.484614607E0,6.117867940E0
6.696072208E0,2.885117944E0,2.037370493E0,5.063754829E0,6.173847831E0
6.706101208E0,3.565573633E0,2.425884644E0,4.616126497E0,6.317187307E0
6.716130208E0,4.070014389E0,2.817629381E0,4.153788325E0,6.462043787E0
6.726159208E0,4.462188897E0,3.198224648E0,3.446524614E0,6.482152618E0
6.736189208E0,4.662950707E0,3.510169510E0,2.321637560E0,6.281273776E0
6.746218208E0,4.565299867E0,3.662128705E0,1.198226927E0,5.974018521E0
6.756247208E0,4.127190218E0,3.640230882E0,5.196356231E-1,5.527657836E0
6.766277208E0,3.449420740E0,3.378863851E0,4.104774624E-1,4.846000012E0
6.776306208E0,2.412816117E0,2.813134042E0,-2.913205630E-1,3.717562699E0
6.786335208E0,6.801867163E-1,1.693164203E0,-2.229764353E0,2.881199066E0
6.796365208E0,-1.332573138E0,1.217513090E-1,-5.215682448E0,5.384600073E0
6.806394208E0,-3.307382517E0,-1.909698293E0,-8.359443791E0,9.190540092E0
6.816423208E0,-5.447220494E0,-4.594761356E0,-1.037253723E1,1.258465620E1
6.826452208E0,-7.969691784E0,-7.319810602E0,-1.363905385E1,1.741032465E1
6.836482208E0,-1.034791694E1,-8.715557935E0,-1.306480231E1,1.880769509E1
6.846511208E0,-9.758735706E0,-7.356354530E0,-6.608160603E0,1.389304362E1
6.856540208E0,-6.071051745E0,-4.568920171E0,-3.134312535E0,8.219283173E0
6.866570208E0,-2.878123213E0,-1.940590888E0,-2.745436149E0,4.425709646E0
6.876599208E0,-1.164445223E0,7.742573065E-1,-1.191768092E0,1.837312777E0
6.886628208E0,5.054365370E-1,3.546794715E0,9.808587313E-1,3.714472061E0
6.896658208E0,1.821432526E0,4.898171622E0,3.259798460E0,6.159219730E0
6.906687208E0,2.626596753E0,3.725863940E0,5.806535404E0,7.382203329E0
6.916716208E0,3.308881743E0,4.304088664E-1,7.894295447E0,8.570522200E0
6.926746208E0,3.167812110E0,-3.734341818E0,8.174229727E0,9.528818080E0
6.936775208E0,2.132045393E0,-8.038663786E0,7.138325307E0,1.095999184E1
6.946804208E0,1.541409661E0,-1.092806482E1,5.603056977E0,1.237710757E1
6.956833208E0,1.257218608E0,-1.128156642E1,3.700568593E0,1.193936965E1
6.966863208E0,5.098155168E-1,-9.512322929E0,8.312366688E-1,9.562173067E0
6.976892208E0,1.226295901E0,-5.366937053E0,-3.107383475E0,6.321680713E0
6.986921208E0,3.256950866E0,-9.023996222E-1,-2.405635444E0,4.148389556E0
6.996951208E0,3.838279585E0,1.418360855E0,-1.546623623E-1,4.094881943E0
7.006980208E0,4.002148388E0,2.706880778E0,9.770451772E-1,4.929402859E0
7.017009208E0,4.127905332E0,3.372191008E0,1.434851757E0,5.519970488E0
7.027039208E0,4.049329571E0,3.460295684E0,1.600935925E0,5.561808342E0
7.037068208E0,3.770771726E0,2.812641706E0,1.682087238E0,4.995907350E0
7.047097208E0,3.052562905E0,1.729753740E0,1.850131538E0,3.966506649E0
7.057126208E0,2.050379378E0,5.881661600E-1,2.069690977E0,2.972139931E0
7.067156208E0,1.052221075E0,-4.595584059E-1,2.049585911E0,2.349290430E0
7.077185208E0,1.968617177E-1,-1.096747037E0,1.907180628E0,2.208833753E0
7.087214208E0,-2.332211664E-1,-1.171104324E0,1.779500681E0,2.143011928E0
7.097244208E0,-2.084131846E-1,-7.752536720E-1,1.697230357E0,1.877510372E0
7.107273208E0,7.184620053E-2,-1.231873852E-1,1.652751757E0,1.658892817E0
7.117302208E0,4.489454171E-1,5.178814584E-1,1.535247281E0,1.681290399E0
7.127332208E0,7.352180788E-1,1.051137586E0,1.358725687E0,1.868574682E0
7.137361208E0,8.741368130E-1,1.414322768E0,1.145988779E0,2.019335124E0
7.147390958E0,7.341465765E-1,1.549522673E0,9.402930880E-1,1.955541562E0
7.157420958E0,4.302129847E-1,1.432903465E0,7.901553011E-1,1.691934086E0
7.167449958E0,7.101297230E-2,1.104206330E0,6.739594316E-1,1.295583180E0
7.177478958E0,-3.076193842E-1,8.335498273E-1,6.814520538E-1,1.119737425E0
7.187507958E0,-6.094935867E-1,6.108644664E-1,9.078445494E-1,1.252525271E0
7.197537958E0,-7.592369789E-1,5.211570686E-1,9.270081409E-1,1.306671180E0
7.207566958E0,-9.426962936E-1,5.119687539E-1,7.448135059E-1,1.305961510E0
7.217595958E0,-1.092480616E0,5.938315272E-1,6.308689606E-1,1.394326155E0
7.227625958E0,-1.235067894E0,7.490622389E-1,4.225858766E-1,1.505013542E0
7.237654958E0,-1.390057408E0,9.740853167E-1,1.672321218E-1,1.705599127E0
7.247683958E0,-1.523429765E0,1.257871158E0,-3.163343668E-2,1.975874180E0
7.257713958E0,-1.584881371E0,1.495861021E0,-2.231104535E-1,2.190713908E0
7.267742958E0,-1.640529614E0,1.609118664E0,-3.775671400E-1,2.328767321E0
7.277771958E0,-1.661326406E0,1.538073240E0,-4.909265251E-1,2.316610363E0
7.287800958E0,-1.624268800E0,1.192100506E0,-6.606554081E-1,2.120334483E0
7.297830958E0,-1.530662771E0,6.893995893E-1,-8.818981147E-1,1.896297603E0
7.307859958E0,-1.288014724E0,2.628007686E-1,-1.101866421E0,1.715271343E0
7.317888958E0,-8.717181122E-1,6.969881058E-3,-1.334550520E0,1.594040821E0
7.327918958E0,-5.511354509E-1,-1.805117333E-1,-1.536421986E0,1.642232411E0
7.337947958E0,-2.130643523E-1,-3.210109699E-1,-1.662006584E0,1.706080404E0
7.347976958E0,9.802915514E-2,-4.582655865E-1,-1.741398616E0,1.803354153E0
7.358006958E0,4.340987518E-1,-5.399453419E-1,-1.799454597E0,1.928216675E0
7.368035958E0,8.309045470E-1,-5.048076689E-1,-1.811372830E0,2.055797821E0
7.378064958E0,1.268799311E0,-3.490086079E-1,-1.831306427E0,2.255070272E0
7.388093958E0,1.659782741E0,-2.009442437E-1,-1.930236346E0,2.553638520E0
7.398123958E0,1.939006000E0,-2.239349109E-1,-2.132673091E0,2.891052685E0
7.408152958E0,1.682637753E0,-4.418565452E-1,-2.265903362E0,2.856715782E0
7.418181958E0,6.973503408E-1,-7.186643189E-1,-2.298877857E0,2.507511775E0
7.428211958E0,-8.188686383E-1,-1.046184409E0,-2.233086449E0,2.598407734E0
7.438240958E0,-2.101157476E0,-1.237719898E0,-2.117738425E0,3.229803295E0
7.448269958E0,-3.151875816E0,-1.281162956E0,-2.528571691E0,4.239029898E0
7.458299958E0,-4.380937450E0,-1.426218343E0,-3.963194530E0,6.077303891E0
7.468328958E0,-5.569782227E0,-1.738969536E0,-5.899860474E0,8.297881821E0
7.478357958E0,-6.197038193E0,-1.928556733E0,-8.922446458E0,1.103325266E1
7.488386958E0,-6.183793665E0,-1.802622326E0,-1.299960936E1,1.450788044E1
7.498416958E0,-5.491283941E0,-1.221114390E0,-1.276886186E1,1.395310549E1
7.508445958E0,-4.661874235E0,-7.179082739E-1,-9.322538681E0,1.044787974E1
7.518474958E0,-4.466221137E0,-1.075396514E0,-6.866808679E0,8.261759518E0
7.528504958E0,-5.050713784E0,-2.094994218E0,-5.110964663E0,7.484695738E0
7.538533958E0,-5.787730173E0,-2.732666999E0,-3.907564412E0,7.498956536E0
7.548562958E0,-6.403933733E0,-2.150748004E0,-2.098442906E0,7.073863644E0
7.558592958E0,-6.625573611E0,-1.207535402E0,-4.892746867E-1,6.752463043E0
7.568621958E0,-6.898720443E0,-1.350118586E0,5.975753532E-1,7.054945801E0
7.578650958E0,-7.656063509E0,-2.124913251E0,2.142442034E0,8.229254076E0
7.588680958E0,-7.558208016E0,-2.909761620E0,4.227043996E0,9.135705887E0
7.598709958E0,-5.814990478E0,-2.982368835E0,5.902018681E0,8.805819816E0
7.608738958E0,-3.773919574E0,-2.878766699E0,6.109023564E0,7.736274010E0
7.618767958E0,-2.390722412E0,-3.221006570E0,5.311776760E0,6.656230864E0
7.628797958E0,-1.503466786E0,-4.252778762E0,4.684495651E0,6.503156086E0
7.638826958E0,-9.549187285E-1,-5.704558209E0,3.996230421E0,7.030199977E0
7.648855958E0,-5.373003539E-1,-6.979144801E0,3.770916152E0,7.950909536E0
7.658885958E0,-1.915059605E-1,-7.352077877E0,3.957456365E0,8.351717459E0
7.668914958E0,7.974032173E-1,-6.426149644E0,3.528547894E0,7.374408544E0
7.678943958E0,2.432494336E0,-5.010004299E0,4.235696414E0,6.997020500E0
7.688973958E0,3.649462466E0,-3.442052372E0,6.074638427E0,7.878295047E0
7.699002958E0,4.843480859E0,-1.951336901E0,6.761343035E0,8.542996089E0
7.709031958E0,6.018499310E0,-7.319702429E-1,5.075040540E0,7.906589079E0
7.719060958E0,6.665009573E0,5.878118187E-1,1.542023326E0,6.866273463E0
7.729090958E0,6.514799280E0,1.545255960E0,-2.194276286E0,7.045940254E0
7.739119958E0,5.770455744E0,1.803222250E0,-2.045073322E0,6.382170076E0
7.749148958E0,5.268741252E0,1.914097738E0,1.956525135E-1,5.609071620E0
7.759178958E0,4.877402896E0,1.991012598E0,1.960732499E0,5.621179779E0
7.769207958E0,4.563290471E0,2.068915052E0,3.147041046E0,5.916747144E0
7.779236958E0,4.203305763E0,2.016304729E0,3.846323892E0,6.043796123E0
7.789266958E0,3.644849013E0,1.810780946E0,4.043573280E0,5.737101780E0
7.799295958E0,3.007081507E0,1.511990565E0,4.058412051E0,5.272510127E0
7.809324958E0,2.396088110E0,1.262923152E0,4.461641597E0,5.219430894E0
7.819353958E0,1.865481941E0,1.212109094E0,5.288661547E0,5.737523184E0
7.829383958E0,1.514669759E0,1.184944099E0,6.167127346E0,6.460013676E0
7.839412958E0,1.017264665E0,1.226879160E0,7.030178715E0,7.208569389E0
7.849441958E0,5.773476416E-1,1.423055584E0,7.208293675E0,7.370068873E0
7.859471958E0,5.252536279E-1,1.611211967E0,6.522323477E0,6.738887068E0
7.869500958E0,6.783290559E-1,1.756725776E0,5.597298054E0,5.905587292E0
7.879529958E0,1.008141255E0,1.884447092E0,4.504378020E0,4.985670564E0
7.889559958E0,1.495013174E0,1.993679513E0,3.261246231E0,4.104332999E0
7.899588958E0,1.879427842E0,2.084127753E0,2.565487502E0,3.802310302E0
7.909617958E0,2.188656673E0,2.263921448E0,2.303310924E0,3.901384314E0
7.919647958E0,2.405480785E0,2.405477276E0,2.013955318E0,3.953311872E0
7.929676958E0,2.388028308E0,2.520265136E0,1.538103061E0,3.797390760E0
7.939705958E0,2.155039276E0,2.647026340E0,1.104149612E0,3.587490640E0
7.949734958E0,1.587804978E0,2.678932841E0,1.012595079E0,3.274622820E0
7.959764958E0,7.936168528E-1,2.659555169E0,9.943272078E-1,2.948177064E0
7.969793958E0,-1.799612179E-1,2.541042048E0,1.078124532E0,2.766158570E0
7.979822958E0,-1.391770934E0,2.176058262E0,1.166484439E0,2.834244492E0
7.989852958E0,-2.637343058E0,1.479769483E0,9.793197441E-1,3.178736115E0
7.999881958E0,-4.023951486E0,4.674194026E-1,1.471837735E-1,4.053680984E0
8.009910958E0,-5.511376144E0,-8.903467566E-1,-2.499517753E0,6.116827065E0
8.019940958E0,-7.284693979E0,-2.810745454E0,-7.647181588E0,1.092915562E1
8.029969958E0,-9.622240643E0,-4.842242419E0,-1.354940434E1,1.730956916E1
8.039998958E0,-1.108100459E1,-6.005407394E0,-1.347691757E1,1.845212421E1
8.050027958E0,-9.629934409E0,-5.546430786E0,-7.898105493E0,1.363373029E1
8.060057958E0,-5.850043951E0,-4.025704481E0,-6.107530185E0,9.366495383E0
8.070086958E0,-3.296055875E0,-1.938271882E0,-4.944646461E0,6.250632836E0
8.080115958E0,-1.587529867E0,7.908060962E-1,-2.491605009E0,3.058385339E0
8.090145958E0,3.792080149E-1,3.531156337E0,6.048127444E-1,3.602591047E0
8.100174958E0,2.325101742E0,4.753205697E0,4.733212312E0,7.099462043E0
8.110203958E0,4.346863093E0,3.364651608E0,7.206468759E0,9.063624615E0
8.120233958E0,5.225547286E0,-8.480567694E-2,6.830982789E0,8.600922177E0
8.130262958E0,4.288428943E0,-4.415771068E0,6.517623485E0,8.964879967E0
8.140291958E0,3.235478721E0,-8.236118411E0,5.524907770E0,1.043199765E1
8.150320792E0,2.759397253E0,-9.617921889E0,3.745973099E0,1.068414756E1
8.160350792E0,2.069313540E0,-9.098740595E0,1.614665479E0,9.469756256E0
8.170379792E0,2.289773450E0,-6.545952660E0,-7.369841133E0,1.011964016E1
8.180408792E0,4.209880664E0,-1.464945622E0,-6.933725384E0,8.242918694E0
8.190438792E0,4.121904042E0,1.329487270E0,-9.572277939E-1,4.435528648E0
8.200467792E0,3.364819131E0,2.318854870E0,1.276227175E0,4.281104004E0
8.210496792E0,2.801788982E0,2.828854281E0,2.293028741E0,4.594607584E0
8.220526792E0,2.286092336E0,2.782649583E0,2.904671034E0,4.626712730E0
8.230555792E0,1.685421905E0,2.332932041E0,3.374681922E0,4.435278682E0
8.240584792E0,8.462169430E-1,1.465970639E0,3.727644417E0,4.093957246E0
8.250613792E0,-2.929987139E-1,4.592666298E-1,3.772285570E0,3.811418700E0
8.260643792E0,-1.217292358E0,-4.084063786E-1,3.704523357E0,3.920725667E0
8.270672792E0,-1.656168870E0,-9.304761976E-1,3.561924970E0,4.036829297E0
8.280701792E0,-1.797777615E0,-1.120341137E0,3.560136892E0,4.142673449E0
8.290731792E0,-1.765519989E0,-9.664418364E-1,3.569539214E0,4.097887365E0
8.300760792E0,-1.575403911E0,-4.645753169E-1,3.436098737E0,3.808477680E0
8.310789792E0,-1.187607214E0,4.022428286E-1,3.170133747E0,3.409099318E0
8.320819792E0,-7.670471048E-1,1.382562447E0,2.762000141E0,3.182528077E0
8.330848792E0,-3.945154408E-1,2.268731368E0,2.277181764E0,3.238570863E0
8.340877792E0,-8.755766898E-2,2.816320190E0,1.736338874E0,3.309712743E0
8.350907792E0,1.240349391E-1,2.847016318E0,1.272186896E0,3.120792540E0
8.360936792E0,3.352910399E-1,2.610906335E0,9.527043879E-1,2.799445949E0
8.370965792E0,5.327471271E-1,2.220715787E0,8.164128077E-1,2.425268641E0
8.380994792E0,5.656798151E-1,1.637795164E0,6.786442208E-1,1.860893503E0
8.391024792E0,5.764840078E-1,9.614927530E-1,4.101763308E-1,1.193753219E0
8.401053792E0,4.853659692E-1,2.059851283E-1,1.864705942E-1,5.592685220E-1
8.411082792E0,2.389537767E-1,-7.194805902E-1,1.253379911E-1,7.684144969E-1
8.421112792E0,4.479566529E-1,-9.346861929E-1,3.257421713E-2,1.036997841E0
8.431141792E0,7.499565706E-1,-8.187306440E-1,-1.808206125E-1,1.124922584E0
8.441170792E0,1.141189092E0,-3.158800381E-1,-5.812757280E-1,1.319080822E0
8.451200792E0,1.377129214E0,4.190225834E-1,-9.975993097E-1,1.751362093E0
8.461229792E0,1.134122440E0,8.951233470E-1,-1.127621359E0,1.832760062E0
8.471258792E0,6.529688045E-1,1.113079480E0,-1.058151906E0,1.668831820E0
8.481287792E0,1.489221507E-1,1.053792222E0,-1.047848673E0,1.493533627E0
8.491317792E0,-2.545781216E-1,8.043494171E-1,-9.955663790E-1,1.304967593E0
8.501346792E0,-5.472452983E-1,4.543023437E-1,-9.536506136E-1,1.189671185E0
8.511375792E0,-7.725335473E-1,-3.171529770E-2,-9.371589804E-1,1.214940697E0
8.521405792E0,-9.096767744E-1,-5.455493134E-1,-1.064026749E0,1.502427639E0
8.531434792E0,-1.012949420E0,-9.612284589E-1,-1.290436933E0,1.901382170E0
8.541463792E0,-9.853695658E-1,-1.175164046E0,-1.559354912E0,2.187133160E0
8.551493792E0,-8.435032502E-1,-1.084711128E0,-1.845321764E0,2.300719101E0
8.561522792E0,-5.940525520E-1,-7.894027644E-1,-2.155541259E0,2.371162854E0
8.571551792E0,-4.627881154E-1,-4.830548573E-1,-2.491227863E0,2.579482720E0
8.581580792E0,-5.551770464E-1,-2.434482390E-1,-3.024885110E0,3.085031365E0
8.591610792E0,-9.400103751E-1,-2.564232105E-1,-3.841838785E0,3.963470401E0
8.601639792E0,-1.826616229E0,-8.031636018E-1,-4.417987162E0,4.847701433E0
8.611668792E0,-2.944073666E0,-1.309806712E0,-4.207556396E0,5.299688123E0
8.621698792E0,-3.853645483E0,-1.402125476E0,-3.622379333E0,5.471578510E0
8.631727792E0,-4.380093989E0,-9.852113986E-1,-3.478491342E0,5.679416068E0
8.641756792E0,-4.640366129E0,-2.586211789E-1,-4.231579097E0,6.285391347E0
8.651786792E0,-4.961353710E0,2.151939082E-1,-5.015660895E0,7.058200427E0
8.661815792E0,-5.621402031E0,-1.630133557E-1,-5.131456815E0,7.613053474E0
8.671844792E0,-6.597007039E0,-1.441361462E0,-6.287813877E0,9.226842802E0
8.681874792E0,-7.629625908E0,-3.427844222E0,-9.075990833E0,1.234240321E1
8.691903792E0,-8.346754748E0,-5.262233301E0,-9.089996084E0,1.341593988E1
8.701932792E0,-8.011356704E0,-5.568925610E0,-5.082753017E0,1.100132478E1
8.711961792E0,-6.922794015E0,-4.643951642E0,-2.313050485E0,8.651102032E0
8.721991792E0,-6.243955666E0,-3.497230207E0,-2.446075957E0,7.563126937E0
8.732020792E0,-4.852719460E0,-2.611377620E0,-3.253618246E0,6.399547712E0
8.742049792E0,-3.325402173E0,-3.044721204E0,-2.127290291E0,4.985377699E0
8.752079792E0,-2.283701994E0,-4.180767378E0,4.870881935E-1,4.788670543E0
8.762108792E0,-1.220767358E0,-4.855182892E0,2.672987977E0,5.675203836E0
8.772137792E0,1.439432466E-1,-4.977878526E0,3.774368933E0,6.248668268E0
8.782167792E0,1.331247282E0,-4.813295778E0,4.081117959E0,6.449461944E0
8.792196792E0,2.229690678E0,-4.697737840E0,4.199253935E0,6.683860781E0
8.802225792E0,2.742307596E0,-4.850888697E0,3.912093666E0,6.808512976E0
8.812254792E0,2.831894833E0,-5.085203585E0,2.910135841E0,6.507519840E0
8.822284792E0,3.168835081E0,-4.579842770E0,2.385181006E0,6.058511698E0
8.832313792E0,3.807476745E0,-3.325357150E0,2.332252010E0,5.567250558E0
8.842342792E0,4.547516145E0,-1.921226079E0,2.324837741E0,5.456728256E0
8.852372792E0,4.483392070E0,-9.902335721E-1,2.004021922E0,5.009737602E0
8.862401792E0,3.791103079E0,-5.860991693E-1,1.774136592E0,4.226527587E0
8.872430792E0,3.011000019E0,-3.767214864E-1,1.538429335E0,3.402176511E0
8.882460792E0,2.618401003E0,5.472993851E-4,1.658835200E0,3.099638420E0
8.892489792E0,2.488343140E0,5.350021058E-1,2.040544946E0,3.262192899E0
8.902518792E0,2.472405969E0,1.204468537E0,2.527123336E0,3.734954897E0
8.912548792E0,2.401425741E0,1.619446017E0,3.050596486E0,4.206612641E0
8.922577792E0,2.300667690E0,1.896331558E0,3.463685023E0,4.570148700E0
8.932606792E0,2.103542263E0,2.150604748E0,3.389668628E0,4.532090494E0
8.942635792E0,2.000936492E0,2.317966093E0,3.341941315E0,4.532690747E0
8.952665792E0,1.960589535E0,2.385238309E0,3.276255449E0,4.501902140E0
8.962694792E0,2.206469631E0,2.473041853E0,3.188750697E0,4.599192891E0
8.972723792E0,2.681514387E0,2.521172624E0,3.359485301E0,4.983269238E0
8.982753792E0,3.082122042E0,2.528982165E0,3.793386709E0,5.503181789E0
8.992782792E0,3.181817946E0,2.102553499E0,4.214271046E0,5.683729155E0
9.002811792E0,3.065380294E0,1.548601152E0,4.560896914E0,5.709334684E0
9.012841792E0,3.133279916E0,1.241942757E0,4.770765470E0,5.841238569E0
9.022870792E0,3.275142724E0,1.015926822E0,5.135477360E0,6.175094727E0
9.032899792E0,3.320788720E0,7.860955793E-1,5.489508142E0,6.463766984E0
9.042928792E0,3.410362217E0,5.726698691E-1,5.398214979E0,6.410869379E0
9.052958792E0,3.535021639E0,6.394415635E-1,4.951667798E0,6.117538514E0
9.062987792E0,3.636630751E0,9.906738675E-1,4.223379254E0,5.660693443E0
9.073016792E0,3.735488749E0,1.541871006E0,3.324635896E0,5.233015024E0
9.083046792E0,3.831703806E0,2.144909559E0,2.465125600E0,5.035815257E0
9.093075792E0,3.749809165E0,2.683897712E0,1.531407122E0,4.858969384E0
9.103104792E0,3.361687655E0,3.020301477E0,3.600051740E-1,4.533516144E0
9.113134792E0,2.663738852E0,3.108628932E0,-1.003300345E0,4.214936546E0
9.123163792E0,1.633810287E0,2.868177976E0,-2.267527134E0,4.004679794E0
9.133192792E0,3.544204983E-1,2.441849297E0,-2.870484703E0,3.785224472E0
9.143221792E0,-7.286270973E-1,2.094793074E0,-2.677543543E0,3.476822529E0
9.153251167E0,-1.793158900E0,1.627460210E0,-2.380283963E0,3.395555525E0
9.163280167E0,-3.212255919E0,9.257194877E-1,-2.700388615E0,4.297399601E0
9.173309167E0,-5.199575708E0,-4.964461505E-2,-4.254420660E0,6.718492932E0
9.183339167E0,-7.849381814E0,-1.214076097E0,-7.032070874E0,1.060833618E1
9.193368167E0,-1.103840879E1,-2.212242587E0,-8.609262571E0,1.417250465E1
9.203397167E0,-1.351410820E1,-2.632556820E0,-7.792345734E0,1.582030746E1
9.213427167E0,-1.353227667E1,-2.777676526E0,-5.952235154E0,1.504217744E1
9.223456167E0,-9.894727324E0,-2.757852711E0,-4.168742579E0,1.108556697E1
9.233485167E0,-5.246514816E0,-1.725564795E0,-2.289936003E0,5.978904454E0
9.243515167E0,-1.725173616E0,-4.061429214E-1,6.042875183E-1,1.872522225E0
9.253544167E0,1.896678298E0,-3.851321214E-1,3.595074005E0,4.082924494E0
9.263573167E0,4.737502707E0,-1.901926759E0,5.750130823E0,7.689295271E0
9.273602167E0,5.962040935E0,-4.770226357E0,5.841519295E0,9.613757812E0
9.283632167E0,6.015808421E0,-9.136369182E0,3.719056027E0,1.155398505E1
9.293661167E0,6.445438439E0,-1.359953603E1,-8.770835173E-1,1.507515613E1
9.303690167E0,6.499374325E0,-1.367126265E1,-2.555073026E0,1.535166725E1
9.313720167E0,6.257603652E0,-8.990951852E0,-1.707844223E0,1.108654818E1
9.323749167E0,6.093429040E0,-3.184058014E0,2.975216813E-1,6.881614785E0
9.333778167E0,4.955277869E0,1.123918464E0,2.403252411E0,5.620817878E0
9.343808167E0,4.184320731E0,3.641566971E0,2.954686947E0,6.284880662E0
9.353837167E0,3.475804547E0,5.023377466E0,3.024796232E0,6.816518954E0
9.363866167E0,2.740319835E0,5.373861911E0,3.127707227E0,6.794872856E0
9.373895167E0,2.081050656E0,4.735303861E0,3.056068311E0,6.007780623E0
9.383925167E0,1.260037551E0,3.541700036E0,3.168293921E0,4.916240448E0
9.393954167E0,1.339018232E-1,2.124111013E0,3.123460979E0,3.779654189E0
9.403983167E0,-6.820549017E-1,8.153509533E-1,3.319819837E0,3.485857113E0
9.414013167E0,-1.469649999E0,-8.339591324E-2,3.577698419E0,3.868688664E0
9.424042167E0,-2.194415596E0,-6.958063835E-1,3.483231972E0,4.175225898E0
9.434071167E0,-2.546313897E0,-8.392274737E-1,3.152470186E0,4.138367491E0
9.444101167E0,-2.405403017E0,-3.527087259E-1,3.014245516E0,3.872472485E0
9.454130167E0,-1.998663387E0,4.554150689E-1,2.763250276E0,3.440582844E0
9.464159167E0,-1.730994227E0,1.422338131E0,2.381733488E0,3.269868679E0
9.474189167E0,-1.535509821E0,2.300227979E0,2.054572417E0,3.445302161E0
9.484218167E0,-1.428633828E0,2.732929539E0,1.678562536E0,3.511049796E0
9.494247167E0,-1.335952536E0,2.801676423E0,1.351521918E0,3.385376117E0
9.504276167E0,-1.198531567E0,2.654470430E0,9.980799508E-1,3.078774881E0
9.514306167E0,-1.195464410E0,2.263105761E0,6.763930428E-1,2.647317584E0
9.524335167E0,-1.369173492E0,1.691274383E0,4.979383600E-1,2.232260670E0
9.534364167E0,-1.521850432E0,1.141743116E0,5.641358578E-1,1.984403020E0
9.544394167E0,-1.675637174E0,8.378802752E-1,6.858889210E-1,1.995055615E0
9.554423167E0,-1.666444182E0,6.089483339E-1,6.010937691E-1,1.873277343E0
9.564452167E0,-1.480660307E0,3.448740417E-1,4.971500822E-1,1.599515943E0
9.574482167E0,-9.552523121E-1,1.839235836E-1,4.105650976E-1,1.055887572E0
9.584511167E0,-3.659383437E-1,2.048384893E-1,-1.130632237E-2,4.195205728E-1
9.594540167E0,1.470779389E-2,3.345496130E-1,-5.232831162E-1,6.212608007E-1
9.604569167E0,3.565637952E-1,4.317203969E-1,-9.068440908E-1,1.065779736E0
9.614599167E0,6.707107186E-1,5.026979935E-1,-1.153166821E0,1.425605786E0
9.624628167E0,9.907601139E-1,5.174458408E-1,-1.286392121E0,1.704159761E0
9.634657167E0,1.265245958E0,5.209377980E-1,-1.471228601E0,2.009163289E0
9.644687167E0,1.368546086E0,3.342917508E-1,-1.646608087E0,2.167022740E0
9.654716167E0,1.425631283E0,-8.115584493E-2,-1.750694666E0,2.259190704E0
9.664745167E0,1.354039436E0,-6.908023363E-1,-1.692874912E0,2.275182659E0
9.674775167E0,1.220020376E0,-1.353332216E0,-1.557739180E0,2.397187760E0
9.684804167E0,1.124732981E0,-1.747623416E0,-1.422587222E0,2.518524625E0
9.694833167E0,1.170594447E0,-1.724401199E0,-1.339804390E0,2.477685746E0
9.704863167E0,1.270209952E0,-1.337845865E0,-1.391259595E0,2.310599087E0
9.714892167E0,1.248171796E0,-8.541168237E-1,-1.569025768E0,2.179286636E0
9.724921167E0,1.015070205E0,-5.668062812E-1,-1.845020487E0,2.180765342E0
9.734950167E0,4.730455935E-1,-4.634321862E-1,-2.159119463E0,2.258392876E0
9.744980167E0,-4.427847907E-1,-6.119999957E-1,-2.335611820E0,2.454727060E0
9.755009167E0,-1.571599713E0,-9.194600433E-1,-2.298738694E0,2.932495867E0
9.765038167E0,-2.557753390E0,-1.086231405E0,-2.222299505E0,3.558175960E0
9.775068167E0,-3.308263400E0,-1.127303417E0,-2.195212863E0,4.127272614E0
9.785097167E0,-3.994087417E0,-1.032081510E0,-2.444960015E0,4.795389036E0
9.795126167E0,-4.758234302E0,-1.036555799E0,-3.112708827E0,5.779636480E0
9.805156167E0,-5.757526966E0,-1.515756757E0,-3.624057191E0,6.969965985E0
9.815185167E0,-7.014867781E0,-2.514348924E0,-3.782688351E0,8.356976227E0
9.825214167E0,-8.574141855E0,-3.918063088E0,-4.556500392E0,1.047037835E1
9.835243167E0,-1.020809481E1,-5.273886217E0,-7.079944367E0,1.349609898E1
9.845273167E0,-1.063784411E1,-5.358910580E0,-8.197484688E0,1.445961290E1
9.855302167E0,-9.094756887E0,-3.922445576E0,-5.136352104E0,1.115716340E1
9.865331167E0,-7.195726254E0,-2.404404897E0,-2.644048938E0,8.034340920E0
9.875361167E0,-6.162993364E0,-1.699617190E0,-3.160626759E0,7.131672126E0
9.885390167E0,-5.190307871E0,-1.694364637E0,-3.506277604E0,6.488771066E0
9.895419167E0,-3.771190971E0,-2.139904928E0,-1.567718039E0,4.610728173E0
9.905449167E0,-2.221653534E0,-2.434160793E0,1.098753802E0,3.473923302E0
9.915478167E0,-1.089521633E0,-2.618307155E0,2.845393131E0,4.017318984E0
9.925507167E0,-2.116464025E-1,-2.681016789E0,3.426323946E0,4.355725084E0
9.935536167E0,4.333541089E-1,-2.767516989E0,3.284234267E0,4.316612189E0
9.945566167E0,8.955443466E-1,-3.025723016E0,2.908510315E0,4.291437020E0
9.955595167E0,1.210515143E0,-3.516237751E0,2.475888863E0,4.467583294E0
9.965624167E0,1.658246678E0,-3.696337840E0,1.637050813E0,4.369511510E0
9.975654167E0,2.603102056E0,-3.194363732E0,1.226126112E0,4.299242399E0
9.985683167E0,3.792820699E0,-2.092853553E0,1.863444332E0,4.715713056E0
9.995712167E0,4.828778913E0,-9.828672498E-1,2.592002871E0,5.567909186E0
1.000574217E1,5.339351059E0,-2.542837143E-1,2.826291447E0,6.046590219E0
1.001577117E1,5.359656685E0,1.280405742E-1,2.733282711E0,6.017736165E0
1.002580017E1,4.837755266E0,3.535249972E-1,2.655175020E0,5.529811056E0
1.003583017E1,4.358555478E0,5.584032476E-1,2.678777890E0,5.146325974E0
1.004585917E1,3.835957948E0,5.860383582E-1,2.717913597E0,4.737622680E0
1.005588817E1,3.244865256E0,6.362384588E-1,2.634616502E0,4.227901846E0
1.006591717E1,2.766550737E0,8.772823226E-1,2.250557052E0,3.672660384E0
1.007594717E1,2.390818892E0,7.988641441E-1,2.727855618E0,3.714215282E0
1.008597617E1,2.055876346E0,6.491233832E-1,3.852049778E0,4.414326246E0
1.009600517E1,1.704059612E0,7.743800980E-1,4.380777236E0,4.763894719E0
1.010603517E1,1.332815213E0,8.178675950E-1,4.592661913E0,4.851581932E0
1.011606417E1,8.663120690E-1,7.568799663E-1,4.459332532E0,4.605324149E0
1.012609317E1,2.766668558E-1,7.385916299E-1,3.700772953E0,3.783884591E0
1.013612317E1,-5.538950443E-2,7.918235117E-1,3.255596359E0,3.350964059E0
1.014615267E1,3.644014031E-2,9.753681958E-1,3.376358027E0,3.514607307E0
1.015618167E1,5.611692730E-1,1.286761081E0,3.704286253E0,3.961363613E0
1.016621167E1,1.450487504E0,1.694863404E0,3.775964930E0,4.385702579E0
1.017624067E1,2.467179143E0,2.114306402E0,3.511604125E0,4.784206100E0
1.018626967E1,3.198811416E0,2.351768262E0,3.172848902E0,5.082339873E0
1.019629867E1,3.713229569E0,2.509529064E0,2.710282981E0,5.237503584E0
1.020632867E1,4.065959052E0,2.554160276E0,2.320861634E0,5.333118830E0
1.021635767E1,4.237955193E0,2.579403875E0,2.040243522E0,5.364343595E0
1.022638667E1,4.280373234E0,2.683703000E0,2.008881689E0,5.436861453E0
1.023641667E1,4.216564617E0,2.825951139E0,1.871984045E0,5.410151686E0
1.024644567E1,3.882043655E0,2.931548345E0,1.511196513E0,5.093913382E0
1.025647467E1,3.323580473E0,2.891618879E0,9.480918118E-1,4.506276177E0
1.026650467E1,2.774931843E0,2.724190291E0,2.042979142E-1,3.893995007E0
1.027653367E1,2.210757101E0,2.351461868E0,-3.569456184E-1,3.247188022E0
1.028656267E1,1.482025339E0,1.756583689E0,-4.943525550E-1,2.350823220E0
1.029659267E1,5.353552777E-1,8.607569218E-1,-5.726707461E-1,1.164242043E0
1.030662167E1,-8.908364609E-1,-2.736754203E-1,-9.574640214E-1,1.336123193E0
1.031665067E1,-2.616203327E0,-1.364697449E0,-2.212917063E0,3.688349347E0
1.032667967E1,-4.788892716E0,-2.588047814E0,-5.034224635E0,7.414506229E0
1.033670967E1,-7.436078392E0,-3.939693693E0,-9.806872909E0,1.292250767E1
1.034673867E1,-9.788700932E0,-4.868255512E0,-1.318681849E1,1.712923698E1
1.035676767E1,-1.100130470E1,-4.878559476E0,-9.960706136E0,1.562193056E1
1.036679767E1,-1.003684039E1,-3.730594922E0,-3.429690773E0,1.124358850E1
1.037682667E1,-6.337464339E0,-2.253024577E0,-2.137801392E0,7.057603615E0
1.038685567E1,-3.241958605E0,-8.623502880E-1,-2.518735505E0,4.194993702E0
1.039688567E1,-1.084391578E0,9.062207776E-1,-1.381860488E0,1.976532216E0
1.040691467E1,1.114821365E0,2.292659928E0,8.471402183E-1,2.686403315E0
1.041694367E1,3.071254699E0,1.771423922E0,4.365304334E0,5.623738087E0
1.042697367E1,4.278620532E0,-5.826931661E-1,7.161739898E0,8.362813124E0
1.043700267E1,4.316360508E0,-4.128130742E0,7.671541089E0,9.722395494E0
1.044703167E1,3.649196126E0,-8.263026713E0,6.838510494E0,1.132958378E1
1.045706067E1,3.051237341E0,-1.089988358E1,5.425841904E0,1.255218195E1
1.046709067E1,2.868219491E0,-1.010948503E1,3.576710240E0,1.110050570E1
1.047711967E1,3.035584345E0,-6.771636474E0,1.017807287E0,7.490378129E0
1.048714867E1,3.893044899E0,-2.141266744E0,-2.495891018E0,5.096105751E0
1.049717867E1,4.999503869E0,1.604736176E0,-3.567677461E0,6.348113074E0
1.050720767E1,4.948950596E0,3.351098932E0,-1.170778635E0,6.090377547E0
1.051723667E1,4.334622532E0,3.989051794E0,7.929818451E-1,5.943930259E0
1.052726667E1,3.629211220E0,4.053847715E0,1.922805412E0,5.770791629E0
1.053729567E1,2.781038968E0,3.560954332E0,2.740525949E0,5.284416333E0
1.054732467E1,1.830757958E0,2.481133230E0,3.458966027E0,4.633804354E0
1.055735367E1,7.498861116E-1,9.796828562E-1,3.983884610E0,4.170544840E0
1.056738367E1,-4.751514682E-1,-6.458097661E-1,4.135349715E0,4.212357586E0
1.057741267E1,-1.603948556E0,-1.866371595E0,3.871656369E0,4.587561110E0
1.058744167E1,-2.338788612E0,-2.301544772E0,3.441625525E0,4.755189456E0
1.059747167E1,-2.584951129E0,-1.965044528E0,3.139936094E0,4.516920523E0
1.060750067E1,-2.365353390E0,-1.139933403E0,2.931222070E0,3.935277328E0
1.061752967E1,-1.833718111E0,-2.150705320E-1,2.628383077E0,3.212035966E0
1.062755967E1,-1.145877390E0,7.553865874E-1,2.154930518E0,2.554871704E0
1.063758867E1,-5.222753486E-1,1.692651402E0,1.717033707E0,2.466991094E0
1.064761767E1,-8.564065933E-2,2.473347078E0,1.411975111E0,2.849290053E0
1.065764767E1,1.138555214E-1,2.915857927E0,1.240586203E0,3.170842894E0
1.066767667E1,1.343912351E-1,3.049193739E0,1.125679060E0,3.253121088E0
1.067770567E1,-5.519099146E-2,2.719676240E0,9.450562298E-1,2.879725017E0
1.068773467E1,-3.648273727E-1,1.936655127E0,6.736033362E-1,2.082660209E0
1.069776467E1,-5.319802648E-1,1.144022360E0,3.589178842E-1,1.311721087E0
1.070779367E1,-3.719258925E-1,4.805481559E-1,8.900631666E-2,6.141478031E-1
1.071782267E1,1.171080351E-2,2.625967008E-1,9.304089546E-3,2.630223113E-1
1.072785267E1,3.732412237E-1,2.818568444E-1,-1.118707571E-1,4.809026493E-1
1.073788167E1,5.575776207E-1,4.800599134E-1,-3.131430296E-1,7.996304650E-1
1.074791067E1,8.225447828E-1,9.510180509E-1,-5.108455769E-1,1.357195069E0
1.075794067E1,1.147655528E0,1.369009770E0,-7.034380232E-1,1.919928648E0
1.076796967E1,1.447050511E0,1.610561172E0,-9.538434986E-1,2.365941650E0
1.077799867E1,1.670465312E0,1.480042548E0,-1.265692393E0,2.565727487E0
1.078802867E1,1.805966933E0,1.109567642E0,-1.520893536E0,2.608787853E0
1.079805767E1,1.833559944E0,5.628079551E-1,-1.642108801E0,2.524919044E0
1.080808667E1,1.777016784E0,-7.152665019E-2,-1.511439611E0,2.333956814E0
1.081811567E1,1.484418897E0,-7.688199806E-1,-1.195691282E0,2.055300772E0
1.082814567E1,9.367631239E-1,-1.536836554E0,-7.458247818E-1,1.948241861E0
1.083817467E1,4.638113782E-1,-2.183846753E0,-3.819794489E-1,2.264997999E0
1.084820367E1,1.904543388E-1,-2.553138183E0,-1.900707614E-1,2.567277611E0
1.085823367E1,2.299826860E-2,-2.457436219E0,-2.430544290E-1,2.469533792E0
1.086826267E1,-1.744253665E-1,-1.795309798E0,-4.956801653E-1,1.870630991E0
1.087829167E1,-5.431902543E-1,-9.252031785E-1,-8.763268876E-1,1.385281700E0
1.088832167E1,-1.031039244E0,-2.855253875E-1,-1.267957897E0,1.659000873E0
1.089835067E1,-1.527418151E0,3.746778846E-2,-1.610162100E0,2.219691878E0
1.090837967E1,-2.041270293E0,7.092789531E-2,-1.963338018E0,2.833109837E0
1.091840967E1,-2.711428158E0,-2.128199387E-1,-2.303301568E0,3.564033262E0
1.092843867E1,-3.478605071E0,-5.375550002E-1,-2.790900882E0,4.492080403E0
1.093846767E1,-4.282250483E0,-6.628310108E-1,-3.694954973E0,5.694708632E0
1.094849667E1,-5.087124395E0,-6.336270922E-1,-5.017884007E0,7.173526177E0
1.095852667E1,-5.960798401E0,-7.428314459E-1,-7.184859788E0,9.365101511E0
1.096855567E1,-6.710174636E0,-1.231412507E0,-1.039356616E1,1.243257969E1
1.097858467E1,-6.989852223E0,-2.179187692E0,-1.226296427E1,1.428240826E1
1.098861467E1,-6.946474069E0,-2.950371117E0,-1.065023319E1,1.305318577E1
1.099864367E1,-6.852682976E0,-3.135520277E0,-7.703802516E0,1.077679565E1
1.100867267E1,-6.913291705E0,-3.048410797E0,-4.631238333E0,8.861985053E0
1.101870267E1,-7.136320882E0,-2.743076212E0,-2.388014567E0,8.009628981E0
1.102873167E1,-7.460785217E0,-2.312596010E0,-1.146787363E0,7.894715804E0
1.103876067E1,-7.461220835E0,-1.840140401E0,-1.142073630E0,7.769186908E0
1.104879067E1,-6.438065100E0,-1.829618336E0,-1.319535894E0,6.821829700E0
1.105881967E1,-5.866331955E0,-2.549595355E0,1.174536567E0,6.503370143E0
1.106884867E1,-5.288054021E0,-3.207201878E0,4.209331026E0,7.481184860E0
1.107887767E1,-3.536192544E0,-3.331185070E0,5.428435729E0,7.284872417E0
1.108890767E1,-1.794214030E0,-3.533733789E0,5.233026459E0,6.564376924E0
1.109893667E1,-9.322777247E-1,-4.009162708E0,4.743794603E0,6.280614191E0
1.110896567E1,-1.172524613E-1,-4.825611768E0,4.089962457E0,6.326774058E0
1.111899567E1,4.271399805E-1,-5.927219011E0,3.299644604E0,6.797207388E0
1.112902467E1,5.528071699E-1,-6.112963418E0,2.819270110E0,6.754420883E0
1.113905367E1,1.267108881E0,-5.236318442E0,2.839238352E0,6.089816923E0
1.114908392E1,2.383857197E0,-3.530486830E0,4.014729842E0,5.853645710E0
1.115911292E1,3.470419261E0,-1.876159249E0,5.307353926E0,6.613001517E0
1.116914192E1,4.638445904E0,-9.529751140E-1,5.321024716E0,7.122966095E0
1.117917092E1,5.389999641E0,-2.944266039E-1,5.467711476E0,7.683401066E0
1.118920092E1,5.308927996E0,2.348230112E-1,4.524239842E0,6.979154996E0
1.119922992E1,4.846199230E0,7.654052067E-1,1.872314851E0,5.251386008E0
1.120925892E1,4.246308818E0,1.099785835E0,-5.404253983E-1,4.419584491E0
1.121928892E1,3.713945560E0,1.162453369E0,-1.094406835E0,4.042575390E0
1.122931792E1,3.576953191E0,1.047666094E0,1.205615468E-1,3.729173295E0
1.123934692E1,3.545008975E0,1.030172979E0,1.844558264E0,4.126831738E0
1.124937692E1,3.251929570E0,1.036455812E0,3.639247088E0,4.989329208E0
1.125940592E1,2.742507863E0,1.111024184E0,4.668866335E0,5.527570621E0
1.126943492E1,1.893985948E0,1.071934962E0,5.390385557E0,5.813130292E0
1.127946492E1,1.073328938E0,1.282178618E0,5.778743003E0,6.015803164E0
1.128949392E1,1.473018873E-1,1.421234177E0,5.498574250E0,5.681190299E0
1.129952292E1,-3.059134591E-1,1.458159928E0,5.360710938E0,5.563904670E0
1.130955292E1,-3.459458363E-1,1.418867809E0,4.747158214E0,4.966726839E0
1.131958192E1,7.709495366E-2,1.210368962E0,3.912613191E0,4.096276191E0
1.132961092E1,1.231340001E0,8.417692584E-1,3.516521341E0,3.819776960E0
1.133963992E1,2.621574872E0,4.106973177E-1,3.249626936E0,4.195402522E0
1.134966992E1,3.668703899E0,9.682521343E-2,2.600103604E0,4.497699653E0
1.135969892E1,4.555233008E0,-1.852538252E-1,1.595899571E0,4.830254877E0
1.136972792E1,5.261153321E0,-2.763101757E-1,5.318206358E-1,5.295178445E0
1.137975792E1,5.598123096E0,-1.182266074E-1,1.457360029E-1,5.601267599E0
1.138978692E1,5.595280180E0,2.858218414E-1,2.984734619E-1,5.610520548E0
1.139981592E1,5.179066599E0,8.751820028E-1,2.736722043E-1,5.259616987E0
1.140984592E1,4.345550978E0,1.514745773E0,5.021150261E-2,4.602259147E0
1.141987492E1,3.425760567E0,2.012114030E0,-2.018686885E-1,3.978088649E0
1.142990392E1,2.683227621E0,2.231789244E0,-2.651311764E-1,3.500126889E0
1.143993392E1,1.923452406E0,2.180394557E0,2.746729553E-2,2.907669864E0
1.144996292E1,1.099000554E0,1.914601768E0,5.337236121E-1,2.271202995E0
1.145999192E1,3.325372937E-1,1.635841609E0,1.090187631E0,1.993757230E0
1.147002092E1,-4.184685597E-1,1.497790017E0,1.748795782E0,2.340251602E0
1.148005092E1,-9.551055470E-1,1.590494113E0,1.975871525E0,2.710344335E0
1.149007992E1,-1.411314668E0,1.695362756E0,1.714169741E0,2.793643117E0
1.150010892E1,-1.743937331E0,1.658298426E0,1.048218948E0,2.624887435E0
1.151013892E1,-2.057477313E0,1.276095759E0,-3.105912316E-1,2.440921997E0
1.152016792E1,-2.627655099E0,4.556191367E-1,-2.668494977E0,3.772668228E0
1.153019692E1,-3.472257626E0,-8.191779560E-1,-6.247761619E0,7.194591774E0
1.154022692E1,-4.521263901E0,-2.279807163E0,-9.815324475E0,1.104445302E1
1.155025592E1,-5.638372405E0,-3.659535465E0,-1.025029417E1,1.225773118E1
1.156028492E1,-5.449533652E0,-4.217317738E0,-7.227582470E0,9.986046980E0
1.157031492E1,-3.694200683E0,-3.450262447E0,-4.042153283E0,6.472281885E0
1.158034392E1,-1.876773791E0,-2.006239917E0,-2.424702337E0,3.664213407E0
1.159037292E1,-4.940397289E-1,-4.875227147E-1,-1.190509187E0,1.378065954E0
1.160040192E1,9.464715484E-1,7.297892314E-1,-2.498293054E-1,1.220989515E0
1.161043192E1,1.908836414E0,5.864675438E-1,1.172306073E0,2.315578149E0
1.162046092E1,2.476487910E0,-1.028327597E0,3.772544017E0,4.628448809E0
1.163048992E1,2.473272818E0,-3.809964443E0,5.612735288E0,7.220505862E0
1.164051992E1,1.983006590E0,-7.432260745E0,5.115402700E0,9.237865538E0
1.165054892E1,1.956391234E0,-1.085129321E1,-4.087447862E-1,1.103381636E1
1.166057792E1,4.341203865E-1,-1.186055304E1,-5.621200887E0,1.313236758E1
1.167060792E1,-7.186812758E-1,-7.877717421E0,-4.991772680E0,9.353754809E0
1.168063692E1,9.625189394E-1,-3.024107430E0,-1.616445225E0,3.561539502E0
1.169066592E1,2.887075008E0,3.829019934E-1,1.838574078E0,3.444150211E0
1.170069592E1,4.094846929E0,2.743118897E0,3.136019629E0,5.841839759E0
1.171072492E1,4.424240467E0,4.167902918E0,3.412164913E0,6.970522781E0
1.172075392E1,4.312042047E0,4.981920707E0,3.944185524E0,7.679182247E0
1.173078292E1,3.792931796E0,5.001025314E0,4.517972796E0,7.733606144E0
1.174081292E1,2.764822300E0,4.013842819E0,4.619162371E0,6.715045610E0
1.175084192E1,1.645143068E0,2.591170228E0,4.344125719E0,5.319030656E0
1.176087092E1,6.177995566E-1,1.021805613E0,4.039579339E0,4.212358513E0
1.177090092E1,-2.536045602E-1,-5.340501791E-1,3.789764067E0,3.835601198E0
1.178092992E1,-8.661103401E-1,-1.667204905E0,3.443338759E0,3.922537587E0
1.179095892E1,-1.142910512E0,-2.181311985E0,3.137926991E0,3.988853497E0
1.180098892E1,-1.065960277E0,-2.011353891E0,2.946116098E0,3.723092243E0
1.181101792E1,-5.826276773E-1,-1.311333420E0,2.724871491E0,3.079606305E0
1.182104692E1,-2.194664687E-2,-4.262245989E-1,2.464933519E0,2.501608746E0
1.183107692E1,4.887374738E-1,4.987131160E-1,2.263866484E0,2.369107543E0
1.184110592E1,8.522176480E-1,1.288881866E0,2.044870716E0,2.563003634E0
1.185113492E1,1.003802621E0,1.862725271E0,1.896604038E0,2.841561545E0
1.186116392E1,9.259358346E-1,2.153949355E0,1.779022379E0,2.943089468E0
1.187119392E1,6.031481883E-1,2.130165220E0,1.859740852E0,2.891371239E0
1.188122292E1,2.366292161E-1,1.899037650E0,1.739777037E0,2.586341338E0
1.189125192E1,-1.699200869E-1,1.560168114E0,1.377390000E0,2.088109334E0
1.190128192E1,-5.710808882E-1,1.241431711E0,9.339757562E-1,1.655172736E0
1.191131092E1,-9.179733887E-1,9.350574911E-1,4.673153222E-1,1.391183404E0
1.192133992E1,-1.248717926E0,5.847724360E-1,2.144454281E-1,1.395436169E0
1.193136992E1,-1.397023780E0,3.525736552E-1,1.012176418E-1,1.444378287E0
1.194139892E1,-1.295157390E0,3.110221714E-1,-1.352577925E-2,1.332047448E0
1.195142792E1,-1.140349140E0,4.351620680E-1,-2.703822684E-1,1.250147494E0
1.196145792E1,-9.796407562E-1,5.995255458E-1,-6.609073500E-1,1.325113360E0
1.197148692E1,-8.836569571E-1,7.284531426E-1,-1.054221261E0,1.556559047E0
1.198151592E1,-8.838771048E-1,7.948085153E-1,-1.396485837E0,1.833884403E0
1.199154592E1,-9.232826605E-1,7.463064462E-1,-1.715956796E0,2.086607751E0
1.200157492E1,-9.676744294E-1,5.521630991E-1,-1.988646230E0,2.279471806E0
1.201160392E1,-9.491545433E-1,1.623596370E-1,-2.339769483E0,2.530173162E0
1.202163292E1,-6.614455131E-1,-1.447782290E-1,-2.769723436E0,2.851287221E0
1.203166292E1,-2.702217624E-1,-3.475637609E-1,-3.175579551E0,3.205951630E0
1.204169192E1,-4.796880305E-2,-6.325418490E-1,-3.409510862E0,3.468021701E0
1.205172092E1,-5.643381715E-2,-9.094098490E-1,-3.498263410E0,3.614976892E0
1.206175092E1,-1.715336260E-1,-1.086415007E0,-3.535853113E0,3.702968888E0
1.207177992E1,-2.556607336E-1,-1.028062134E0,-3.456328933E0,3.615035803E0
1.208180892E1,-3.539106211E-1,-8.527859974E-1,-3.210426326E0,3.340558917E0
1.209183892E1,-5.985443830E-1,-7.194560319E-1,-2.920865190E0,3.067136420E0
1.210186792E1,-1.004312937E0,-7.274333882E-1,-2.756731507E0,3.022808696E0
1.211189692E1,-1.679519872E0,-8.902514470E-1,-2.729986343E0,3.326583844E0
1.212192692E1,-2.620373561E0,-1.157526505E0,-2.684803446E0,3.926117007E0
1.213195592E1,-3.539278704E0,-1.346300939E0,-2.593241311E0,4.589544690E0
1.214198492E1,-4.209926857E0,-1.290863487E0,-2.603121644E0,5.115276628E0
1.215201354E1,-4.673648188E0,-1.103658446E0,-2.877829683E0,5.598477743E0
1.216204354E1,-5.163912955E0,-1.031728923E0,-3.600254346E0,6.379051100E0
1.217207254E1,-5.747510685E0,-1.428808075E0,-4.914382442E0,7.695877233E0
1.218210154E1,-6.219251765E0,-2.276112308E0,-7.666193225E0,1.013066130E1
1.219213154E1,-7.018963171E0,-3.617618530E0,-1.234603098E1,1.465528877E1
1.220216054E1,-8.012940130E0,-5.274016610E0,-1.160698853E1,1.505804249E1
1.221218954E1,-7.073291990E0,-5.312921060E0,-4.980261852E0,1.015192582E1
1.222221954E1,-5.566617129E0,-3.675396622E0,-8.251241358E-1,6.721353764E0
1.223224854E1,-5.149755092E0,-2.125170529E0,-2.680024517E-1,5.577468296E0
1.224227754E1,-3.916068310E0,-1.742680764E0,-9.012839735E-1,4.380050235E0
1.225230754E1,-3.365109445E0,-2.762508264E0,2.352106816E-1,4.360130452E0
1.226233654E1,-3.146034155E0,-3.547802775E0,2.264469332E0,5.254736605E0
1.227236554E1,-2.008950978E0,-3.496610402E0,3.737205784E0,5.498079247E0
1.228239454E1,-8.253795129E-1,-3.543974018E0,4.029494061E0,5.429348540E0
1.229242454E1,2.172211379E-2,-3.936097071E0,3.853726759E0,5.508588016E0
1.230245354E1,7.304107904E-1,-4.392349461E0,3.614241178E0,5.734890845E0
1.231248254E1,9.975121862E-1,-4.754102660E0,2.730460260E0,5.572426392E0
1.232251254E1,1.332628394E0,-5.002789419E0,1.302211179E0,5.338497388E0
1.233254154E1,2.594407831E0,-4.058106242E0,4.887348425E-1,4.841284954E0
1.234257054E1,4.474327132E0,-2.007101796E0,7.616749024E-1,4.962681690E0
1.235260054E1,6.033221430E0,-3.457710046E-1,1.108449655E0,6.143938398E0
1.236262954E1,6.572048784E0,8.245872152E-1,1.349839089E0,6.759721508E0
1.237265854E1,5.831940386E0,1.587861696E0,1.850369081E0,6.321131162E0
1.238268854E1,4.470262440E0,1.898905503E0,2.202744516E0,5.333026513E0
1.239271754E1,3.231015249E0,1.778956890E0,2.532330866E0,4.474019085E0
1.240274654E1,2.592749268E0,1.445217116E0,2.276552896E0,3.740814666E0
1.241277654E1,2.286905976E0,1.169593989E0,1.937115887E0,3.217189301E0
1.242280554E1,1.892702776E0,9.099986637E-1,2.079793797E0,2.955666355E0
1.243283454E1,1.459908538E0,6.778525078E-1,2.829318843E0,3.255128580E0
1.244286354E1,9.719917211E-1,4.375664431E-1,3.964109619E0,4.104923552E0
1.245289354E1,6.784980404E-1,4.501993525E-1,4.396704759E0,4.471470875E0
1.246292254E1,3.931141555E-1,3.681056142E-1,4.164422363E0,4.199101583E0
1.247295154E1,1.444963932E-1,3.513849163E-1,3.630109644E0,3.649937889E0
1.248298154E1,1.887489983E-1,5.515087956E-1,3.383671432E0,3.433514306E0
1.249301054E1,5.823285922E-1,8.712041420E-1,3.719570582E0,3.864363927E0
1.250303954E1,1.377210782E0,1.186637453E0,4.201488448E0,4.577916902E0
1.251306954E1,2.200115754E0,1.296707194E0,4.712874235E0,5.360330440E0
1.252309854E1,2.819530896E0,1.204452165E0,5.250852281E0,6.080453040E0
1.253312754E1,3.307472271E0,1.070074963E0,5.390552788E0,6.414241390E0
1.254315754E1,3.656634953E0,8.710755032E-1,5.034332224E0,6.282853862E0
1.255318654E1,3.779368302E0,7.433617884E-1,4.448709018E0,5.884490075E0
1.256321554E1,3.801566964E0,7.415374571E-1,3.669193311E0,5.335238395E0
1.257324454E1,3.867166584E0,9.406714028E-1,2.869587740E0,4.906564366E0
1.258327454E1,3.908582705E0,1.384613650E0,2.156401677E0,4.673782399E0
1.259330354E1,3.880711659E0,1.906794566E0,1.479183885E0,4.569876745E0
1.260333254E1,3.611542396E0,2.410663757E0,7.805117807E-1,4.411772531E0
1.261336254E1,3.155287082E0,2.811226680E0,6.738535970E-2,4.226508347E0
1.262339154E1,2.537779594E0,2.937624772E0,-4.701357266E-1,3.910369825E0
1.263342054E1,1.968578001E0,2.804735101E0,-9.029983771E-1,3.543620240E0
1.264345054E1,1.372484770E0,2.507255666E0,-1.171783479E0,3.089194384E0
1.265347954E1,5.874042678E-1,2.127300085E0,-1.396189967E0,2.611473885E0
1.266350854E1,-4.240596673E-1,1.478849716E0,-1.667735539E0,2.268956790E0
1.267353854E1,-1.336678176E0,4.639344621E-1,-2.132165553E0,2.558920412E0
1.268356754E1,-2.568290365E0,-8.240989727E-1,-2.754814205E0,3.855419020E0
1.269359654E1,-3.998924526E0,-2.029917632E0,-4.090841002E0,6.070168289E0
1.270362654E1,-5.304413946E0,-2.668502578E0,-6.099910094E0,8.512732609E0
1.271365554E1,-6.401702435E0,-2.539531127E0,-8.241538196E0,1.074029628E1
1.272368454E1,-7.157688947E0,-2.220450323E0,-8.931548819E0,1.165913697E1
1.273371354E1,-5.895637615E0,-2.153656409E0,-6.676609864E0,9.163727303E0
1.274374354E1,-2.713033218E0,-1.776548422E0,-4.402427137E0,5.467909860E0
1.275377254E1,-3.826768756E-1,-1.081417392E0,-3.180749660E0,3.381282828E0
1.276380154E1,1.249219910E0,-2.195658714E-1,-2.186740248E0,2.527962117E0
1.277383154E1,2.698272800E0,-4.472184420E-2,-1.084920166E0,2.908561141E0
1.278386054E1,3.699611988E0,-1.098213519E0,1.600696335E0,4.177969669E0
1.279388954E1,4.076485210E0,-3.100558605E0,5.415280078E0,7.453620171E0
1.280391954E1,4.212014898E0,-6.454968231E0,6.620560209E0,1.016068412E1
1.281394854E1,3.283816191E0,-1.209788100E1,3.662684190E-1,1.254098585E1
1.282397754E1,1.268225992E-1,-1.466481218E1,-3.349679228E0,1.504304328E1
1.283400754E1,-1.682412343E0,-1.091508751E1,-1.829046624E0,1.119442085E1
1.284403654E1,-6.538134348E-1,-5.791537880E0,-1.797362609E0,6.099171696E0
1.285406554E1,1.882664569E0,-1.299805049E0,9.167709088E-1,2.464627344E0
1.286409554E1,4.139229635E0,2.166807382E0,3.028520908E0,5.567783679E0
1.287412454E1,5.204338850E0,4.345435495E0,3.305453228E0,7.542809394E0
1.288415354E1,5.419636838E0,5.673310103E0,3.178000299E0,8.465140099E0
1.289418254E1,5.113364360E0,6.231550214E0,3.339410348E0,8.725272180E0
1.290421254E1,4.386057272E0,5.778959350E0,3.815579524E0,8.197104163E0
1.291424154E1,3.342849388E0,4.437047916E0,4.360916584E0,7.062551217E0
1.292427054E1,2.003674451E0,2.521664375E0,4.337661037E0,5.402666545E0
1.293430054E1,6.501802674E-1,4.805440629E-1,4.031410779E0,4.111682118E0
1.294432954E1,-4.918335745E-1,-1.270104117E0,3.848105246E0,4.082031200E0
1.295435854E1,-1.342104392E0,-2.463140178E0,3.644594074E0,4.599061829E0
1.296438854E1,-1.623967376E0,-3.058039992E0,3.508924638E0,4.929648136E0
1.297441754E1,-1.408313292E0,-2.854936371E0,3.478279381E0,4.715128361E0
1.298444654E1,-9.087374192E-1,-1.904329380E0,3.296243863E0,3.913757490E0
1.299447654E1,-2.755766425E-1,-5.779820645E-1,2.911629220E0,2.981206210E0
1.300450554E1,1.908677369E-1,6.863029039E-1,2.460444027E0,2.561489211E0
1.301453454E1,4.899656814E-1,1.693182330E0,2.066121837E0,2.715840977E0
1.302456354E1,5.842187047E-1,2.441636458E0,1.779246912E0,3.077112228E0
1.303459354E1,5.047106051E-1,2.803263942E0,1.450646256E0,3.196466187E0
1.304462254E1,1.438812661E-1,2.508083632E0,1.067192870E0,2.729484557E0
1.305465154E1,-3.156291926E-1,1.679814425E0,8.480895138E-1,1.908049819E0
1.306468154E1,-4.682295343E-1,8.348900092E-1,7.638738209E-1,1.224656457E0
1.307471054E1,-3.279481065E-1,3.278650761E-1,3.628705655E-1,5.888297852E-1
1.308473954E1,-2.184905684E-1,2.922087550E-2,-6.041460156E-2,2.285648970E-1
1.309476954E1,-1.192726743E-1,-1.208794892E-2,-3.351132115E-1,3.559114410E-1
1.310479854E1,1.817674229E-1,3.494489032E-1,-5.534687823E-1,6.793243886E-1
1.311482754E1,5.028377420E-1,8.818718022E-1,-8.248866657E-1,1.308044985E0
1.312485754E1,6.607216278E-1,1.359138501E0,-1.147193379E0,1.897330541E0
1.313488654E1,6.720131859E-1,1.428475369E0,-1.498679963E0,2.176737291E0
1.314491554E1,4.664575356E-1,9.888103598E-1,-1.781540775E0,2.090266991E0
1.315494604E1,1.961106429E-1,3.899028647E-1,-1.879236054E0,1.929251610E0
1.316497504E1,5.515678525E-2,-1.231938171E-1,-1.934531564E0,1.939234736E0
1.317500404E1,-1.064818901E-1,-6.405741692E-1,-1.971854196E0,2.076025681E0
1.318503304E1,-3.754453316E-1,-1.191885914E0,-1.952350369E0,2.318021396E0
1.319506304E1,-5.720471406E-1,-1.608795898E0,-1.923003632E0,2.571654165E0
1.320509204E1,-5.714293823E-1,-1.767559497E0,-1.965773091E0,2.704637122E0
1.321512104E1,-4.020153719E-1,-1.673143921E0,-2.072252350E0,2.693558380E0
1.322515104E1,-1.488835591E-1,-1.391225097E0,-2.217357731E0,2.621897956E0
1.323518004E1,7.800594985E-2,-9.353942907E-1,-2.366719885E0,2.546057819E0
1.324520904E1,1.777419072E-1,-3.562123775E-1,-2.425638768E0,2.458089274E0
1.325523904E1,1.066836190E-1,1.903508431E-1,-2.355798163E0,2.365882462E0
1.326526804E1,-2.662471175E-2,4.668469602E-1,-2.269805209E0,2.317470743E0
1.327529704E1,-2.995002329E-1,4.644197810E-1,-2.291826115E0,2.357509929E0
1.328532704E1,-1.072625518E0,5.059361815E-2,-2.283621887E0,2.523492449E0
1.329535604E1,-2.268329956E0,-6.123426425E-1,-2.153346507E0,3.187033963E0
1.330538504E1,-3.213960967E0,-1.104363036E0,-2.024310444E0,3.955628343E0
1.331541504E1,-3.949594783E0,-1.259448736E0,-1.990977807E0,4.598858847E0
1.332544404E1,-4.532148201E0,-1.218876076E0,-2.183699403E0,5.176347099E0
1.333547304E1,-5.182557971E0,-1.345865906E0,-2.748843906E0,6.018837511E0
1.334550304E1,-5.906392983E0,-1.906402218E0,-3.670188507E0,7.210418238E0
1.335553204E1,-6.329595741E0,-2.611012169E0,-6.098997928E0,9.169457046E0
1.336556104E1,-6.958620490E0,-3.542074842E0,-1.377345795E1,1.583277730E1
1.337559004E1,-8.375222502E0,-5.075273843E0,-1.684559908E1,1.948530126E1
1.338562004E1,-7.468005944E0,-5.331234539E0,-7.032724008E0,1.156081232E1
1.339564904E1,-4.522372826E0,-3.486645577E0,-5.307181433E-1,5.734999137E0
1.340567804E1,-3.764692083E0,-1.528176827E0,-9.457193041E-1,4.171644268E0
1.341570804E1,-3.438419204E0,-1.086049556E0,-1.672032512E0,3.974660109E0
1.342573704E1,-2.833346989E0,-2.404397296E0,-6.249492395E-1,3.768228108E0
1.343576604E1,-2.293930821E0,-3.670811820E0,1.203401420E0,4.492789001E0
1.344579604E1,-1.152698751E0,-4.096784404E0,3.008777785E0,5.212015025E0
1.345582504E1,1.295210892E-1,-4.394060941E0,3.560381305E0,5.656930466E0
1.346585404E1,9.314664236E-1,-4.947431490E0,3.215817166E0,5.973791768E0
1.347588404E1,1.379428339E0,-5.639386897E0,2.958161362E0,6.515844210E0
1.348591304E1,1.624268508E0,-6.286678932E0,1.952999264E0,6.780470950E0
1.349594204E1,2.521229342E0,-6.729903141E0,1.343329091E-1,7.187923137E0
1.350597104E1,3.989566349E0,-6.183746887E0,-1.107040403E0,7.441834698E0
1.351600104E1,5.572117605E0,-4.167165585E0,-1.069040444E0,7.039645664E0
1.352603004E1,6.764048542E0,-2.039139276E0,4.147642024E-1,7.076896990E0
1.353605904E1,6.636970419E0,-4.219473606E-1,1.653103905E0,6.852748970E0
1.354608904E1,5.856384087E0,8.809736699E-1,2.841027600E0,6.568469152E0
1.355611804E1,4.969219970E0,1.616361610E0,4.007761130E0,6.585432502E0
1.356614704E1,3.859587716E0,1.947932652E0,4.373891555E0,6.149941974E0
1.357617704E1,3.070519120E0,1.966634386E0,3.885257285E0,5.328317055E0
1.358620604E1,2.479114771E0,1.815054091E0,3.070651559E0,4.343884483E0
1.359623504E1,1.960794187E0,1.771682369E0,2.138807113E0,3.399715889E0
1.360626504E1,1.551213395E0,1.562844969E0,1.660313084E0,2.757786600E0
1.361629404E1,1.499314679E0,1.140052101E0,1.781738703E0,2.592731398E0
1.362632304E1,1.681944858E0,4.875461036E-1,2.655231445E0,3.180706484E0
1.363635304E1,1.593171261E0,-1.649932230E-1,3.681884400E0,4.015182457E0
1.364638204E1,1.587717270E0,-6.151732796E-1,3.889217896E0,4.245621290E0
1.365641104E1,1.776603678E0,-7.438131934E-1,3.983490215E0,4.424677727E0
1.366644104E1,2.309946344E0,-4.661020249E-1,4.188789757E0,4.806148442E0
1.367647004E1,3.249276103E0,1.102439886E-1,4.695530516E0,5.711213160E0
1.368649904E1,4.080508094E0,6.969793350E-1,5.162158206E0,6.616963340E0
1.369652804E1,4.774637204E0,1.177399437E0,5.280130459E0,7.215483874E0
1.370655804E1,5.405595919E0,1.617850311E0,4.982977298E0,7.527813071E0
1.371658704E1,5.892392410E0,1.951142773E0,4.486332927E0,7.658617993E0
1.372661604E1,6.130896828E0,2.172935264E0,4.078836668E0,7.677659288E0
1.373664604E1,6.206917064E0,2.319720842E0,3.741183353E0,7.609426857E0
1.374667504E1,6.011872076E0,2.450784427E0,3.333380407E0,7.297970615E0
1.375670404E1,5.484331602E0,2.612826560E0,2.666867404E0,6.634526170E0
1.376673404E1,4.596463772E0,2.778189327E0,1.812985639E0,5.668574078E0
1.377676304E1,3.433821831E0,2.789148179E0,9.284603700E-1,4.520234351E0
1.378679204E1,2.187155108E0,2.736345482E0,1.802965558E-1,3.507668872E0
1.379682204E1,1.038262017E0,2.650890765E0,-4.286777982E-1,2.879057922E0
1.380685104E1,-4.693910837E-2,2.449567037E0,-1.140910180E0,2.702639078E0
1.381688004E1,-1.497273708E0,2.217951808E0,-1.751560638E0,3.198296961E0
1.382691004E1,-2.933678486E0,1.890504808E0,-1.861188915E0,3.955313144E0
1.383693904E1,-3.980506089E0,1.343735180E0,-1.696222882E0,4.530698072E0
1.384696804E1,-5.241927091E0,6.198411119E-1,-2.751226062E0,5.952415264E0
1.385699704E1,-6.942791492E0,-2.036877573E-1,-6.067165686E0,9.222491088E0
1.386702704E1,-9.776538139E0,-1.166689092E0,-1.026315337E1,1.422231270E1
1.387705604E1,-1.247157772E1,-1.889386235E0,-1.237791468E1,1.767265693E1
1.388708504E1,-1.353913897E1,-2.236739497E0,-9.532353151E0,1.670859192E1
1.389711504E1,-1.091262466E1,-1.889067562E0,-4.881789477E0,1.210313272E1
1.390714404E1,-5.612907196E0,-9.568015319E-1,-2.362871393E0,6.164686333E0
1.391717304E1,-1.920292863E0,1.618368959E-1,-2.197877732E-1,1.939593392E0
1.392720304E1,4.920864666E-1,1.623555440E0,1.396848364E0,2.197559262E0
1.393723204E1,2.330468902E0,2.470349795E0,1.856463195E0,3.870422329E0
1.394726104E1,3.621865363E0,1.955235239E0,2.594064599E0,4.865184960E0
1.395729104E1,4.486675867E0,-3.280334759E-1,4.393622107E0,6.288225625E0
1.396732004E1,4.319289086E0,-4.794744317E0,5.596630887E0,8.542137236E0
1.397734904E1,3.739640857E0,-1.095903518E1,4.653765024E0,1.247969930E1
1.398737904E1,4.891920363E0,-1.865405752E1,-5.674713435E0,2.010241576E1
1.399740804E1,2.201479909E0,-1.909869266E1,-7.453204887E0,2.061933166E1
1.400743704E1,3.487995699E-1,-1.287130975E1,-6.323900553E0,1.434517320E1
1.401746604E1,2.648208354E0,-5.891463872E0,-3.561229151E0,7.375954658E0
1.402749604E1,4.669786687E0,-5.745058948E-1,7.938564424E-1,4.771495864E0
1.403752504E1,5.528100350E0,2.743317118E0,2.364088930E0,6.608676021E0
1.404755404E1,5.727734817E0,4.842068757E0,2.596126328E0,7.936778181E0
1.405758404E1,5.556111436E0,6.353449457E0,3.412224555E0,9.103843733E0
1.406761304E1,5.184252495E0,7.166045787E0,4.368253670E0,9.864599651E0
1.407764204E1,4.793338646E0,7.105876184E0,5.189932480E0,1.002022808E1
1.408767204E1,4.042760809E0,5.877979023E0,5.321564999E0,8.900202604E0
1.409770104E1,3.243431519E0,3.623041238E0,4.786983308E0,6.823597659E0
1.410773004E1,2.187507987E0,1.219501144E0,4.312939010E0,4.987365751E0
1.411776004E1,1.059800236E0,-9.010208488E-1,4.051524031E0,4.283673900E0
1.412778904E1,2.034334034E-1,-2.474437584E0,3.849536644E0,4.580737810E0
1.413781804E1,-9.677902043E-2,-3.152199460E0,3.824932730E0,4.957402344E0
1.414784804E1,1.406974572E-1,-2.851567791E0,3.937704470E0,4.863820631E0
1.415787679E1,6.480138740E-1,-1.719976611E0,3.816763000E0,4.236262660E0
1.416790579E1,1.210703131E0,-4.060347480E-1,3.521514863E0,3.745895516E0
1.417793579E1,1.616526502E0,6.368477386E-1,3.289766318E0,3.720389146E0
1.418796479E1,1.866547596E0,1.338366267E0,3.040460923E0,3.810462809E0
1.419799379E1,1.896287996E0,1.577378808E0,2.910560349E0,3.815153158E0
1.420802279E1,1.601783332E0,1.371090794E0,2.943572559E0,3.620803671E0
1.421805279E1,9.665052786E-1,9.462250882E-1,2.976640903E0,3.269535966E0
1.422808179E1,5.826364481E-1,6.210608411E-1,2.942310730E0,3.063066149E0
1.423811079E1,4.814059424E-1,3.834890538E-1,2.221831436E0,2.305504384E0
1.424814079E1,2.910442820E-1,4.546034753E-2,1.728729308E0,1.753647181E0
1.425816979E1,1.586624426E-1,-8.297140539E-2,1.613480102E0,1.623384140E0
1.426819879E1,1.901435593E-1,1.900754392E-2,1.419219811E0,1.432026792E0
1.427822879E1,1.709056351E-1,1.631121737E-1,8.390883831E-1,8.717130445E-1
1.428825779E1,6.295258552E-2,1.580625182E-1,2.568793664E-1,3.081132853E-1
1.429828679E1,-6.160421759E-2,-3.199070156E-2,-1.765064637E-1,1.896655381E-1
1.430831679E1,-2.280083737E-1,-3.668543100E-1,-5.432789858E-1,6.940619278E-1
1.431834579E1,-3.613210899E-1,-6.678420746E-1,-8.126144564E-1,1.112163757E0
1.432837479E1,-3.167001101E-1,-7.681867272E-1,-1.115000144E0,1.390552095E0
1.433840479E1,-2.316216606E-1,-7.297985870E-1,-1.596363402E0,1.770488826E0
1.434843379E1,-3.095559821E-1,-6.142605293E-1,-2.156999847E0,2.264020593E0
1.435846279E1,-5.541821426E-1,-5.801168829E-1,-2.363901965E0,2.496334502E0
1.436849279E1,-8.991085169E-1,-6.115146768E-1,-2.289341633E0,2.534448942E0
1.437852179E1,-1.150634977E0,-5.715781939E-1,-2.276863967E0,2.614339689E0
1.438855079E1,-1.284808695E0,-3.619315392E-1,-2.470689811E0,2.808208675E0
1.439857979E1,-1.388426034E0,-6.278564751E-2,-3.038807330E0,3.341559349E0
1.440860979E1,-1.728044891E0,2.866024446E-1,-4.779003905E0,5.089907507E0
1.441863879E1,-2.415943792E0,4.611722374E-1,-6.787570721E0,7.219458465E0
1.442866779E1,-3.018645838E0,3.038762891E-1,-6.301273583E0,6.993612247E0
1.443869779E1,-3.204067771E0,-1.263700247E-2,-4.258514881E0,5.329273774E0
1.444872679E1,-3.140955264E0,-4.565371495E-1,-2.984801277E0,4.356955910E0
1.445875579E1,-2.946023712E0,-9.388342077E-1,-2.697573765E0,4.103336398E0
1.446878579E1,-2.826864474E0,-1.221499137E0,-2.670844096E0,4.076350215E0
1.447881479E1,-2.870290575E0,-1.219996403E0,-2.561512273E0,4.035877145E0
1.448884379E1,-3.012725532E0,-8.784242839E-1,-2.349015685E0,3.919951408E0
1.449887379E1,-3.206087984E0,-4.872917497E-1,-2.311132452E0,3.982183650E0
1.450890279E1,-3.402686869E0,-4.584181988E-1,-2.682700202E0,4.357213049E0
1.451893179E1,-3.700244365E0,-9.032240796E-1,-3.794506159E0,5.376420657E0
1.452896179E1,-4.180113659E0,-1.661818449E0,-6.036118140E0,7.527928863E0
1.453899079E1,-4.799136745E0,-2.629401662E0,-9.856501737E0,1.127369030E1
1.454901979E1,-6.294315981E0,-4.310614157E0,-1.318052221E1,1.522911599E1
1.455904979E1,-7.660288122E0,-6.236049646E0,-1.027948698E1,1.425609280E1
1.456907879E1,-6.285845704E0,-5.966380153E0,-3.724317352E0,9.432925744E0
1.457910779E1,-4.465776456E0,-3.932584063E0,-5.547569239E-1,5.976297517E0
1.458913679E1,-4.276192475E0,-2.594554596E0,-6.023471197E-1,5.037892187E0
1.459916679E1,-3.611802889E0,-2.705094454E0,-6.280525030E-1,4.555996714E0
1.460919579E1,-2.963036478E0,-3.618697926E0,6.304029375E-1,4.719318565E0
1.461922479E1,-2.375070586E0,-4.141303350E0,2.382962719E0,5.335715982E0
1.462925479E1,-1.379823026E0,-4.211687454E0,3.421356736E0,5.598919959E0
1.463928379E1,-3.999092048E-1,-4.628744788E0,3.505827953E0,5.820312304E0
1.464931279E1,3.786104295E-1,-5.395528768E0,3.124843846E0,6.246577111E0
1.465934279E1,1.039452510E0,-5.899804925E0,2.467347250E0,6.478885871E0
1.466937179E1,1.788890725E0,-6.121019711E0,9.472489357E-1,6.447037527E0
1.467940079E1,3.261803763E0,-5.583549496E0,-8.385924661E-1,6.520630804E0
1.468943079E1,5.696129447E0,-3.835318555E0,-1.939116805E0,7.135526125E0
1.469945979E1,7.416341701E0,-1.709651012E0,-1.781144918E0,7.816489495E0
1.470948879E1,7.121916851E0,-2.187098390E-1,-5.237468004E-1,7.144497486E0
1.471951879E1,5.965234684E0,8.212373453E-1,1.337849958E0,6.168330254E0
1.472954779E1,4.813070953E0,1.334534587E0,2.893463383E0,5.772240891E0
1.473957679E1,3.787371971E0,1.384926476E0,2.988545834E0,5.019324057E0
1.474960679E1,3.053494659E0,1.279790615E0,2.250079919E0,4.003067985E0
1.475963579E1,2.619810767E0,1.246574337E0,1.651195374E0,3.338233394E0
1.476966479E1,2.294068522E0,1.172273768E0,1.283563385E0,2.878282671E0
1.477969479E1,1.865816402E0,9.392616391E-1,2.199266153E0,3.033192194E0
1.478972379E1,1.711214850E0,9.789139473E-1,2.966516156E0,3.561845994E0
1.479975279E1,1.738800260E0,1.035669946E0,3.038370835E0,3.650717178E0
1.480978179E1,1.872186066E0,1.033204175E0,3.207135513E0,3.854647809E0
1.481981179E1,1.965312623E0,9.385997343E-1,3.518018813E0,4.137617616E0
1.482984079E1,1.949787973E0,8.735430282E-1,3.902328815E0,4.448923549E0
1.483986979E1,1.911712951E0,8.972125572E-1,4.062536677E0,4.578628729E0
1.484989979E1,1.994776450E0,1.077968704E0,4.422189556E0,4.969598584E0
1.485992879E1,2.203011003E0,1.349190633E0,4.939540672E0,5.574283353E0
1.486995779E1,2.561584486E0,1.584505979E0,5.317851432E0,6.111621563E0
1.487998779E1,3.051462167E0,1.684839522E0,5.250653476E0,6.302338256E0
1.489001679E1,3.559598655E0,1.672408926E0,4.812785316E0,6.215351696E0
1.490004579E1,3.910529828E0,1.519545168E0,4.339783869E0,6.036139916E0
1.491007579E1,4.101305763E0,1.218060390E0,3.990018632E0,5.850181942E0
1.492010479E1,4.276267027E0,9.362859911E-1,3.600894031E0,5.668291539E0
1.493013379E1,4.478927429E0,8.288346326E-1,2.928363951E0,5.415078318E0
1.494016379E1,4.585916565E0,9.625598699E-1,2.195689996E0,5.174766352E0
1.495019279E1,4.462601126E0,1.301132952E0,1.573834518E0,4.907617635E0
1.496022179E1,4.116758493E0,1.724230460E0,1.126492700E0,4.603222455E0
1.497025179E1,3.680697708E0,2.111392735E0,7.092286670E-1,4.302152972E0
1.498028079E1,3.245250295E0,2.426931880E0,2.470822835E-1,4.059888851E0
1.499030979E1,2.679868688E0,2.519259415E0,-1.238685858E-1,3.680177661E0
1.500033879E1,1.808208463E0,2.443210528E0,-7.044052988E-1,3.120109350E0
1.501036879E1,7.356849790E-1,2.137521018E0,-1.479429760E0,2.701655216E0
1.502039779E1,-5.251445773E-1,1.542197281E0,-2.384130262E0,2.887598723E0
1.503042679E1,-2.089809785E0,4.823450053E-1,-3.636343946E0,4.221724639E0
1.504045679E1,-4.475673746E0,-9.981910479E-1,-6.375798100E0,7.853587859E0
1.505048579E1,-7.880998878E0,-2.500482252E0,-1.209863646E1,1.465399464E1
1.506051479E1,-1.232221761E1,-3.710411503E0,-1.542720022E1,2.008986578E1
1.507054479E1,-1.457680807E1,-3.802025093E0,-1.000746281E1,1.808557548E1
1.508057379E1,-1.173812404E1,-2.463922536E0,-4.144953182E0,1.268996088E1
1.509060279E1,-6.400548779E0,-4.123088104E-1,-2.975441931E0,7.070380323E0
1.510063279E1,-3.105768767E0,1.513789753E0,-1.273837272E0,3.682393304E0
1.511066179E1,-4.419308048E-1,3.337625193E0,6.904427326E-1,3.436823524E0
1.512069079E1,1.406684842E0,4.326787555E0,2.573559583E0,5.227146614E0
1.513072079E1,2.511662420E0,3.780578091E0,5.630932993E0,7.232470199E0
1.514074979E1,3.555778962E0,8.742318302E-1,7.874142433E0,8.683891085E0
1.515077921E1,3.057620454E0,-4.275604538E0,8.050377513E0,9.614489852E0
1.516080921E1,1.726589519E0,-1.049193269E1,7.156973248E0,1.281733315E1
1.517083821E1,1.646104642E0,-1.479819886E1,5.776207066E0,1.597062673E1
1.518086721E1,1.352874379E0,-1.666972419E1,2.662434630E-1,1.672665117E1
1.519089721E1,-2.545608723E-1,-1.668854755E1,-1.341181117E1,2.141142450E1
1.520092621E1,3.678860805E0,-9.040198857E0,-9.895026702E0,1.389858862E1
1.521095521E1,6.434474909E0,-2.452042748E0,-2.369489418E0,7.282133005E0
1.522098421E1,7.209197069E0,9.772767270E-1,5.249560046E-1,7.294050383E0
1.523101421E1,7.430414779E0,3.392284965E0,2.332076594E0,8.494541913E0
1.524104321E1,6.900985655E0,4.844334553E0,3.277549145E0,9.046187521E0
1.525107221E1,6.369550350E0,5.711481312E0,3.854503269E0,9.383463427E0
1.526110221E1,5.967073048E0,5.931098054E0,4.017699058E0,9.323400164E0
1.527113121E1,5.609092473E0,4.827409787E0,4.093944411E0,8.457315441E0
1.528116021E1,5.003572361E0,2.832454997E0,3.872461238E0,6.932134860E0
1.529119021E1,3.991672516E0,9.029112536E-1,3.485354512E0,5.375536651E0
1.530121921E1,2.947750687E0,-7.331262374E-1,3.307834214E0,4.490932574E0
1.531124821E1,2.071839537E0,-1.781238474E0,3.433653431E0,4.388086764E0
1.532127821E1,1.470067491E0,-2.117146980E0,3.602528036E0,4.429629556E0
1.533130721E1,1.249740312E0,-1.905711077E0,3.627621946E0,4.284066589E0
1.534133621E1,1.309263505E0,-1.332410293E0,3.524056063E0,3.988540993E0
1.535136621E1,1.441328426E0,-6.825992775E-1,3.358123777E0,3.717575111E0
1.536139521E1,1.585247991E0,-2.827304184E-2,3.284193921E0,3.646880896E0
1.537142421E1,1.602937573E0,4.619253588E-1,3.238370461E0,3.642777394E0
1.538145421E1,1.510604775E0,7.893817145E-1,3.286227583E0,3.701937601E0
1.539148321E1,1.260821663E0,8.233750874E-1,3.211072150E0,3.546632509E0
1.540151221E1,8.668421191E-1,6.568773758E-1,2.870498151E0,3.069635611E0
1.541154221E1,2.914179191E-1,4.265561360E-1,2.398436644E0,2.453441028E0
1.542157121E1,-1.741862154E-1,3.084072965E-1,1.750130117E0,1.785612311E0
1.543160021E1,-4.507829046E-1,3.132277411E-1,1.312064322E0,1.422262152E0
1.544163021E1,-6.338603961E-1,3.659719652E-1,1.083344634E0,1.307421155E0
1.545165921E1,-7.455828533E-1,4.716902089E-1,1.076320374E0,1.391707941E0
1.546168821E1,-7.945641017E-1,5.649737638E-1,8.623987468E-1,1.301637071E0
1.547171821E1,-9.475187847E-1,5.774142998E-1,3.832990193E-1,1.173932391E0
1.548174721E1,-1.082621334E0,6.197475564E-1,-5.115655884E-3,1.247470303E0
1.549177621E1,-1.208665376E0,7.526477516E-1,-5.440090106E-1,1.524236344E0
1.550180621E1,-1.467419287E0,7.900594068E-1,-1.201905702E0,2.054772626E0
1.551183521E1,-1.924673305E0,4.252212167E-1,-1.473356988E0,2.460886269E0
1.552186421E1,-2.297334192E0,-1.598938662E-1,-1.556416394E0,2.779521979E0
1.553189421E1,-2.443558730E0,-6.663440180E-1,-1.619471160E0,3.006273516E0
1.554192321E1,-2.454799418E0,-9.765850013E-1,-1.818775405E0,3.207444843E0
1.555195221E1,-2.405944469E0,-1.124868051E0,-2.228896626E0,3.467257863E0
1.556198221E1,-2.351585244E0,-1.158946209E0,-3.188689301E0,4.128056314E0
1.557201121E1,-2.262148572E0,-1.042031132E0,-5.511538112E0,6.048156529E0
1.558204021E1,-1.807654147E0,-7.561490643E-1,-8.514045342E0,8.736609355E0
1.559207021E1,-1.188550077E0,-5.836807609E-1,-9.219917707E0,9.314516469E0
1.560209921E1,-1.038708890E0,-6.476335126E-1,-6.992474699E0,7.098806079E0
1.561212821E1,-1.480614114E0,-9.142577755E-1,-4.165752313E0,4.514596080E0
1.562215821E1,-1.911640884E0,-1.001180729E0,-2.781874535E0,3.520732829E0
1.563218721E1,-1.897841163E0,-9.820310980E-1,-2.691845540E0,3.436890829E0
1.564221621E1,-2.106928239E0,-9.819778883E-1,-2.506483249E0,3.418462440E0
1.565224521E1,-2.884110762E0,-1.079141071E0,-2.008424729E0,3.676467085E0
1.566227521E1,-3.730352263E0,-1.057379488E0,-1.785333279E0,4.268605663E0
1.567230421E1,-4.354866470E0,-9.240074229E-1,-1.736073995E0,4.778347476E0
1.568233421E1,-4.842419590E0,-1.080252042E0,-2.128919179E0,5.398913671E0
1.569236321E1,-5.387609884E0,-1.930521398E0,-3.212953492E0,6.563255539E0
1.570239221E1,-5.850564353E0,-3.145119651E0,-5.522409840E0,8.638164811E0
1.571242221E1,-6.518858417E0,-4.637822590E0,-1.059765386E1,1.327837267E1
1.572245121E1,-7.252473482E0,-6.020055839E0,-1.371591082E1,1.664228511E1
1.573248021E1,-6.043966858E0,-5.783117305E0,-8.436708899E0,1.188074232E1
1.574250921E1,-3.427802122E0,-4.011400437E0,-2.322528675E0,5.765006531E0
1.575253921E1,-2.199329596E0,-2.618991280E0,-1.669047947E0,3.805507462E0
1.576256821E1,-1.354849129E0,-2.652114002E0,-2.617245886E0,3.964757353E0
1.577259721E1,-1.051459183E0,-3.660841148E0,-1.707150597E0,4.173929501E0
1.578262721E1,-7.585332665E-1,-4.185538706E0,4.634130366E-1,4.278885207E0
1.579265621E1,3.312406737E-1,-4.115025378E0,2.484272600E0,4.818170254E0
1.580268521E1,1.318551223E0,-4.149437411E0,3.470695542E0,5.567956151E0
1.581271521E1,1.808570991E0,-4.597009610E0,3.498710137E0,6.053461737E0
1.582274421E1,1.890986034E0,-5.348545806E0,3.082039889E0,6.456139736E0
1.583277321E1,2.179508119E0,-5.530873100E0,1.905228682E0,6.242652418E0
1.584280321E1,3.163938037E0,-5.455393147E0,7.362821259E-2,6.306919962E0
1.585283221E1,4.678817712E0,-4.800911960E0,-1.417465646E0,6.851955902E0
1.586286121E1,6.203333305E0,-3.174521790E0,-1.263942322E0,7.082124179E0
1.587289121E1,6.814745071E0,-1.678108792E0,-1.386736628E-1,7.019688731E0
1.588292021E1,6.462022896E0,-5.207922024E-1,1.257981670E0,6.603899024E0
1.589294921E1,5.875671712E0,2.652846658E-1,2.636132977E0,6.445393013E0
1.590297921E1,5.018683906E0,5.675477082E-1,3.928137548E0,6.398403171E0
1.591300821E1,4.120798626E0,7.017956865E-1,4.333130615E0,6.020757380E0
1.592303721E1,3.560581280E0,8.857613701E-1,3.362702147E0,4.976954690E0
1.593306721E1,3.087840911E0,9.988851124E-1,2.795998192E0,4.283706205E0
1.594309621E1,2.536271889E0,1.091271704E0,2.490931117E0,3.718640459E0
1.595312521E1,2.253030424E0,1.212542957E0,2.295784973E0,3.437591476E0
1.596315521E1,2.046952617E0,1.097820586E0,2.409636401E0,3.346875056E0
1.597318421E1,1.791928938E0,8.191639227E-1,2.471641445E0,3.160862269E0
1.598321321E1,1.765436081E0,5.896764958E-1,2.561769258E0,3.166566698E0
1.599324321E1,1.837715560E0,4.294499230E-1,2.771687808E0,3.353189381E0
1.600327221E1,2.268495725E0,4.852767992E-1,2.926190249E0,3.734187435E0
1.601330121E1,2.986288809E0,7.254026502E-1,3.285711566E0,4.498892124E0
1.602333121E1,3.752226112E0,1.075717526E0,3.791289898E0,5.441529939E0
1.603336021E1,4.284909797E0,1.468233511E0,4.223642963E0,6.193167323E0
1.604338921E1,4.659760759E0,1.896477739E0,4.468104233E0,6.728592243E0
1.605341921E1,4.927697137E0,2.294906428E0,4.464680688E0,7.034356277E0
1.606344821E1,5.069194493E0,2.722418000E0,4.166848958E0,7.104289043E0
1.607347721E1,5.068546037E0,3.007273881E0,3.696800062E0,6.957024208E0
1.608350721E1,4.920931908E0,3.119443942E0,3.261828614E0,6.677276935E0
1.609353621E1,4.527356115E0,3.085265797E0,2.935938142E0,6.215750253E0
1.610356521E1,3.904711556E0,2.859584908E0,2.509988947E0,5.451976036E0
1.611359521E1,3.101294477E0,2.495947151E0,1.786503599E0,4.363413197E0
1.612362421E1,2.180161253E0,2.122669675E0,9.771460417E-1,3.195879226E0
1.613365321E1,1.217579456E0,1.741643468E0,3.420881358E-1,2.152404701E0
1.614368321E1,4.682084844E-1,1.331171268E0,-7.472507715E-2,1.413088804E0
1.615371196E1,-2.612474558E-1,9.856610495E-1,-4.491106009E-1,1.114216437E0
1.616374096E1,-8.791826677E-1,7.299909604E-1,-7.962752894E-1,1.392804115E0
1.617377096E1,-1.486839352E0,4.396316797E-1,-1.274077593E0,2.006798690E0
1.618379996E1,-2.296897113E0,-2.063950181E-2,-2.209057024E0,3.186862920E0
1.619382896E1,-3.492412393E0,-7.119259876E-1,-3.673370562E0,5.118342917E0
1.620385896E1,-5.016985874E0,-1.511632131E0,-6.414097363E0,8.282259591E0
1.621388796E1,-7.066456010E0,-2.236433102E0,-1.003864017E1,1.247841055E1
1.622391696E1,-9.503619933E0,-2.728674520E0,-1.251776137E1,1.595176499E1
1.623394696E1,-1.140881236E1,-2.707692372E0,-1.009782334E1,1.547445100E1
1.624397596E1,-1.005812543E1,-1.805413787E0,-5.088323659E0,1.141562279E1
1.625400496E1,-5.431978557E0,-2.092075288E-1,-3.124961083E0,6.270210570E0
1.626403496E1,-1.954102634E0,1.742083763E0,-1.096393719E0,2.838212841E0
1.627406396E1,8.160748386E-1,3.736117033E0,1.240267238E0,4.020299920E0
1.628409296E1,3.265422897E0,5.422312524E0,2.988660439E0,6.999753641E0
1.629412296E1,4.396888947E0,6.343771731E0,4.695659155E0,9.034671387E0
1.630415196E1,4.994306864E0,4.940468041E0,5.832991716E0,9.130997638E0
1.631418196E1,4.810352582E0,5.441184998E-1,6.855027709E0,8.392077323E0
1.632421096E1,2.873867024E0,-6.268198807E0,6.899763587E0,9.754802177E0
1.633423996E1,1.868138916E0,-1.343849552E1,6.007800075E0,1.483835458E1
1.634426996E1,4.892110983E-1,-2.071313463E1,-5.074286249E0,2.133123659E1
1.635429896E1,-4.363287337E0,-2.510960228E1,-2.116075302E1,3.312563768E1
1.636432796E1,-9.750375357E-1,-1.631860591E1,-1.204208453E1,2.030417191E1
1.637435796E1,4.151445345E0,-6.665796608E0,-3.770671738E0,8.711217379E0
1.638438696E1,6.305692323E0,-1.169944822E0,2.185835391E0,6.775573992E0
1.639441596E1,7.267586195E0,2.663634186E0,4.687033342E0,9.048814162E0
1.640444596E1,7.876618729E0,5.222085734E0,5.183734431E0,1.077879421E1
1.641447496E1,7.941668419E0,6.923952348E0,6.066457003E0,1.215784167E1
1.642450396E1,7.853803478E0,7.645771825E0,5.912350127E0,1.245375204E1
1.643453396E1,6.995118225E0,7.254849790E0,4.801855116E0,1.116343751E1
1.644456296E1,5.866652967E0,5.446103675E0,3.507136559E0,8.739431853E0
1.645459196E1,4.658773749E0,2.759006951E0,2.606215113E0,6.009047297E0
1.646462196E1,3.549644648E0,3.805572599E-1,2.555200496E0,4.390199372E0
1.647465096E1,2.633481557E0,-1.497467251E0,3.245989383E0,4.440054094E0
1.648467996E1,1.912731829E0,-2.852050186E0,4.006440829E0,5.276769981E0
1.649470996E1,1.400536495E0,-3.450967036E0,4.334792393E0,5.714989156E0
1.650473896E1,1.233427165E0,-3.234061648E0,4.329487799E0,5.543010186E0
1.651476796E1,1.184892644E0,-2.223647581E0,4.101289684E0,4.813434970E0
1.652479796E1,1.278912363E0,-9.620710427E-1,3.816057826E0,4.138054477E0
1.653482696E1,1.530108163E0,1.354168367E-1,3.411044587E0,3.740961625E0
1.654485596E1,1.508766410E0,8.209362137E-1,2.944034489E0,3.408467606E0
1.655488596E1,1.264016289E0,1.159842587E0,2.345379594E0,2.905817862E0
1.656491496E1,8.916343135E-1,1.173106996E0,1.800962301E0,2.326941551E0
1.657494396E1,4.699910080E-1,8.906168979E-1,1.290296307E0,1.636751223E0
1.658497396E1,1.655665424E-1,5.913359356E-1,7.232514596E-1,9.487798177E-1
1.659500296E1,-8.414464921E-2,2.739777213E-1,2.675889804E-1,3.921070979E-1
1.660503196E1,-2.540121111E-1,4.737355649E-2,2.551089026E-2,2.596482466E-1
1.661506196E1,-3.343926153E-1,-8.013901412E-2,-4.291797817E-2,3.465294152E-1
