"Time (s)","Linear Acceleration x (m/s^2)","Linear Acceleration y (m/s^2)","Linear Acceleration z (m/s^2)","Absolute acceleration (m/s^2)"
-2.116666667E-4,-7.437501605E0,-1.059970156E1,-2.937742301E0,1.327781733E1
9.818333333E-3,-8.653554060E0,-1.314416540E1,-5.792498578E0,1.676920158E1
1.984833333E-2,-8.056428797E0,-1.465071337E1,-4.453816561E0,1.730277230E1
2.987833333E-2,-6.885303422E0,-1.441326262E1,-1.842792990E0,1.607934789E1
3.990933333E-2,-6.359484369E0,-1.271820392E1,-1.146378496E0,1.426569087E1
4.993933333E-2,-6.267997663E0,-1.001937242E1,-2.043793952E0,1.199386143E1
5.996933333E-2,-6.239389576E0,-7.588411809E0,-3.109777325E0,1.030459563E1
6.999933333E-2,-5.866765818E0,-5.644921871E0,-2.631323642E0,8.556164340E0
8.003033333E-2,-4.796142094E0,-3.879868491E0,-1.765291947E0,6.416588981E0
9.006033333E-2,-3.290249882E0,-2.187583709E0,-1.203040062E0,4.130202436E0
1.000903333E-1,-1.613837952E0,-6.233090955E-1,-4.430201411E-1,1.785848260E0
1.101203333E-1,-1.718613625E-2,9.228274548E-1,3.549682362E-1,9.888924731E-1
1.201503333E-1,1.413214428E0,2.369972983E0,7.782822374E-1,2.866996721E0
1.301813333E-1,2.497788147E0,3.655978603E0,9.439078367E-1,4.527260450E0
1.402113333E-1,3.125182107E0,4.779084304E0,1.098426504E0,5.814890435E0
1.502413333E-1,3.510987243E0,5.872721207E0,1.207473567E0,6.947940574E0
1.602713333E-1,3.955729682E0,6.958667268E0,1.122046770E0,8.082687450E0
1.703023333E-1,4.378938872E0,7.901182297E0,7.001223595E-1,9.060571652E0
1.803323333E-1,4.416764217E0,8.712933705E0,7.492519811E-2,9.768758042E0
1.903623333E-1,4.003709010E0,9.396380829E0,-5.336603160E-1,1.022772955E1
2.003923333E-1,3.997166853E0,9.681103393E0,-1.404796923E0,1.056761847E1
2.104223333E-1,3.792114648E0,9.718339632E0,-1.243010313E0,1.050577619E1
2.204533333E-1,3.423298304E0,9.622002077E0,-1.386376293E-1,1.021377088E1
2.304833333E-1,3.113145322E0,9.483007329E0,8.045862293E-1,1.001331418E1
2.405133333E-1,2.908641293E0,9.442941037E0,1.310890932E0,9.967334882E0
2.505433333E-1,2.783570520E0,9.463751278E0,1.608018364E0,9.994827470E0
2.605743333E-1,2.673237946E0,9.550807548E0,1.942956086E0,1.010639423E1
2.706043333E-1,2.631220146E0,9.640586282E0,2.368002910E0,1.026993968E1
2.806343333E-1,2.593317910E0,9.728371700E0,2.835945200E0,1.045988044E1
2.906643333E-1,2.481810338E0,9.736494652E0,3.254287752E0,1.056168071E1
3.006943333E-1,2.357836941E0,9.571065812E0,3.462341625E0,1.044760764E1
3.107253333E-1,2.314074771E0,9.316538853E0,3.428705517E0,1.019356953E1
3.207553333E-1,2.297049287E0,9.071765635E0,3.273126311E0,9.913966059E0
3.307853333E-1,2.345066476E0,8.795593454E0,3.097599914E0,9.615452470E0
3.408153333E-1,2.320336993E0,8.578034347E0,2.924294289E0,9.355112725E0
3.508453333E-1,2.208627692E0,8.424947224E0,2.702414675E0,9.119255292E0
3.608763333E-1,2.111896180E0,8.411636038E0,2.365770151E0,8.989582566E0
3.709063333E-1,2.393189353E-1,6.613672189E0,-1.563597798E0,6.800203780E0
3.809363333E-1,-9.723220888E-1,3.522057484E0,-5.139576259E0,6.305992649E0
3.909663333E-1,1.895316482E-2,-1.576986460E0,-6.663663543E0,6.847748341E0
4.009973333E-1,-5.596802795E-1,-1.005582747E1,-1.356412061E1,1.689432674E1
4.110273333E-1,-2.427221902E0,-2.292768102E1,-1.956050107E1,3.023546205E1
4.210573333E-1,-3.756166843E0,-2.495674671E1,-6.159800785E0,2.597866704E1
4.310873333E-1,-3.267182909E0,-2.223603961E1,1.892304873E0,2.255430689E1
4.411173333E-1,-1.672304846E0,-2.058186697E1,5.284426993E0,2.131513594E1
4.511483333E-1,-1.602902489E0,-1.937194942E1,6.008011744E0,2.034546450E1
4.611783333E-1,-1.793524936E0,-1.763258753E1,4.657795802E0,1.832539049E1
4.712083333E-1,-2.098406946E0,-1.472271365E1,9.333767089E-1,1.490076511E1
4.812383333E-1,-5.872354002E0,-1.275934493E1,-1.007439121E1,1.728521862E1
4.912693333E-1,-9.425654329E0,-1.305017959E1,-1.391277838E1,2.127711327E1
5.012993333E-1,-9.306375808E0,-1.282832103E1,-6.109853868E0,1.698542803E1
5.113293333E-1,-9.450972773E0,-1.235845749E1,-1.369526079E-1,1.555863470E1
5.213593333E-1,-8.864658426E0,-1.116463614E1,1.337802157E0,1.431855383E1
5.313893333E-1,-7.443433020E0,-8.763955924E0,5.159466147E-1,1.150990093E1
5.414203333E-1,-5.512087165E0,-5.976064312E0,-1.059911771E0,8.198772014E0
5.514503333E-1,-3.062058783E0,-3.263226390E0,-2.282254662E0,5.023299395E0
5.614803333E-1,-9.309039214E-1,-1.176276771E0,-2.821594963E0,3.195560560E0
5.715103333E-1,5.972398692E-1,3.920634109E-1,-2.756956333E0,2.848019909E0
5.815413333E-1,1.586004036E0,1.908706605E0,-2.032000995E0,3.207428526E0
5.915713333E-1,2.338979816E0,3.375063161E0,-1.064300764E0,4.242005898E0
6.016013333E-1,2.829502153E0,4.621042251E0,-3.540418911E-1,5.430051526E0
6.116313333E-1,3.114998889E0,5.802707816E0,7.304444119E-2,6.586347362E0
6.216613333E-1,3.274223834E0,6.806451380E0,2.521774010E-1,7.557242589E0
6.316923333E-1,3.297921137E0,7.699456281E0,3.313582758E-1,8.382583680E0
6.417223333E-1,3.318191095E0,8.501301920E0,2.152454368E-1,9.128464114E0
6.517523333E-1,3.333813978E0,9.192077944E0,-2.778362989E-2,9.778005139E0
6.617823333E-1,3.296243278E0,9.693045747E0,-1.549640056E-1,1.023935396E1
6.718133333E-1,3.203492990E0,9.753981920E0,-8.567808151E-2,1.026693096E1
6.818433333E-1,3.165741319E0,9.726862534E0,1.675833202E-1,1.023043777E1
6.918733333E-1,3.118012836E0,9.726364351E0,3.799755351E-1,1.022098571E1
7.019033333E-1,3.099321627E0,9.711248714E0,5.779725628E-1,1.021020070E1
7.119333333E-1,3.089989763E0,9.786787139E0,7.525201361E-1,1.029055517E1
7.219643333E-1,3.064123143E0,9.855869068E0,9.655786411E-1,1.036626007E1
7.319943333E-1,3.057048889E0,9.854141800E0,1.236952744E0,1.039132863E1
7.420243333E-1,3.075548310E0,9.827179120E0,1.542524871E0,1.041210016E1
7.520543333E-1,3.120238579E0,9.800412320E0,1.908892401E0,1.046077629E1
7.620853333E-1,3.149997983E0,9.804234061E0,2.301473436E0,1.055188480E1
7.721153333E-1,3.115714588E0,9.808812431E0,2.665868700E0,1.063143145E1
7.821453333E-1,3.035085577E0,9.774519680E0,3.050565204E0,1.067983743E1
7.921753333E-1,2.939806075E0,9.765568762E0,3.414969238E0,1.075503640E1
8.022053333E-1,2.788692681E0,9.753146353E0,3.680354476E0,1.079099994E1
8.122363333E-1,2.627890742E0,9.705719587E0,3.833180813E0,1.076104445E1
8.222663333E-1,2.477058890E0,9.625106363E0,3.866709917E0,1.066442398E1
8.322963333E-1,2.344495495E0,9.530583783E0,3.830615054E0,1.053576281E1
8.423263333E-1,2.261219157E0,9.319190565E0,3.703424081E0,1.027987231E1
8.523573333E-1,2.219841336E0,8.983464493E0,3.486511968E0,9.888685229E0
8.623873333E-1,2.258694037E0,8.705679649E0,3.310267825E0,9.583758656E0
8.724163333E-1,2.388823822E0,8.551144756E0,3.006439483E0,9.373752411E0
8.824463333E-1,2.330608065E0,8.422654531E0,2.510333933E0,9.092558483E0
8.924763333E-1,1.749242802E0,7.795334830E0,1.925499809E-1,7.991506178E0
9.025073333E-1,-7.064208341E-1,1.744746585E0,-1.469216311E1,1.481225263E1
9.125373333E-1,-4.179197108E0,-9.942617190E0,-3.467246620E1,3.631117235E1
9.225673333E-1,-4.882566865E0,-1.847013803E1,-1.428448471E1,2.385439082E1
9.325973333E-1,-3.624671734E0,-2.137889626E1,2.349446332E0,2.181089977E1
9.426283333E-1,-5.925853686E0,-2.621834430E1,7.106869626E-1,2.688907577E1
9.526583333E-1,-8.555506779E0,-3.163884418E1,-2.435622597E-1,3.277609617E1
9.626883333E-1,-9.479016019E0,-3.325822822E1,3.032579168E0,3.471538601E1
9.727183333E-1,-1.230951044E1,-3.102059936E1,-5.403435373E-1,3.337804074E1
9.827483333E-1,-1.200465182E1,-2.082190453E1,-3.223020643E0,2.424976775E1
9.927793333E-1,-7.506784678E0,-1.222313654E1,2.476816231E0,1.455649346E1
1.002809333E0,-4.264037868E0,-7.755905301E0,2.211830066E0,9.122953371E0
1.012839333E0,-2.192914615E0,-5.443072479E0,-1.283729884E0,6.006985511E0
1.022869333E0,-2.098121602E0,-6.472423924E0,-3.447706921E0,7.627651586E0
1.032900333E0,-3.852680692E0,-1.005045622E1,-3.715309424E0,1.138676174E1
1.042930333E0,-4.781683099E0,-1.209687879E1,-3.157663683E0,1.338543274E1
1.052960333E0,-4.164318283E0,-1.121575016E1,-2.561108522E0,1.223494485E1
1.062990333E0,-2.962707865E0,-8.662041879E0,-2.008323572E0,9.372404759E0
1.073020333E0,-1.797199911E0,-6.044028254E0,-1.223555603E0,6.423184052E0
1.083051333E0,-8.582037351E-1,-3.911910063E0,-7.713731673E-1,4.078550056E0
1.093081333E0,1.012892702E-1,-1.694661675E0,-4.583073941E-1,1.758460513E0
1.103111333E0,1.086899449E0,6.517329955E-1,-1.496055441E-1,1.276122301E0
1.113141333E0,1.792163704E0,2.925882393E0,9.533198074E-2,3.432451996E0
1.123171333E0,1.873190618E0,4.907212002E0,-1.032170972E-1,5.253591770E0
1.133202333E0,2.283609900E0,6.623532348E0,-4.565169767E-2,7.006292816E0
1.143232333E0,2.364093608E0,7.885866686E0,1.027333863E-1,8.233248819E0
1.153262333E0,2.458347508E0,8.883640242E0,8.289495304E-2,9.217885224E0
1.163292333E0,2.622062237E0,9.714037836E0,-1.139356282E-1,1.006234181E1
1.173323333E0,2.655660631E0,1.009785375E1,3.279264718E-3,1.044122572E1
1.183353333E0,2.599460410E0,1.001668504E1,5.518812633E-1,1.036319191E1
1.193383333E0,2.455624460E0,1.003874542E1,8.344105375E-1,1.036835290E1
1.203413333E0,2.217791010E0,1.004539019E1,1.035743036E0,1.033930485E1
1.213443333E0,1.888440448E0,1.004746595E1,1.123597598E0,1.028495265E1
1.223474333E0,1.596055692E0,1.011757056E1,1.152120169E0,1.030727940E1
1.233504333E0,1.386088025E0,1.022108031E1,1.042034786E0,1.036713843E1
1.243534333E0,1.275840236E0,1.024958198E1,6.726226120E-1,1.035056135E1
1.253564333E0,1.335839393E0,1.029237190E1,1.617598589E-1,1.037995918E1
1.263595333E0,1.548970988E0,1.056894053E1,-1.004246278E0,1.072894802E1
1.273625333E0,1.864094397E0,1.094397626E1,-2.543209903E0,1.138917824E1
1.283655333E0,2.092389576E0,1.080092530E1,-1.065770681E0,1.105323249E1
1.293685333E0,2.170945164E0,1.053380110E1,9.866101988E-1,1.080034111E1
1.303716333E0,2.295803099E0,1.043521938E1,2.196354678E0,1.090818451E1
1.313746333E0,2.483064273E0,1.048799401E1,2.956515371E0,1.117607309E1
1.323776333E0,2.620332339E0,1.058640499E1,3.454765972E0,1.143999651E1
1.333806333E0,2.659344961E0,1.063253250E1,3.768253622E0,1.158976266E1
1.343836333E0,2.591280740E0,1.065046942E1,3.937308029E0,1.164687208E1
1.353867333E0,2.381731149E0,1.058319136E1,3.912331063E0,1.153182193E1
1.363897333E0,2.163002014E0,1.048618956E1,3.743748819E0,1.134259249E1
1.373927333E0,1.848014261E0,1.018629873E1,3.520272914E0,1.093472267E1
1.383957333E0,1.660936397E0,9.219827660E0,3.212833039E0,9.903849148E0
1.393988333E0,1.757512811E0,8.270887125E0,2.700406741E0,8.876295493E0
1.404018333E0,1.625965077E0,7.649832716E0,2.039084312E0,8.082175935E0
1.414048333E0,3.730248767E-1,6.024654089E0,-1.969718792E0,6.349440651E0
1.424078333E0,-3.704631823E0,1.034074826E0,-1.850011904E1,1.889571412E1
1.434108333E0,-5.645531151E0,-5.147905033E0,-1.955190333E1,2.099166196E1
1.444139333E0,-9.156402912E0,-2.067710175E1,-2.101629931E0,2.271121087E1
1.454169333E0,-9.129762998E0,-3.117310878E1,2.236441581E0,3.255943726E1
1.464199333E0,-1.198484847E1,-4.498829947E1,-3.425695370E0,4.668317761E1
1.474229333E0,-1.498693412E1,-5.470823364E1,-8.961840320E-1,5.673096305E1
1.484259333E0,-1.184886913E1,-4.515471591E1,5.888322748E0,4.705333584E1
1.494290333E0,-5.163052830E0,-2.294670084E1,5.012329152E0,2.404852672E1
1.504320333E0,-7.970807433E-1,-1.131604862E1,1.733722830E0,1.147580450E1
1.514350333E0,1.205934434E0,-5.996027291E0,-4.161416602E-1,6.130236130E0
1.524380333E0,1.698749464E0,-3.401854518E0,-1.195680757E0,3.985977468E0
1.534411333E0,1.228754947E0,-3.712846869E0,-1.059502612E0,4.051865789E0
1.544441333E0,6.231757790E-2,-7.013933980E0,-3.391060558E-1,7.022403170E0
1.554471333E0,-9.754132193E-1,-1.021728664E1,8.311194322E-1,1.029733639E1
1.564501333E0,-1.050823005E0,-1.001327728E1,3.871135966E-1,1.007570384E1
1.574531333E0,-2.786028689E-1,-7.435015953E0,-9.759961867E-1,7.503975636E0
1.584562333E0,7.051961347E-1,-5.099371389E0,-2.474759181E0,5.711858117E0
1.594592333E0,1.304878971E0,-2.896078550E0,-3.485333462E0,4.715668504E0
1.604622333E0,2.107909548E0,-4.335646087E-1,-3.779699839E0,4.349412812E0
1.614652333E0,2.729547510E0,1.981862290E0,-3.337335756E0,4.745104603E0
1.624683333E0,2.376845216E0,3.961924222E0,-2.400700540E0,5.206687988E0
1.634713333E0,1.549190551E0,5.711550309E0,-1.420445387E0,6.086005537E0
1.644743333E0,4.542084959E-1,7.280502695E0,-6.165058601E-1,7.320662834E0
1.654773333E0,-6.634062307E-1,8.656917379E0,-4.057944274E-1,8.691777462E0
1.664803333E0,-1.742211379E0,9.941880441E0,-8.822535523E-1,1.013186353E1
1.674834333E0,-2.602969324E0,1.088656596E1,-2.351267155E0,1.143771065E1
1.684864333E0,-3.548135189E0,1.131236488E1,-3.570334436E0,1.238168609E1
1.694894333E0,-4.251371922E0,1.122461688E1,-3.287710437E0,1.244488760E1
1.704924333E0,-4.104711474E0,1.094002822E1,-2.263300474E0,1.190190753E1
1.714955333E0,-2.850673751E0,1.053984127E1,-8.511908039E-1,1.095167205E1
1.724985333E0,-1.157313666E0,1.017051593E1,2.845092145E-1,1.024010325E1
1.735015333E0,1.263934135E-2,1.003568381E1,1.151515640E0,1.010153937E1
1.745045333E0,8.356744131E-1,1.008827484E1,1.606183362E0,1.024946174E1
1.755075333E0,1.302106513E0,1.022461671E1,1.846441945E0,1.047127576E1
1.765106333E0,1.528445799E0,1.034679311E1,1.906261300E0,1.063137368E1
1.775136333E0,1.629767522E0,1.043149704E1,1.803029877E0,1.071089116E1
1.785166333E0,1.660534109E0,1.039631435E1,1.594284278E0,1.064812039E1
1.795196333E0,1.714710900E0,1.031915215E1,1.307331001E0,1.054202300E1
1.805227333E0,1.852426570E0,1.020827842E1,1.027821155E0,1.042577809E1
1.815257333E0,2.084077174E0,1.007388835E1,7.819854252E-1,1.031688448E1
1.825287333E0,2.358244053E0,9.946431913E0,5.880907309E-1,1.023907581E1
1.835317333E0,2.590648071E0,9.816885681E0,4.975723243E-1,1.016515028E1
1.845347333E0,2.783576659E0,9.687033640E0,4.881374033E-1,1.009084723E1
1.855378333E0,2.933686087E0,9.610119365E0,5.507549433E-1,1.006301343E1
1.865408708E0,3.055637663E0,9.489107144E0,7.649726589E-1,9.998262803E0
1.875438708E0,3.169924709E0,9.392014128E0,9.938956833E-1,9.962237734E0
1.885468708E0,3.261547947E0,9.292567023E0,1.282301263E0,9.931454748E0
1.895499708E0,3.327726442E0,9.105370753E0,1.620541639E0,9.828921356E0
1.905529708E0,3.404473194E0,8.819046636E0,1.949737979E0,9.652331297E0
1.915559708E0,3.270407356E0,8.540615090E0,2.339416019E0,9.439837801E0
1.925589708E0,2.993906561E0,8.273226011E0,2.594708962E0,9.172909011E0
1.935619708E0,2.799645393E0,7.943809669E0,2.421866583E0,8.763992477E0
1.945650708E0,-3.505604589E-1,2.932265214E0,-2.957784802E0,4.179660614E0
1.955680708E0,-8.560701445E0,-9.152744894E0,-1.919762638E1,2.292612499E1
1.965710708E0,-1.160959639E1,-2.150848459E1,-1.773005477E1,3.019523936E1
1.975740708E0,-1.086213161E1,-2.913727201E1,1.865871073E0,3.115201435E1
1.985771708E0,-1.604679458E1,-3.914452900E1,3.915304956E0,4.248674358E1
1.995801708E0,-2.651492911E1,-5.039230086E1,-2.534838152E0,5.699869170E1
2.005831708E0,-3.104021092E1,-5.019159635E1,-3.641400325E0,5.912656624E1
2.015861708E0,-2.302647557E1,-3.163298761E1,-7.825330169E-1,3.913408796E1
2.025891708E0,-1.100277820E1,-1.626627918E1,5.970917885E-1,1.964712409E1
2.035922708E0,-4.961515678E0,-1.005597131E1,-1.407353472E0,1.130132031E1
2.045952708E0,-9.846190757E-1,-6.865293666E0,-3.247726007E0,7.658293286E0
2.055982708E0,1.180414554E0,-6.240342672E0,-3.287444973E0,7.151401935E0
2.066012708E0,1.454489923E0,-6.574930292E0,-2.425275364E0,7.157318623E0
2.076043708E0,7.772776857E-1,-6.703105937E0,-9.890026601E-1,6.820111147E0
2.086073708E0,1.949815455E-1,-5.723748186E0,-2.783204484E-1,5.733827114E0
2.096103708E0,3.659918457E-1,-3.762209648E0,-2.867557148E-1,3.790831084E0
2.106133708E0,1.015703459E0,-1.364318549E0,-1.694803397E-1,1.709310447E0
2.116163708E0,1.423045937E0,1.010756714E0,1.515714876E-1,1.752045316E0
2.126194708E0,1.628438450E0,3.227810975E0,4.312591247E-1,3.640955905E0
2.136224708E0,1.758258624E0,5.134777449E0,3.013759832E-1,5.435829313E0
2.146254708E0,1.770200977E0,6.657932687E0,8.445831578E-2,6.889761416E0
2.156284708E0,1.893714637E0,7.948719576E0,-2.343704367E-1,8.174547543E0
2.166314708E0,2.062048959E0,9.116662311E0,-9.854312539E-2,9.347474972E0
2.176345708E0,2.232981491E0,1.000048124E1,1.895374954E-1,1.024850017E1
2.186375708E0,2.820113571E0,1.022199949E1,-9.549440542E-2,1.060431202E1
2.196405708E0,2.924176760E0,1.024883237E1,-2.116106979E-1,1.065993216E1
2.206435708E0,2.846929779E0,1.040145054E1,-7.937944254E-2,1.078431656E1
2.216466708E0,2.892334578E0,1.074996681E1,1.944433093E-1,1.113396578E1
2.226496708E0,2.867375153E0,1.109614888E1,4.691361817E-1,1.147024189E1
2.236526708E0,2.793535637E0,1.122740484E1,6.908532071E-1,1.159032954E1
2.246556708E0,2.735033952E0,1.134275403E1,1.013811373E0,1.171180145E1
2.256586708E0,2.743844537E0,1.129025071E1,1.423724506E0,1.170578641E1
2.266617708E0,2.886200264E0,1.125032358E1,1.903871104E0,1.176964986E1
2.276647708E0,3.092271054E0,1.116084247E1,2.383287678E0,1.182398432E1
2.286677708E0,3.329415410E0,1.103433211E1,2.814188880E0,1.186428048E1
2.296707708E0,3.574316390E0,1.085522956E1,3.140435447E0,1.185217622E1
2.306738708E0,3.723677959E0,1.058169447E1,3.205586877E0,1.166678288E1
2.316768708E0,3.901293858E0,1.032408252E1,3.117937700E0,1.146857921E1
2.326798708E0,3.997275903E0,1.006921876E1,3.087799104E0,1.126507366E1
2.336828708E0,3.962737277E0,9.840052350E0,2.971951436E0,1.101646097E1
2.346859708E0,3.883633805E0,9.646365085E0,2.741864377E0,1.075419877E1
2.356889708E0,3.877666722E0,9.493991323E0,2.614807889E0,1.058344891E1
2.366919708E0,3.857969206E0,9.388422183E0,2.503552917E0,1.045438543E1
2.376949708E0,3.875047461E0,9.296606280E0,2.447303872E0,1.036494946E1
2.386979708E0,3.859667238E0,9.218727214E0,2.436167557E0,1.028673296E1
2.397010708E0,3.837925828E0,9.087378286E0,2.329111178E0,1.013582151E1
2.407040708E0,3.878134791E0,8.886468540E0,2.162993243E0,9.934172958E0
2.417070708E0,4.429430456E0,8.728769719E0,2.544625514E0,1.011367361E1
2.427100708E0,9.246355308E0,8.262484092E0,-9.068680644E-1,1.243326745E1
2.437130708E0,5.992330681E0,4.768115512E0,-9.937081046E0,1.254545863E1
2.447161708E0,1.923890947E0,3.245060261E0,-9.312308977E0,1.004743106E1
2.457191708E0,-1.634106740E0,-2.203930185E0,-1.432941706E1,1.458971577E1
2.467221708E0,-5.130310761E0,-5.141509933E0,-8.793803036E0,1.140553308E1
2.477251708E0,-1.188910383E1,-1.219344672E1,-1.311475390E1,2.149482967E1
2.487282708E0,-2.312819140E1,-4.425202744E1,-2.020647573E1,5.386517271E1
2.497312708E0,-1.483261090E1,-5.236248041E1,-6.976569103E0,5.486809836E1
2.507342708E0,-9.506016122E0,-4.524127341E1,-3.110409117E0,4.633370056E1
2.517372708E0,-1.102438717E1,-3.750464463E1,6.401935154E0,3.961212257E1
2.527402708E0,-1.362299739E1,-3.037680455E1,9.096768329E0,3.451213564E1
2.537433708E0,-1.291733787E1,-1.874557463E1,6.583383611E0,2.369799834E1
2.547463708E0,-9.721111797E0,-1.249094370E1,2.611500704E0,1.604193333E1
2.557493708E0,-6.998272798E0,-1.055900844E1,-1.183022996E0,1.272273653E1
2.567523708E0,-5.839371028E0,-9.424869048E0,-2.165344409E0,1.129668655E1
2.577553708E0,-3.803775457E0,-7.041723458E0,-1.349520708E0,8.116389784E0
2.587584708E0,-6.303541133E-1,-3.849554186E0,2.227558929E0,4.492041020E0
2.597614708E0,-2.462765372E-1,-7.847916502E-1,3.376793936E0,3.475526918E0
2.607644708E0,-2.549255924E0,2.305789266E0,-4.786051261E-1,3.470509008E0
2.617674708E0,-2.509161859E0,5.827753195E0,-1.266188676E0,6.470072202E0
2.627705708E0,1.794083637E-1,8.727575718E0,4.210464509E-1,8.739567803E0
2.637735708E0,2.228809210E0,1.053931853E1,-1.525477168E-1,1.077349045E1
2.647765708E0,3.087236601E0,1.177319096E1,-2.886386790E0,1.250880825E1
2.657795708E0,4.395609283E0,1.278911194E1,-5.504526715E0,1.460077325E1
2.667825708E0,6.522448023E0,1.342555095E1,-6.407681798E0,1.624334118E1
2.677856708E0,8.119448333E0,1.328230119E1,-5.111743512E0,1.638520332E1
2.687886708E0,8.382869491E0,1.219503015E1,-3.125475930E0,1.512480945E1
2.697916708E0,6.843556641E0,1.065486653E1,-1.430321481E0,1.274387177E1
2.707946708E0,3.937690437E0,9.121607886E0,1.461980791E-1,9.936322775E0
2.717977708E0,1.791577813E0,8.420272375E0,1.884957554E0,8.812706901E0
2.728007708E0,8.009016064E-1,8.441446313E0,3.630749037E0,9.223979499E0
2.738037708E0,6.154425439E-1,8.307315279E0,4.714251254E0,9.571542276E0
2.748067708E0,1.028044592E0,8.196631579E0,5.160414566E0,9.740201406E0
2.758097708E0,1.750055273E0,8.248142626E0,4.635186081E0,9.621824164E0
2.768128708E0,3.080299465E0,8.149263285E0,3.073765494E0,9.238331624E0
2.778158708E0,4.106862665E0,8.078111442E0,1.373059552E0,9.165560427E0
2.788188708E0,4.397274863E0,8.305797341E0,-1.050639403E-1,9.398581496E0
2.798218708E0,4.370370947E0,8.676503212E0,-6.728567930E-1,9.738305113E0
2.808249708E0,3.586774760E0,9.216549127E0,-6.832108963E-1,9.913450868E0
2.818279708E0,2.876480730E0,9.732775238E0,-1.086184773E0,1.020690220E1
2.828309708E0,3.147980694E0,9.890485754E0,-9.993430956E-1,1.042737635E1
2.838339708E0,3.639475422E0,9.798409649E0,-1.653124809E-1,1.045380032E1
2.848369708E0,3.876169250E0,9.438412369E0,1.294686981E0,1.028516069E1
2.858400708E0,4.114240097E0,8.664493616E0,2.165613527E0,9.833122757E0
2.868431000E0,4.166802180E0,7.871660875E0,2.174428935E0,9.168065583E0
2.878461000E0,3.964395548E0,7.210963513E0,2.108325870E0,8.494672732E0
2.888491000E0,3.222826516E0,6.664996124E0,2.136752694E0,7.705484810E0
2.898522000E0,2.456320863E0,6.405942836E0,1.849536291E0,7.105659737E0
2.908552000E0,2.325054672E0,5.933478456E0,1.814557078E0,6.626059402E0
2.918582000E0,1.896544397E0,4.186427482E0,-5.905103087E-1,4.633762849E0
2.928612000E0,1.597908382E0,9.802985680E-1,-6.067912375E0,6.350894195E0
2.938642000E0,-7.369386220E-1,-4.970113424E0,-1.216632266E1,1.316299787E1
2.948673000E0,-3.488719000E0,-1.221908092E1,-2.299967427E1,2.627664582E1
2.958703000E0,-6.022826834E0,-1.858691394E1,-2.077540981E1,2.851956286E1
2.968733000E0,-7.074594165E0,-1.941685837E1,-6.874580213E-1,2.067696472E1
2.978763000E0,-6.750338575E0,-1.692957446E1,1.243701366E1,2.206483335E1
2.988794000E0,-9.466336332E0,-2.053838942E1,4.736360161E0,2.310562856E1
2.998824000E0,-1.363106421E1,-2.745927315E1,-4.983187798E0,3.105881121E1
3.008854000E0,-1.092643695E1,-3.084949112E1,-1.443035520E0,3.275912817E1
3.018884000E0,-7.463292503E0,-2.736139076E1,-3.534741849E0,2.858042755E1
3.028914000E0,-1.686956799E1,-1.832116734E1,-1.453128750E1,2.883410851E1
3.038945000E0,-1.497303295E1,-1.476839443E1,-5.714495552E0,2.179340839E1
3.048975000E0,-8.460350361E0,-1.390409176E1,-2.585845753E0,1.647992397E1
3.059005000E0,-7.814424235E0,-1.172217517E1,-3.038977192E0,1.441214763E1
3.069035000E0,-7.163582355E0,-1.045169216E1,-2.246593517E0,1.286864265E1
3.079065000E0,-5.256635177E0,-8.740396323E0,-1.692152635E0,1.033876791E1
3.089096000E0,-3.311691330E0,-6.500171301E0,-1.067900237E0,7.372919186E0
3.099126000E0,-2.360882609E0,-3.732433872E0,-3.887112021E-1,4.433500389E0
3.109156000E0,-1.782856106E0,-7.120113569E-1,5.189766419E-1,1.988686205E0
3.119186000E0,-1.276515882E0,2.103205463E0,1.493744621E0,2.878235399E0
3.129217000E0,-3.639114064E-1,5.237545187E0,2.332170149E0,5.744852366E0
3.139247000E0,1.276312983E0,8.033200732E0,2.468100371E0,8.500165191E0
3.149277000E0,3.295943316E0,9.692194977E0,1.556184990E0,1.035488279E1
3.159307000E0,5.422363395E0,1.046785620E1,2.712032175E-1,1.179201380E1
3.169337000E0,6.726960822E0,1.097765037E1,-8.488144223E-1,1.290276310E1
3.179368000E0,7.039744175E0,1.160149098E1,-1.826419763E0,1.369264037E1
3.189398000E0,6.849168799E0,1.138650173E1,-2.428494841E0,1.350781707E1
3.199428000E0,6.321647036E0,1.157772556E1,-2.663837085E0,1.345745066E1
3.209458000E0,5.709335968E0,1.216528653E1,-2.539972007E0,1.367633618E1
3.219489000E0,4.828640918E0,1.270291813E1,-2.029280870E0,1.374037419E1
3.229519000E0,3.350524151E0,1.142511089E1,-6.730729207E-1,1.192527560E1
3.239549000E0,2.728012031E0,9.578360213E0,1.559979833E0,1.008070291E1
3.249579000E0,3.025131570E0,8.882863732E0,3.596827000E0,1.004956982E1
3.259609000E0,3.466192601E0,8.632848485E0,4.277055817E0,1.023883639E1
3.269640000E0,3.745017080E0,8.166041871E0,3.781434124E0,9.747237393E0
3.279670000E0,3.860945439E0,7.839473707E0,2.824016880E0,9.183644104E0
3.289700000E0,4.018473522E0,7.780445480E0,1.611241350E0,8.903907008E0
3.299730000E0,4.122955372E0,8.202054287E0,4.715546266E-1,9.192106358E0
3.309760000E0,4.169239300E0,8.608881918E0,-1.558516860E-1,9.566592599E0
3.319791000E0,4.025701265E0,9.178571461E0,-5.871026246E-1,1.003977760E1
3.329821000E0,3.627691821E0,9.408823704E0,-8.624034977E-1,1.012076337E1
3.339851000E0,3.712495451E0,9.272618077E0,-3.915587962E-1,9.995868485E0
3.349881000E0,5.098063366E0,9.263257855E0,1.042939862E0,1.062477857E1
3.359912000E0,5.738317108E0,9.590614808E0,1.220648440E0,1.124269355E1
3.369942000E0,4.824707204E0,9.343338397E0,1.177573172E0,1.058123105E1
3.379972000E0,3.765344340E0,8.708316743E0,2.688677519E0,9.861114810E0
3.390002000E0,2.593539519E0,8.518407950E0,3.385368294E0,9.526302521E0
3.400032000E0,1.859805171E0,8.785604655E0,2.047335902E0,9.210717058E0
3.410063000E0,9.202032244E-1,8.676079289E0,-9.168058459E-1,8.772779421E0
3.420093000E0,3.491577119E-1,7.104467005E0,-3.044001997E0,7.737009157E0
3.430123000E0,2.060155923E0,4.396070629E0,-4.524630436E0,6.636411679E0
3.440153000E0,5.166257104E0,5.055286306E-1,-2.525607737E0,5.772734716E0
3.450184000E0,5.576815258E0,-3.793766486E0,-4.195759639E0,7.943420643E0
3.460214000E0,2.724195553E0,-8.679631473E0,-2.886875618E0,9.544175960E0
3.470244000E0,-3.594189906E-1,-1.331422815E1,8.542249972E0,1.582301766E1
3.480274000E0,-4.338791304E0,-1.667898384E1,6.989328897E0,1.859742806E1
3.490304000E0,-1.046095181E1,-2.127578412E1,-1.988464820E0,2.379168962E1
3.500335000E0,-1.669023623E1,-2.339383976E1,-8.381891252E0,2.993479288E1
3.510365000E0,-2.010073468E1,-2.331951463E1,-9.247279168E0,3.214578463E1
3.520395000E0,-1.948961060E1,-2.266196483E1,-4.768550545E0,3.026794749E1
3.530425000E0,-1.557952955E1,-2.253929258E1,-1.561289902E-1,2.740010634E1
3.540455000E0,-1.027802050E1,-2.099796887E1,-4.951086000E-2,2.337851264E1
3.550486000E0,-6.809294297E0,-1.872648698E1,-6.294197282E-1,1.993599690E1
3.560516000E0,-5.214358639E0,-1.706116020E1,-7.520291162E-1,1.785604298E1
3.570546000E0,-4.842851114E0,-1.521886393E1,-1.035843608E0,1.600437434E1
3.580576000E0,-4.981583907E0,-1.369721610E1,-1.389814163E0,1.464108912E1
3.590607000E0,-5.426214371E0,-1.219010445E1,-1.035387672E0,1.338336567E1
3.600637000E0,-5.120079888E0,-9.973709174E0,6.179663484E-1,1.122817773E1
3.610667000E0,-4.037530767E0,-7.385415192E0,1.188880445E0,8.500555804E0
3.620697000E0,-3.228079070E0,-4.485457599E0,1.168511084E0,5.648472582E0
3.630727000E0,-2.376758677E0,-1.254689103E0,1.363567182E0,3.013725603E0
3.640758000E0,-1.371024428E0,1.884195077E0,1.775357490E0,2.929469797E0
3.650788000E0,-4.600074720E-1,4.755410097E0,1.691532830E0,5.068216193E0
3.660818000E0,6.760831404E-1,7.171055097E0,1.188411498E0,7.300235716E0
3.670848000E0,2.118041311E0,9.070836512E0,2.807598337E-1,9.319066483E0
3.680878000E0,3.771611094E0,1.051532974E1,-8.328844873E-1,1.120227238E1
3.690909000E0,5.203827803E0,1.164142980E1,-1.976949459E0,1.290391572E1
3.700939000E0,6.466661493E0,1.250672650E1,-3.301457241E0,1.446151924E1
3.710969000E0,6.939143414E0,1.304448089E1,-4.171434052E0,1.535288426E1
3.720999000E0,6.428621846E0,1.267831889E1,-3.701666408E0,1.468908721E1
3.731030000E0,5.062847925E0,1.179720431E1,-2.096696928E0,1.300778984E1
3.741060000E0,3.376697165E0,1.067727774E1,-4.069018900E-1,1.120588742E1
3.751090000E0,2.201138139E0,9.698702928E0,3.863571862E-1,9.952844793E0
3.761120000E0,1.968104084E0,9.550389472E0,6.139167130E-1,9.770376988E0
3.771150000E0,2.078943027E0,9.785106649E0,7.837993777E-1,1.003417449E1
3.781181000E0,2.224752705E0,9.652243291E0,9.680509901E-1,9.952509627E0
3.791211000E0,2.180067990E0,9.175487639E0,1.615727187E0,9.568325047E0
3.801241000E0,1.924570979E0,8.607354625E0,2.137235527E0,9.075147535E0
3.811271000E0,2.000090400E0,8.101772785E0,2.110193617E0,8.607671053E0
3.821302000E0,2.231412098E0,7.928191171E0,1.315007079E0,8.340543077E0
3.831332000E0,2.517748495E0,8.050089830E0,1.100551236E-1,8.435349186E0
3.841362000E0,2.670045074E0,8.232018344E0,-5.861272359E-1,8.674030888E0
3.851392000E0,2.497303413E0,8.220101134E0,-7.062313112E-1,8.620055084E0
3.861422000E0,1.885848085E0,7.985834777E0,-1.007558580E-1,8.206103328E0
3.871452708E0,1.259587900E0,7.681978953E0,7.317578427E-1,7.818876637E0
3.881482708E0,1.080339750E0,7.458902999E0,1.389925261E0,7.663828035E0
3.891512708E0,1.455520203E0,7.227991775E0,1.745206908E0,7.576816700E0
3.901542708E0,2.234096263E0,6.681498721E0,1.595747252E0,7.223573946E0
3.911573708E0,2.571863014E0,5.990492316E0,2.564098788E0,7.005360815E0
3.921603708E0,2.800977096E0,5.378737319E0,4.399063818E0,7.491865610E0
3.931633708E0,3.129484489E0,4.677012969E0,4.276274629E0,7.067860226E0
3.941663708E0,2.696011681E0,3.365488345E0,3.089830134E0,5.304907260E0
3.951693708E0,4.063244775E-1,-4.551180303E-2,1.585404550E0,1.637277769E0
3.961724708E0,-2.795689751E0,-6.689578988E0,-1.735703866E0,7.455133542E0
3.971754708E0,-3.115253535E0,-1.407404225E1,-7.085204523E0,1.606186767E1
3.981784708E0,-1.264382325E0,-1.577219530E1,-7.593327563E0,1.755048235E1
3.991814708E0,-3.696196337E0,-1.435831985E1,-7.379326487E0,1.656133073E1
4.001844708E0,-7.234564630E0,-1.425306529E1,-4.808948958E0,1.669175801E1
4.011875708E0,-9.488116626E0,-1.589425710E1,-1.254283891E0,1.855330143E1
4.021905708E0,-9.632226518E0,-1.874767027E1,2.680905984E-1,2.107906072E1
4.031935708E0,-8.370441234E0,-2.204577589E1,2.196344300E-1,2.358238241E1
4.041965708E0,-7.051369025E0,-2.369743187E1,-2.247995971E0,2.482626771E1
4.051996708E0,-5.358149858E0,-2.229467548E1,-3.995176753E0,2.327495998E1
4.062026708E0,-4.486569740E0,-1.955087305E1,-4.408590102E0,2.053780932E1
4.072056708E0,-4.830136344E0,-1.655433992E1,-4.063975092E0,1.771700541E1
4.082086708E0,-5.324861659E0,-1.359474833E1,-2.937154363E0,1.489289124E1
4.092116708E0,-5.571562119E0,-1.097223117E1,-1.221552347E0,1.236625859E1
4.102147708E0,-4.710870979E0,-7.768417173E0,-4.800094812E-1,9.097857982E0
4.112177708E0,-2.894240770E0,-4.773901917E0,-1.240613247E0,5.718906397E0
4.122207708E0,-9.019526026E-1,-2.249779372E0,-6.418533938E-1,2.507389379E0
4.132237708E0,3.473313341E-1,4.753698617E-1,8.894528635E-1,1.066649876E0
4.142267708E0,1.302566397E0,2.747421278E0,2.177574445E0,3.739897507E0
4.152298708E0,2.170019842E0,4.656503860E0,2.447097173E0,5.690368959E0
4.162328708E0,2.475694735E0,6.901223636E0,1.789715767E0,7.547120949E0
4.172358708E0,2.238459455E0,8.956773707E0,8.681361079E-1,9.272979903E0
4.182388708E0,2.307608627E0,1.072985356E1,2.231518956E-1,1.097745926E1
4.192419708E0,2.882328238E0,1.193681710E1,-2.741642475E-2,1.227990921E1
4.202449708E0,3.663953036E0,1.245829285E1,-1.422967072E-1,1.298668013E1
4.212479708E0,4.174612306E0,1.258979439E1,-2.184929073E-1,1.326567186E1
4.222509708E0,4.637779906E0,1.241740795E1,-2.632884264E-2,1.325525238E1
4.232539708E0,5.245630717E0,1.232840631E1,6.729684748E-2,1.339816303E1
4.242570708E0,5.330655665E0,1.211482389E1,-5.373837133E-1,1.324664595E1
4.252600708E0,5.201657901E0,1.154449232E1,-1.471421413E0,1.274745578E1
4.262630708E0,5.148283932E0,1.084064076E1,-1.434241308E0,1.208641252E1
4.272660708E0,4.814988839E0,1.067888221E1,-6.558127441E-2,1.171439046E1
4.282691708E0,4.484311545E0,1.052656692E1,1.219074297E0,1.150668516E1
4.292721708E0,4.109883044E0,1.001090565E1,2.065794393E0,1.101711746E1
4.302751708E0,3.593560453E0,9.255647703E0,2.665446239E0,1.028033534E1
4.312781708E0,2.973131404E0,8.438282969E0,2.742648196E0,9.357683952E0
4.322811708E0,2.160613719E0,7.558444244E0,2.263797487E0,8.180654625E0
4.332842708E0,1.464954393E0,7.134206529E0,1.615852318E0,7.460159039E0
4.342872708E0,6.477688757E-1,6.792232706E0,1.381685510E0,6.961543255E0
4.352902708E0,-6.601947936E-1,6.710599728E0,1.827681592E0,6.986302733E0
4.362932708E0,-1.595792275E0,6.874622313E0,1.938257264E0,7.318731185E0
4.372962708E0,-1.500081833E0,6.439760208E0,2.097575179E0,6.936899788E0
4.382993708E0,-2.479538110E-1,5.185114374E0,2.820030248E0,5.907576725E0
4.393023708E0,1.327834262E0,4.117290004E0,2.969524841E0,5.247218177E0
4.403053708E0,2.602190183E0,3.748415481E0,2.142722701E0,5.041157897E0
4.413083708E0,3.492271183E0,3.451553512E0,8.960694265E-1,4.991204272E0
4.423114708E0,4.542218276E0,2.566043572E0,7.334422794E-1,5.268231587E0
4.433144708E0,5.111210246E0,3.696586347E-1,7.102976842E-1,5.173552018E0
4.443174708E0,5.078210900E0,-3.714843108E0,-2.966483120E0,6.956170452E0
4.453204708E0,2.496945563E0,-9.777238635E0,-7.415946429E0,1.252299461E1
4.463234708E0,-3.140174661E0,-1.720477717E1,-1.094332605E1,2.063059474E1
4.473265708E0,-8.713510240E0,-1.762268937E1,-1.169481254E1,2.287472583E1
4.483295708E0,-1.382887435E1,-1.656819080E1,-8.091172367E0,2.304798869E1
4.493325708E0,-1.422499865E1,-2.087094864E1,-4.302207907E0,2.562139880E1
4.503355708E0,-1.105744499E1,-2.471656414E1,-1.999641626E0,2.715095209E1
4.513385708E0,-6.709747789E0,-2.378826486E1,-2.320483612E0,2.482512648E1
4.523416708E0,-3.179194300E0,-2.187194752E1,-2.262059110E0,2.221725177E1
4.533446708E0,-1.742185213E0,-1.989258316E1,-1.303317326E0,2.001121461E1
4.543476708E0,-2.557071020E0,-1.756164443E1,-9.535439019E-1,1.777242846E1
4.553506708E0,-3.471135545E0,-1.500250292E1,-3.222537956E-1,1.540219865E1
4.563537708E0,-4.117177738E0,-1.288753227E1,4.505443382E-1,1.353671418E1
4.573567708E0,-4.382613262E0,-1.022544233E1,1.015965706E0,1.117135427E1
4.583597708E0,-4.042001256E0,-7.040256391E0,1.193054333E0,8.205264337E0
4.593627708E0,-2.979869735E0,-3.245946699E0,1.043621867E0,4.528238091E0
4.603657708E0,-1.541871884E0,6.856515241E-1,8.752040760E-1,1.900912700E0
4.613688708E0,-1.723583758E-2,4.098515764E0,1.000368405E0,4.218870168E0
4.623718708E0,1.519412436E0,6.866160808E0,9.795803837E-1,7.100165922E0
4.633748708E0,2.851543525E0,8.805466477E0,5.530236630E-1,9.272182889E0
4.643778708E0,3.728539334E0,1.009860921E1,-4.099739441E-1,1.077274302E1
4.653808708E0,4.047902558E0,1.098453606E1,-1.735907350E0,1.183464920E1
4.663839708E0,3.504694470E0,1.171236004E1,-3.062441776E0,1.260320636E1
4.673869708E0,2.819331798E0,1.194882846E1,-3.757805525E0,1.283916803E1
4.683899708E0,2.076767570E0,1.187714042E1,-3.354535925E0,1.251528423E1
4.693929708E0,9.071610099E-1,1.098330931E1,-1.771298207E0,1.116214683E1
4.703960708E0,-1.835049230E-1,9.853247176E0,-4.523508355E-2,9.855059624E0
4.713990708E0,-7.961679929E-1,8.594866726E0,5.074189623E-1,8.646565302E0
4.724020708E0,-6.269513261E-1,7.936888905E0,-1.784109749E-2,7.961632480E0
4.734050708E0,9.038479775E-2,8.081545511E0,3.242350515E-1,8.088552135E0
4.744080708E0,7.825635687E-1,8.402609691E0,9.892903432E-1,8.496761191E0
4.754111708E0,1.737232621E0,8.692509381E0,1.320269719E0,8.962187715E0
4.764141708E0,2.952486055E0,8.888713871E0,1.452842470E0,9.478246643E0
4.774171708E0,3.729384256E0,9.108386747E0,1.712610873E0,9.990197799E0
4.784201708E0,3.851797178E0,9.347308071E0,1.959641701E0,1.029799521E1
4.794231708E0,4.105301751E0,9.252922901E0,1.768837699E0,1.027613115E1
4.804262708E0,4.296781691E0,8.795135617E0,1.562664875E0,9.912550879E0
4.814292708E0,4.358941102E0,8.340249721E0,1.448452381E0,9.521457201E0
4.824322708E0,4.316465758E0,8.211656000E0,5.470490512E-1,9.293139059E0
4.834352708E0,4.462066398E0,8.493954894E0,-2.119897802E-1,9.596991505E0
4.844383708E0,4.849209669E0,9.180220376E0,-9.127727289E-1,1.042230467E1
4.854413708E0,5.258744268E0,9.725908853E0,-1.516650942E0,1.116010414E1
4.864443708E0,5.750927213E0,9.978629022E0,5.564958858E-1,1.153064997E1
4.874473500E0,6.121624314E0,9.718316243E0,2.805311637E0,1.182327062E1
4.884503500E0,6.549439355E0,7.914381802E0,2.783406798E0,1.064330534E1
4.894534500E0,5.961356810E0,5.050450074E0,1.483499130E0,7.952709641E0
4.904564500E0,4.038507544E0,2.082152563E0,1.322802879E0,4.732304929E0
4.914594500E0,1.176693093E0,-8.470083636E-1,8.245863381E-1,1.667924588E0
4.924624500E0,-1.834398727E0,-5.228224141E0,3.490451530E-2,5.540809028E0
4.934655500E0,-5.365904435E0,-1.380523289E1,-2.859286408E0,1.508485678E1
4.944685500E0,-8.974705364E0,-2.090968761E1,-9.244590034E0,2.456059481E1
4.954715500E0,-1.428801877E1,-1.896504168E1,-1.123891917E1,2.627039380E1
4.964745500E0,-1.628755719E1,-2.018931766E1,-7.867136300E0,2.710691610E1
4.974775500E0,-1.439574203E1,-2.743692509E1,-5.999804592E0,3.155978298E1
4.984806500E0,-1.167001216E1,-3.118591652E1,-3.734186282E0,3.350663696E1
4.994836500E0,-7.654041542E0,-2.958538157E1,-2.064753442E0,3.062910971E1
5.004866500E0,-4.091473670E0,-2.448778364E1,-1.912715310E0,2.490080690E1
5.014896500E0,-2.894368532E0,-1.880100389E1,-2.307469171E0,1.916192920E1
5.024926500E0,-3.760482673E0,-1.562086936E1,-2.108185537E0,1.620485223E1
5.034957500E0,-3.937856790E0,-1.299957545E1,-1.117921267E0,1.362884536E1
5.044987500E0,-3.238582131E0,-1.021684576E1,-8.096043098E-1,1.074838642E1
5.055017500E0,-2.464232146E0,-6.893659678E0,-4.842019348E-1,7.336854594E0
5.065047500E0,-1.699308750E0,-3.726063330E0,-1.757741730E-1,4.099035829E0
5.075077500E0,-7.531307316E-1,-7.845501602E-2,5.222488900E-1,9.198396553E-1
5.085108500E0,1.081275889E-1,3.432547138E0,1.349294275E0,3.689805749E0
5.095138500E0,6.541207060E-1,6.396162783E0,1.850734093E0,6.690589580E0
5.105168500E0,1.000090224E0,8.491126011E0,2.053923522E0,8.793065633E0
5.115198500E0,1.494907340E0,9.901829352E0,1.829145881E0,1.017972235E1
5.125229500E0,2.315675738E0,1.080576445E1,1.305031875E0,1.112789323E1
5.135259500E0,3.538438167E0,1.157323724E1,2.764798911E-1,1.210523878E1
5.145289500E0,4.718541648E0,1.209182679E1,-1.071726655E0,1.302403580E1
5.155319500E0,4.922554511E0,1.199048753E1,-2.100190054E0,1.313065620E1
5.165349500E0,4.316942598E0,1.168170776E1,-2.551419686E0,1.271251478E1
5.175380500E0,3.706281030E0,1.096569750E1,-1.712333861E0,1.170107379E1
5.185410500E0,2.554116422E0,9.945903325E0,-1.420849284E-1,1.026960037E1
5.195440500E0,1.352486416E0,9.119364894E0,9.843892801E-1,9.271518637E0
5.205470500E0,6.989890230E-1,8.473431752E0,1.618005116E0,8.654800510E0
5.215500500E0,2.048548615E-1,8.311990712E0,1.732809349E0,8.493160975E0
5.225531500E0,3.502406162E-1,8.591992820E0,1.731874963E0,8.771795711E0
5.235561500E0,8.591781735E-1,8.924435096E0,1.899458649E0,9.164697054E0
5.245591500E0,1.251576922E0,8.912182256E0,1.902590418E0,9.198548128E0
5.255621500E0,1.622341850E0,8.852993231E0,1.612333610E0,9.143691918E0
5.265652500E0,1.915509841E0,8.965022374E0,1.123886450E0,9.236012390E0
5.275682500E0,1.929539065E0,9.233300230E0,7.212180904E-1,9.460291205E0
5.285712500E0,2.033314864E0,9.549441054E0,5.438226306E-1,9.778646984E0
5.295742500E0,2.060405307E0,9.879191272E0,7.465501289E-1,1.011933927E1
5.305772500E0,2.114853702E0,1.015104002E1,1.308247844E0,1.045120721E1
5.315803500E0,2.578731446E0,1.033737792E1,2.182474412E0,1.087540494E1
5.325833500E0,3.149391627E0,1.023254904E1,3.193239312E0,1.117230973E1
5.335863500E0,3.348948326E0,9.689412872E0,3.762874769E0,1.092059537E1
5.345893500E0,3.071274287E0,8.771942051E0,3.359972374E0,9.882768208E0
5.355924500E0,2.841100105E0,7.741610028E0,2.411313090E0,8.591787151E0
5.365954500E0,2.732167355E0,6.813794898E0,1.872889194E0,7.576295487E0
5.375984500E0,2.502103100E0,5.081478909E0,8.162514246E-1,5.722605544E0
5.386014500E0,2.491564663E0,2.000292129E0,-1.675658809E0,3.607893501E0
5.396044500E0,1.825687253E0,-3.265447163E0,-5.705039434E0,6.822298298E0
5.406075500E0,-9.761409053E-1,-1.233962711E1,-8.503209282E0,1.501745040E1
5.416105500E0,-3.660082179E0,-1.846572689E1,-1.042798871E1,2.152027462E1
5.426135500E0,-7.562505720E0,-1.915991067E1,-1.253223557E1,2.411121311E1
5.436165500E0,-9.793788010E0,-2.222766873E1,-9.722911570E0,2.616338186E1
5.446195500E0,-1.075367395E1,-2.627722342E1,-6.964472383E0,2.923418974E1
5.456226500E0,-1.093975691E1,-2.794363310E1,-4.478654948E0,3.034111505E1
5.466256500E0,-9.161348487E0,-2.883027682E1,-3.159863990E0,3.041545508E1
5.476286500E0,-7.398356835E0,-2.728943726E1,-3.415429122E0,2.848006717E1
5.486316500E0,-5.646357363E0,-2.147578930E1,-6.601681888E0,2.316620559E1
5.496346500E0,-4.636641453E0,-1.779420808E1,-6.623496680E0,1.954489687E1
5.506377500E0,-4.112720405E0,-1.574110332E1,-4.740485372E0,1.694606162E1
5.516407500E0,-3.627271113E0,-1.254958426E1,-3.112588667E0,1.342897498E1
5.526437500E0,-3.215486798E0,-8.777854756E0,-1.801028083E0,9.520178129E0
5.536467500E0,-2.754502549E0,-5.624694014E0,-1.072716004E0,6.354147202E0
5.546498500E0,-2.343444750E0,-3.732799907E0,-2.465045786E-1,4.414328143E0
5.556528500E0,-2.443010554E0,-1.527723083E0,8.226131952E-1,2.996486418E0
5.566558500E0,-2.594581201E0,1.318133147E0,1.977460652E0,3.518476550E0
5.576588500E0,-2.461633058E0,4.660917923E0,3.000261315E0,6.065093664E0
5.586618500E0,-2.038964444E0,7.307664181E0,3.776763368E0,8.474861257E0
5.596649500E0,-1.197956785E0,9.034558632E0,4.042783613E0,9.970077707E0
5.606679500E0,4.675609052E-2,1.037074798E1,3.899927656E0,1.107989330E1
5.616709500E0,1.570404542E0,1.101423172E1,3.216838675E0,1.158134370E1
5.626739500E0,3.065156638E0,1.149247082E1,2.307972032E0,1.211605569E1
5.636769500E0,4.670405907E0,1.198093084E1,1.661849878E0,1.296599939E1
5.646800500E0,5.832357877E0,1.237318078E1,1.367438039E0,1.374706833E1
5.656830500E0,6.400010836E0,1.236589047E1,1.362166189E0,1.399038536E1
5.666860500E0,6.614787837E0,1.201419214E1,1.427765955E0,1.378893566E1
5.676890500E0,6.567232432E0,1.150943242E1,1.484682899E0,1.333416138E1
5.686920500E0,6.072756793E0,1.102362937E1,1.563274155E0,1.268237382E1
5.696951500E0,5.093882607E0,1.037813184E1,1.674385139E0,1.168147363E1
5.706981500E0,3.694593908E0,9.587751426E0,1.891852591E0,1.044768433E1
5.717011500E0,2.076557947E0,8.610563577E0,2.103387312E0,9.103742978E0
5.727041500E0,7.734348956E-1,8.040435492E0,1.592260995E0,8.232988493E0
5.737072500E0,-3.731304190E-1,7.456039032E0,1.338206930E-1,7.466568980E0
5.747102500E0,-9.966745725E-1,5.711305311E0,-1.989990943E0,6.129635593E0
5.757132500E0,-7.163210472E-1,4.875611894E0,-4.096965083E0,6.408574730E0
5.767162500E0,2.854248154E-1,6.258608789E0,-4.424714384E0,7.670055324E0
5.777192500E0,1.532022834E0,8.274763244E0,-2.740608687E0,8.850408843E0
5.787223500E0,1.684962898E0,9.593452461E0,-5.463918972E-1,9.755612446E0
5.797253500E0,1.172761718E0,1.003002605E1,1.168409050E0,1.016572537E1
5.807283500E0,4.392785078E-1,1.015525002E1,2.052812405E0,1.036996178E1
5.817313500E0,1.933346772E-1,9.633931566E0,2.928114568E0,1.007094189E1
5.827343500E0,9.919845209E-1,7.611260973E0,4.255072332E0,8.776159037E0
5.837374500E0,2.513887871E0,5.036919032E0,5.583744793E0,7.928959041E0
5.847404500E0,4.056342722E0,3.944811176E0,6.065410352E0,8.294857095E0
5.857434500E0,5.490967022E0,3.328894715E0,3.705752734E0,7.413829118E0
5.867464500E0,5.125821269E0,1.943749554E0,1.982908064E0,5.829590929E0
5.877495708E0,2.868756558E0,-6.646722990E-1,2.882964123E0,4.121047875E0
5.887525708E0,7.185827503E-1,-3.690743809E0,1.596880734E0,4.085092301E0
5.897555708E0,-1.196593215E0,-8.436429402E0,-1.059491795E0,8.586483520E0
5.907585708E0,-4.884319568E0,-1.657418887E1,-6.667033879E0,1.852051984E1
5.917615708E0,-8.214115924E0,-2.362566783E1,-1.232426063E1,2.788424790E1
5.927646708E0,-1.036139244E1,-2.339016537E1,-1.156674332E1,2.807575182E1
5.937676708E0,-1.144478209E1,-2.123486531E1,-7.437571186E0,2.524321705E1
5.947706708E0,-1.145468845E1,-2.146126716E1,-1.204331712E0,2.435664777E1
5.957736708E0,-1.031011119E1,-2.131652050E1,2.363393988E0,2.379659787E1
5.967766708E0,-7.249452810E0,-2.062377046E1,2.688704708E-1,2.186245104E1
5.977797708E0,-2.835092676E0,-1.820574564E1,-2.922342781E0,1.865548210E1
5.987827708E0,-1.076152267E0,-1.616252969E1,-5.412361733E0,1.707861614E1
5.997857708E0,3.202891311E-1,-1.425817926E1,-5.539755020E0,1.529990675E1
6.007887708E0,1.086305664E0,-1.195762384E1,-3.869911560E0,1.261511170E1
6.017917708E0,3.756192863E-1,-1.038722777E1,-1.922559829E0,1.057032767E1
6.027948708E0,-1.376276982E0,-8.846703381E0,-7.066979921E-1,8.980964374E0
6.037978708E0,-2.739437490E0,-6.723719711E0,6.866148528E-1,7.292761100E0
6.048008708E0,-2.858777115E0,-3.643884807E0,1.785956007E0,4.963883756E0
6.058038708E0,-2.072128389E0,1.255532271E0,2.652705156E0,3.592620490E0
6.068068708E0,-6.057268104E-1,4.980750679E0,2.967310208E0,5.829211968E0
6.078099708E0,9.165402362E-1,7.019566603E0,2.469012245E0,7.497358386E0
6.088129708E0,2.186583835E0,8.442016416E0,1.877139827E0,8.920338781E0
6.098159708E0,3.259630645E0,9.735314684E0,1.245055815E0,1.034174588E1
6.108189708E0,4.079855253E0,1.099633106E1,3.598844290E-2,1.172884525E1
6.118220708E0,4.707118236E0,1.183264311E1,-2.207633811E0,1.292447493E1
6.128250708E0,5.149859172E0,1.212021853E1,-5.120635958E0,1.412946069E1
6.138280708E0,4.828321660E0,1.169830918E1,-6.824359063E0,1.437828238E1
6.148310708E0,3.494819400E0,1.064064844E1,-6.130647737E0,1.276800703E1
6.158340708E0,2.479901807E0,9.775745841E0,-3.578966095E0,1.070159418E1
6.168371708E0,2.605612558E0,9.365684701E0,-8.051250502E-2,9.721715331E0
6.178401708E0,2.973183152E0,9.265780928E0,3.326367549E0,1.028393093E1
6.188431708E0,2.965225676E0,8.946346952E0,5.087384012E0,1.071032974E1
6.198461708E0,2.752346680E0,8.480658326E0,6.059414617E0,1.078023578E1
6.208491708E0,2.426852650E0,8.162680306E0,6.712096031E0,1.084302526E1
6.218522708E0,1.999731966E0,7.904397097E0,6.876538446E0,1.066607718E1
6.228552708E0,1.323188065E0,7.904304126E0,6.216836865E0,1.014287489E1
6.238582708E0,7.695824575E-1,8.142907362E0,4.972044175E0,9.571855658E0
6.248612708E0,7.320629212E-1,8.250873275E0,3.683195053E0,9.065249678E0
6.258643708E0,1.053558041E0,8.443136158E0,2.187422326E0,8.785291638E0
6.268673708E0,1.500611591E0,8.785490050E0,6.200980970E-1,8.934270659E0
6.278703708E0,2.218255863E0,9.072552086E0,-4.970893443E-1,9.353018670E0
6.288733708E0,2.930631794E0,8.981322657E0,-1.205053843E0,9.523912754E0
6.298763708E0,3.465129870E0,8.394874409E0,-1.174174990E0,9.157495742E0
6.308794708E0,3.738286057E0,7.552352030E0,-3.630033338E-1,8.434724373E0
6.318824708E0,3.842320595E0,6.593834925E0,7.232982373E-1,7.665849393E0
6.328854708E0,3.645431980E0,5.754909167E0,1.577029291E0,6.992508508E0
6.338884708E0,3.189903768E0,4.865369326E0,1.358109391E0,5.974258602E0
6.348914708E0,2.330658351E0,3.649666534E0,3.944309485E-1,4.348288161E0
6.358945708E0,1.801982348E0,1.458469246E0,-2.168394316E0,3.174304150E0
6.368975708E0,5.334169257E-1,-3.339979282E0,-6.185748389E0,7.050069386E0
6.379005708E0,-2.728825963E0,-1.056905864E1,-6.059599389E0,1.248480021E1
6.389035708E0,-4.929507435E0,-1.874549043E1,-7.074037510E0,2.063335798E1
6.399065708E0,-7.221766244E0,-2.581879236E1,-8.678715799E0,2.817949706E1
6.409096708E0,-1.247262086E1,-2.372640132E1,-7.329685965E0,2.778907496E1
6.419126708E0,-1.578516209E1,-2.363247165E1,-8.081836703E0,2.954625429E1
6.429156708E0,-1.499907177E1,-2.293467896E1,-3.578205080E0,2.763648322E1
6.439186708E0,-1.429014833E1,-2.101108067E1,-5.837626219E-1,2.541681784E1
6.449216708E0,-1.325581564E1,-2.078832748E1,-1.679941164E0,2.471221176E1
6.459247708E0,-1.047328943E1,-1.911922340E1,-3.837642238E0,2.213508511E1
6.469277708E0,-7.496362016E0,-1.650625475E1,-4.984118675E0,1.880141826E1
6.479307708E0,-4.509783770E0,-1.302050029E1,-4.764665363E0,1.457990444E1
6.489337708E0,-2.245386944E0,-9.247608951E0,-3.410945184E0,1.010913354E1
6.499367708E0,-3.828917608E-1,-5.843321992E0,-1.990689247E0,6.184970628E0
6.509398708E0,1.208599887E0,-1.689811410E0,-6.033564954E-1,2.163380537E0
6.519428708E0,2.254676123E0,3.147660851E0,1.407126600E0,4.119628444E0
6.529458708E0,3.206812746E0,6.849657626E0,2.927379280E0,8.109932616E0
6.539488708E0,3.361138309E0,8.129606701E0,3.430988270E0,9.442427460E0
6.549518708E0,3.446431644E0,9.080820633E0,3.859956383E0,1.045172032E1
6.559549708E0,3.698863837E0,9.883616445E0,3.924977421E0,1.125934791E1
6.569579708E0,4.126298225E0,1.067137790E1,3.705170059E0,1.202634310E1
6.579609708E0,4.248908198E0,1.146309908E1,3.122965136E0,1.261779587E1
6.589639708E0,3.987481525E0,1.195967738E1,2.314238054E0,1.281755007E1
6.599670708E0,3.650465556E0,1.214550189E1,1.314875224E0,1.275021615E1
6.609700708E0,3.500995814E0,1.189741623E1,7.745642853E-1,1.242599833E1
6.619730708E0,4.161422449E0,1.144356470E1,8.440058184E-1,1.220593936E1
6.629760708E0,4.810405499E0,1.075252439E1,1.427850301E0,1.186572957E1
6.639790708E0,4.932128742E0,9.726664313E0,2.541395220E0,1.119788294E1
6.649821708E0,4.819133931E0,8.869491150E0,3.568252827E0,1.070627635E1
6.659851708E0,4.371304455E0,8.407777460E0,4.411008803E0,1.045256060E1
6.669881708E0,3.753820940E0,8.346730190E0,4.787747831E0,1.032867880E1
6.679911708E0,3.274964384E0,8.539271985E0,4.622515165E0,1.024754625E1
6.689941708E0,3.008125528E0,8.873732135E0,3.886883103E0,1.014395394E1
6.699972708E0,2.818182236E0,9.232153006E0,2.755278182E0,1.003824477E1
6.710002708E0,2.681129348E0,9.509482352E0,1.775023176E0,1.003839711E1
6.720032708E0,2.538337710E0,9.722415726E0,1.154259373E0,1.011438780E1
6.730062708E0,2.074026980E0,9.881262356E0,6.096390362E-1,1.011496878E1
6.740092708E0,1.224681777E0,9.889320989E0,3.202183798E-1,9.970007767E0
6.750123708E0,2.575280419E-1,9.726187765E0,2.134691258E-1,9.731938050E0
6.760153708E0,-5.279094332E-1,9.071138813E0,1.433354285E-1,9.087617553E0
6.770183708E0,-9.030308291E-1,8.183254319E0,4.178949478E-1,8.243527893E0
6.780213708E0,-7.841449481E-1,7.571905119E0,3.004939672E-1,7.618328363E0
6.790243708E0,-6.558213687E-1,7.045015440E0,-4.195880091E-1,7.087905072E0
6.800274708E0,-1.129740536E0,5.022279943E0,-3.097447594E0,6.007810841E0
6.810304708E0,-1.090248734E0,2.010020726E0,-4.124378876E0,4.715859067E0
6.820334708E0,-5.331868377E-1,-1.121956723E0,-2.146649106E0,2.480156744E0
6.830364708E0,2.415400001E-1,-3.882279298E0,-3.708368486E-1,3.907422947E0
6.840394708E0,7.088927445E-1,-6.989299076E0,-1.963949637E0,7.294513601E0
6.850425708E0,-8.578932479E-1,-1.238555699E1,-5.492680256E0,1.357599128E1
6.860455708E0,-4.826556386E0,-1.574682540E1,-6.820296417E0,1.782623348E1
6.870485875E0,-9.422057707E0,-1.736294552E1,-6.757583275E0,2.087850522E1
6.880515875E0,-1.393679758E1,-2.170331382E1,-4.397919811E0,2.616505028E1
6.890545875E0,-1.727823925E1,-2.467859934E1,-4.042862258E0,3.039597921E1
6.900576875E0,-1.950471980E1,-2.484023041E1,-4.061838812E0,3.184289051E1
6.910606875E0,-1.839937853E1,-2.254637707E1,-3.307088402E0,2.928844623E1
6.920636875E0,-1.237971445E1,-1.942652031E1,-6.799627680E-1,2.304581026E1
6.930666875E0,-7.065061449E0,-1.674991057E1,-1.095095783E-2,1.817896359E1
6.940696875E0,-4.134595424E0,-1.408507127E1,-1.540524100E0,1.475999074E1
6.950727875E0,-2.220901436E0,-1.158680395E1,-1.696129911E0,1.191903039E1
6.960757875E0,-1.145317519E0,-9.076825815E0,-4.800789168E-1,9.161386078E0
6.970787875E0,-3.053638208E-1,-6.387669117E0,5.132642046E-1,6.415528346E0
6.980817875E0,-1.402472216E-1,-3.711815420E0,1.401527306E0,3.970078309E0
6.990847875E0,-2.842235050E-1,-9.556291652E-1,2.159465618E0,2.378508326E0
7.000878875E0,-1.911905032E-1,1.790625594E0,2.652063424E0,3.205672196E0
7.010908875E0,3.876645505E-1,4.275792233E0,2.690479631E0,5.066691590E0
7.020938875E0,1.436771398E0,6.523680031E0,2.673356352E0,7.195105794E0
7.030968875E0,3.116470048E0,8.290781107E0,2.244893146E0,9.137230552E0
7.040999875E0,4.919063723E0,9.612527833E0,8.819369987E-1,1.083400628E1
7.051029875E0,6.440758327E0,1.038574726E1,-1.360700877E0,1.229628484E1
7.061059875E0,7.459112914E0,1.110423324E1,-3.510650736E0,1.382993239E1
7.071089875E0,6.994341130E0,1.170197772E1,-3.432577543E0,1.405843800E1
7.081119875E0,5.394835873E0,1.151405172E1,-1.297659414E0,1.278129731E1
7.091150875E0,4.407777632E0,1.066703809E1,5.982309723E-1,1.155733904E1
7.101180875E0,4.213454483E0,9.840199699E0,2.140802183E0,1.091630720E1
7.111210875E0,4.152947495E0,9.252761518E0,3.401685241E0,1.069729083E1
7.121240875E0,3.943674477E0,8.938726276E0,4.139812310E0,1.061091145E1
7.131270875E0,3.796946787E0,8.853929370E0,4.603629827E0,1.067718492E1
7.141301875E0,3.504320248E0,8.816789610E0,4.876541601E0,1.066755349E1
7.151331875E0,2.947168597E0,8.551099148E0,4.750101410E0,1.021619121E1
7.161361875E0,2.269744982E0,8.112535170E0,4.015646685E0,9.332223072E0
7.171391875E0,1.385575809E0,7.803283535E0,2.584679818E0,8.336163627E0
7.181421875E0,8.115295056E-1,7.747152019E0,1.346899109E0,7.905130091E0
7.191452875E0,9.074747130E-1,7.928649008E0,7.518956535E-1,8.015755269E0
7.201482875E0,1.374994103E0,8.079541671E0,4.948334885E-1,8.210631070E0
7.211512875E0,1.740416430E0,8.084650383E0,2.855571087E-1,8.274790875E0
7.221542875E0,1.732758039E0,7.729746028E0,1.065247209E-1,7.922295853E0
7.231572875E0,1.418191870E0,7.097088404E0,-6.485731602E-3,7.237401057E0
7.241603875E0,1.073399982E0,6.505789890E0,-2.083927193E-1,6.597038513E0
7.251633875E0,8.936548188E-1,5.816213130E0,-2.790738621E-1,5.891081084E0
7.261663875E0,1.225988045E0,4.721634241E0,-4.062437859E-1,4.895090459E0
7.271693875E0,2.358223588E0,2.700683899E0,-1.142746206E0,3.763081304E0
7.281723875E0,3.200158322E0,-1.116335210E0,-1.870716368E0,3.871278512E0
7.291754875E0,2.628190704E0,-6.237027301E0,-3.959837058E0,7.841441542E0
7.301784875E0,1.870083992E0,-1.035660941E1,-7.714888837E0,1.304898779E1
7.311814875E0,-5.455919981E-1,-1.267367270E1,-4.490741728E0,1.345683512E1
7.321844875E0,-4.049102699E0,-1.130177440E1,4.036745194E0,1.266572734E1
7.331874875E0,-7.616813489E0,-1.152075029E1,5.119523817E0,1.472932650E1
7.341905875E0,-1.293352062E1,-1.595003486E1,-7.469288823E-1,2.054841771E1
7.351935875E0,-1.616279866E1,-2.073028334E1,-6.479931164E0,2.707342269E1
7.361965875E0,-1.360383724E1,-2.219323331E1,-2.635784483E0,2.616393228E1
7.371995875E0,-1.005596196E1,-2.105161357E1,-5.702116996E-2,2.333015337E1
7.382025875E0,-7.179955144E0,-1.968752365E1,-2.279751030E0,2.107955426E1
7.392056875E0,-3.579339148E0,-1.793721110E1,-2.669821125E0,1.848467353E1
7.402086875E0,-1.825086159E0,-1.490564964E1,-2.252318526E0,1.518493560E1
7.412116875E0,-1.387598653E0,-1.279221915E1,-3.601655923E0,1.336181972E1
7.422146875E0,-1.356254946E0,-1.135569742E1,-4.963230082E0,1.246695409E1
7.432176875E0,-1.489442824E0,-9.351802241E0,-5.218058757E0,1.081215900E1
7.442207875E0,-1.012626654E0,-7.714173723E0,-4.994955904E0,9.245727308E0
7.452237875E0,3.146568006E-1,-4.559961067E0,-4.195637432E0,6.204484450E0
7.462267875E0,1.470713900E0,-4.622837931E-1,-2.376758969E0,2.832964680E0
7.472297875E0,1.977471323E0,2.369385338E0,-1.110045067E0,3.279722513E0
7.482327875E0,2.204645592E0,4.298872363E0,-4.132554746E-1,4.848870576E0
7.492358875E0,2.819097325E0,6.083978185E0,3.614488515E-1,6.715113220E0
7.502388875E0,3.624484915E0,7.700542694E0,9.074084933E-1,8.559126057E0
7.512418875E0,4.491910879E0,9.055892783E0,9.017729469E-1,1.014887442E1
7.522448875E0,5.064019707E0,1.023287181E1,6.328606685E-1,1.143487969E1
7.532478875E0,5.327751938E0,1.107349910E1,3.721369770E-1,1.229413718E1
7.542509875E0,5.259979200E0,1.152677526E1,1.783929947E-1,1.267145426E1
7.552539875E0,4.146014451E0,1.137825364E1,1.879353583E-1,1.211154043E1
7.562569875E0,2.855297437E0,1.080330628E1,3.938041270E-1,1.118119993E1
7.572599875E0,1.995182247E0,1.017654090E1,7.244010222E-1,1.039555163E1
7.582629875E0,1.658519743E0,9.693866696E0,1.216131832E0,9.909627434E0
7.592660875E0,1.677670543E0,9.439502290E0,1.849716386E0,9.764232312E0
7.602690875E0,1.907516989E0,9.209706715E0,2.551136681E0,9.745030385E0
7.612720875E0,2.173983085E0,8.822452054E0,3.217774229E0,9.639291140E0
7.622750875E0,2.516625245E0,8.371413626E0,3.833398329E0,9.545098819E0
7.632781875E0,2.842989340E0,8.082233729E0,4.158675427E0,9.523637527E0
7.642811875E0,2.904513744E0,7.984368880E0,4.026551743E0,9.402098991E0
7.652841875E0,2.895954005E0,7.956474738E0,3.537647623E0,9.176436703E0
7.662871875E0,2.879668047E0,8.015977174E0,2.881038634E0,8.991593948E0
7.672901875E0,2.838670879E0,8.071804635E0,2.426070293E0,8.893699989E0
7.682932875E0,2.990865132E0,7.918839719E0,2.362289157E0,8.788270979E0
7.692962875E0,3.446216174E0,7.718286654E0,2.432791083E0,8.795841475E0
7.702992875E0,4.041280586E0,7.587449357E0,2.410954510E0,8.928271847E0
7.713022875E0,4.508902303E0,7.529381828E0,2.334799203E0,9.081468934E0
7.723052875E0,4.756737708E0,7.450651408E0,2.135068403E0,9.093804325E0
7.733083875E0,4.829190264E0,7.164501538E0,7.303327301E-1,8.670902305E0
7.743113875E0,4.952156625E0,6.383711137E0,-2.453441694E0,8.443636614E0
7.753143875E0,5.619349658E0,5.199951684E0,-8.270773104E0,1.127041596E1
7.763173875E0,3.954330736E0,1.718904816E0,-9.653931967E0,1.057306804E1
7.773203875E0,-8.233914596E-1,-3.159123732E0,-6.080683279E0,6.901648020E0
7.783234875E0,-2.683172657E0,-6.944854390E0,4.851870444E-1,7.460953322E0
7.793264875E0,-4.348398572E0,-1.211255868E1,2.410751465E-1,1.287170405E1
7.803294875E0,-8.261768392E0,-1.610762667E1,2.916255245E0,1.833622095E1
7.813324875E0,-1.187983833E1,-1.665480093E1,-2.433269677E0,2.060179007E1
7.823354875E0,-1.653742158E1,-2.007146118E1,-1.068301502E1,2.811541706E1
7.833385875E0,-1.845346995E1,-2.304348629E1,-9.565377055E0,3.103271261E1
7.843415875E0,-1.573749675E1,-2.357220089E1,-2.374206075E0,2.844212216E1
7.853445875E0,-1.255803933E1,-2.411006754E1,1.597235076E0,2.723143163E1
7.863475875E0,-1.021160665E1,-2.302199894E1,1.088074739E0,2.520859481E1
7.873505583E0,-6.640726671E0,-1.851262389E1,9.848699212E-1,1.969229451E1
7.883536583E0,-5.521431600E0,-1.505660954E1,1.252707481E-2,1.603707750E1
7.893566583E0,-5.146325700E0,-1.206629551E1,-1.256642658E0,1.317798567E1
7.903596583E0,-4.692630589E0,-8.436645749E0,-1.692618073E0,9.801159588E0
7.913626583E0,-3.265752388E0,-5.444234905E0,-1.759322817E0,6.587871366E0
7.923656583E0,-1.307814273E0,-3.235364993E0,-1.361524165E0,3.745892799E0
7.933687583E0,2.743536973E-1,-7.684855199E-1,-1.085560144E0,1.358042993E0
7.943717583E0,1.829889354E0,1.942694131E0,-1.083275052E0,2.880284773E0
7.953747583E0,1.549130032E0,3.062730044E0,-6.443196031E-1,3.492172236E0
7.963777583E0,1.693125904E0,4.824111958E0,-8.616208479E-2,5.113331146E0
7.973807583E0,3.108348558E0,6.910355818E0,5.390502794E-1,7.596408592E0
7.983838583E0,4.765659097E0,8.443287016E0,6.515692735E-1,9.717260148E0
7.993868583E0,6.377665701E0,9.385402097E0,1.590034814E-1,1.134837761E1
8.003898583E0,7.823213185E0,9.971764390E0,-1.124025614E0,1.272407887E1
8.013928583E0,8.962674133E0,1.048814604E1,-3.028689308E0,1.412457765E1
8.023958583E0,8.981983978E0,1.064621733E1,-3.247418443E0,1.430257690E1
8.033989583E0,7.765795282E0,1.007567760E1,-1.042352583E0,1.276375158E1
8.044019583E0,7.152914110E0,9.422505603E0,6.315451911E-1,1.184679878E1
8.054049583E0,6.635156028E0,9.069100474E0,1.693598067E0,1.136407292E1
8.064079583E0,5.696736388E0,8.795228003E0,2.750237882E0,1.083386586E1
8.074109583E0,4.800079316E0,8.622566156E0,3.565484755E0,1.049295431E1
8.084140583E0,4.024668062E0,8.581912805E0,3.904840779E0,1.025158339E1
8.094170583E0,3.237629327E0,8.593241785E0,3.916631105E0,9.983288399E0
8.104200583E0,2.742442667E0,8.707447847E0,3.809400187E0,9.892025555E0
8.114230583E0,2.427770663E0,8.792169909E0,3.565655494E0,9.793376394E0
8.124260583E0,2.184205772E0,8.821094915E0,3.261636533E0,9.655088981E0
8.134291583E0,1.833457033E0,8.855293525E0,2.991626147E0,9.525104468E0
8.144321583E0,1.668733951E0,8.881559218E0,2.676877545E0,9.425096315E0
8.154351583E0,1.690403733E0,8.900828717E0,2.276551141E0,9.341568484E0
8.164381583E0,1.385544527E0,8.706811085E0,1.306319140E0,8.912618168E0
8.174411583E0,9.194360697E-1,8.298469026E0,4.037581345E-1,8.359005413E0
8.184442583E0,7.007458189E-1,8.320507767E0,-2.687994272E-1,8.354289158E0
8.194472583E0,3.476824594E-1,8.422292004E0,-1.149837709E0,8.507526811E0
8.204502583E0,-8.502711099E-1,7.642711392E0,-2.846372832E0,8.199746135E0
8.214532583E0,-2.871130820E0,5.711816357E0,-4.830283986E0,8.012482866E0
8.224562583E0,-3.518846486E0,3.609865122E0,-4.118667316E0,6.509748632E0
8.234593583E0,-2.416215396E0,1.988776038E0,-1.589645974E0,3.510028674E0
8.244623583E0,-1.942978891E0,-4.043378860E-1,-8.383147234E-1,2.154397287E0
8.254653583E0,-2.015435540E0,-3.373682633E0,-1.385642760E0,4.166979816E0
8.264683583E0,-1.699964515E0,-6.366589905E0,-1.794060540E0,6.829494827E0
8.274713583E0,-4.503129347E0,-9.573632739E0,-7.383383285E0,1.290143273E1
8.284744583E0,-7.771565314E0,-1.386236369E1,-7.274673021E0,1.747807833E1
8.294774583E0,-5.390875554E0,-1.469187777E1,-4.479224467E-1,1.565609933E1
8.304804583E0,-5.857145979E0,-1.514187949E1,-2.175745436E0,1.638037062E1
8.314834583E0,-5.221489903E0,-1.636338155E1,-6.518716915E0,1.837165977E1
8.324864583E0,-6.424411851E-1,-1.641815359E1,-9.257101321E-1,1.645677481E1
8.334895583E0,-4.217158109E-2,-1.793532829E1,4.810878831E0,1.856939241E1
8.344925583E0,-2.352081965E0,-2.015785262E1,3.211047007E0,2.054707120E1
8.354955583E0,-3.752311774E0,-2.112048208E1,-4.058695641E-1,2.145505388E1
8.364985583E0,-4.651445141E0,-2.058057591E1,-3.256236337E0,2.134945249E1
8.375015583E0,-5.391911681E0,-1.883966568E1,-4.109438656E0,2.002231756E1
8.385046583E0,-5.082289917E0,-1.626321874E1,-3.395770490E0,1.737392333E1
8.395076583E0,-4.270472144E0,-1.341261691E1,-2.122453035E0,1.423516883E1
8.405106583E0,-3.057365223E0,-1.118191467E1,-1.398354607E0,1.167639042E1
8.415136583E0,-1.946847701E0,-8.896528675E0,-1.138701687E0,9.177967093E0
8.425166583E0,-1.283668488E0,-6.037510947E0,-6.282961857E-1,6.204361314E0
8.435197583E0,-3.546964869E-1,-2.815963510E0,-3.235325816E-1,2.856594724E0
8.445227583E0,9.761894372E-1,4.714791244E-1,-3.248816805E-1,1.131718379E0
8.455257583E0,1.989210486E0,3.465656412E0,-3.289513426E-1,4.009481476E0
8.465287583E0,3.068927215E0,6.096816332E0,-6.121062689E-1,6.853040035E0
8.475317583E0,4.082173674E0,8.417470974E0,-1.202397746E0,9.432058092E0
8.485348583E0,5.064597412E0,1.033253994E1,-1.930077009E0,1.166776438E1
8.495378583E0,5.494916232E0,1.124315256E1,-2.524872158E0,1.276626661E1
8.505408583E0,5.739262018E0,1.153434390E1,-3.439692435E0,1.333460542E1
8.515438583E0,5.237759196E0,1.170988433E1,-4.252779347E0,1.351449757E1
8.525468583E0,4.310959727E0,1.178383523E1,-4.258824198E0,1.325068791E1
8.535499583E0,3.307586877E0,1.149658492E1,-3.524618565E0,1.247134843E1
8.545529583E0,2.092932490E0,1.075807222E1,-2.337553242E0,1.120627679E1
8.555559583E0,1.257074767E0,9.982925556E0,-1.072967434E0,1.011880916E1
8.565589583E0,1.142093656E0,9.605279040E0,3.263426073E-1,9.678443204E0
8.575619583E0,1.237811992E0,9.392308828E0,1.787562968E0,9.640696293E0
8.585650583E0,1.351729786E0,9.053264460E0,3.013811653E0,9.637003241E0
8.595680583E0,1.751800666E0,9.087923246E0,4.172778912E0,1.015240062E1
8.605710583E0,2.203817918E0,9.340280887E0,4.875655164E0,1.076427767E1
8.615740583E0,2.675048244E0,9.519561197E0,4.969295983E0,1.106669919E1
8.625770583E0,2.912805095E0,9.556401579E0,4.759570391E0,1.106628912E1
8.635801583E0,2.845009846E0,9.323302912E0,4.327250655E0,1.066504367E1
8.645831583E0,2.655588418E0,8.950447605E0,3.634462312E0,1.001858166E1
8.655861583E0,2.386436111E0,8.669422234E0,2.636474747E0,9.370429994E0
8.665891583E0,2.007502623E0,8.461292932E0,1.294145529E0,8.791948448E0
8.675921583E0,1.586593143E0,7.667428157E0,5.498502329E-2,7.830054642E0
8.685952583E0,1.350581978E0,6.122982037E0,-6.235023460E-1,6.301090055E0
8.695982583E0,1.369720207E0,4.981910766E0,-7.639761472E-1,5.222952028E0
8.706012583E0,1.581962148E0,4.248852357E0,-7.781540371E-1,4.600095031E0
8.716042583E0,1.954311087E0,3.856387242E0,-1.141236162E0,4.471406307E0
8.726072583E0,2.074107964E0,3.408788146E0,-1.396210433E0,4.227429958E0
8.736103583E0,2.244587629E0,2.816399127E0,-1.568256859E0,3.928066604E0
8.746133583E0,2.345571090E0,1.768713738E0,-3.087020839E0,4.261425781E0
8.756163583E0,1.411963416E0,-1.223027599E0,-4.075434758E0,4.483146848E0
8.766193583E0,4.962873986E-1,-5.950517827E0,-3.526232689E0,6.934643507E0
8.776223583E0,1.530137399E-1,-1.046015893E1,-3.978147030E0,1.119213973E1
8.786254583E0,-2.191328266E0,-1.704803905E1,-3.990556283E0,1.764545534E1
8.796284583E0,-4.454146929E0,-2.183233380E1,-1.165574613E0,2.231252537E1
8.806314583E0,-6.698436935E0,-1.976139737E1,-7.779217565E-1,2.088030281E1
8.816344583E0,-1.058762355E1,-1.837767250E1,-5.904986143E0,2.201602780E1
8.826374583E0,-1.083567881E1,-1.892995137E1,-5.728922971E0,2.255161973E1
8.836405583E0,-7.726837038E0,-2.018026617E1,-4.428653946E0,2.205810801E1
8.846435583E0,-6.277030442E0,-2.102818728E1,-3.272022065E0,2.218765197E1
8.856465583E0,-6.703145113E0,-2.054864543E1,-3.342339218E0,2.187121887E1
8.866495583E0,-6.636688583E0,-1.801390084E1,-2.221028028E0,1.932561058E1
8.876525708E0,-5.504756511E0,-1.437113226E1,-4.753640145E-1,1.539668009E1
8.886555708E0,-4.473312348E0,-1.142766495E1,-1.409091264E-1,1.227281162E1
8.896586708E0,-3.467055650E0,-8.879864695E0,4.816380769E-2,9.532827054E0
8.906616708E0,-2.243273760E0,-6.177240690E0,1.689421400E-1,6.574125124E0
8.916646708E0,-1.194592297E0,-3.353765847E0,2.135607809E-2,3.560232042E0
8.926676708E0,-1.870459968E-1,-2.031311023E-1,-2.819495228E-1,3.946441220E-1
8.936706708E0,9.729696679E-1,3.304180874E0,-2.187279654E-1,3.451394377E0
8.946737708E0,2.317419963E0,6.488169306E0,-1.179772237E-1,6.890623691E0
8.956767708E0,3.553847334E0,8.941116618E0,-1.876500142E-1,9.623336728E0
8.966797708E0,4.687402301E0,1.103456834E1,-4.817792872E-1,1.199856450E1
8.976827708E0,5.476805066E0,1.250060564E1,-1.152847417E0,1.369633499E1
8.986857708E0,5.639524891E0,1.321339058E1,-2.215958931E0,1.453645093E1
8.996888708E0,5.382117594E0,1.339832164E1,-3.295482556E0,1.481021330E1
9.006918708E0,4.312421239E0,1.299962339E1,-3.869220711E0,1.423228914E1
9.016948708E0,2.424371969E0,1.199429056E1,-3.648660228E0,1.276923282E1
9.026978708E0,9.481608090E-1,1.093587319E1,-2.555122143E0,1.127035849E1
9.037008708E0,4.746769667E-2,1.006813118E1,-7.920556462E-1,1.009935002E1
9.047039708E0,-1.608419922E-1,9.449173000E0,1.136786577E0,9.518667147E0
9.057069708E0,2.624189454E-1,8.863409461E0,2.711728120E0,9.272667382E0
9.067099708E0,5.177873182E-1,8.340449111E0,3.621680006E0,9.107566148E0
9.077129708E0,1.956612843E-1,7.806797127E0,4.152152274E0,8.844474729E0
9.087159708E0,4.340739012E-2,7.463131120E0,4.131549025E0,8.530527983E0
9.097190708E0,-6.381124914E-2,7.533019965E0,3.710309762E0,8.397431762E0
9.107220708E0,2.732058889E-1,8.077763532E0,2.693309391E0,8.519320432E0
9.117250708E0,7.786807251E-1,8.493519861E0,1.732722956E0,8.703364415E0
9.127280708E0,1.361840499E0,8.446905273E0,9.533698010E-1,8.608933280E0
9.137310708E0,2.048505346E0,8.192825627E0,5.513316250E-1,8.463021474E0
9.147341708E0,2.952712050E0,8.052062096E0,3.147333992E-1,8.582148307E0
9.157371708E0,3.764530115E0,7.876117038E0,2.913161775E-1,8.734401623E0
9.167401708E0,4.313332235E0,7.486645113E0,4.128259966E-1,8.650151173E0
9.177431708E0,4.529105895E0,7.041667909E0,5.014269550E-1,8.387449919E0
9.187461708E0,4.406410260E0,6.586594318E0,8.646058515E-1,7.971650981E0
9.197492708E0,4.264337830E0,6.204258919E0,9.287305114E-1,7.585508963E0
9.207522708E0,3.667990538E0,5.445030711E0,1.212177798E0,6.676218170E0
9.217552708E0,2.437508616E0,4.137238365E0,1.819081653E0,5.134904829E0
9.227582708E0,7.821937323E-1,2.756434761E0,2.037553511E0,3.515875984E0
9.237612708E0,-1.439013513E0,9.039339316E-1,1.398566276E0,2.200873479E0
9.247643708E0,-2.319147523E0,-2.142538514E0,2.773895717E-1,3.169520703E0
9.257673708E0,-5.815230213E0,-8.525075530E0,-7.157105395E0,1.255858164E1
9.267703708E0,-1.326364857E1,-2.189156610E1,-1.819386644E1,3.140353190E1
9.277733708E0,-1.162333150E1,-2.604848502E1,-1.058362405E1,3.042430780E1
9.287763708E0,-8.320734639E0,-2.095695884E1,1.156973505E0,2.257802774E1
9.297794708E0,-1.125976333E1,-2.347782917E1,-8.513709712E-1,2.605217006E1
9.307824708E0,-1.437216020E1,-2.546203268E1,-4.370668570E0,2.956309931E1
9.317854708E0,-1.218666863E1,-2.402189621E1,-1.506729240E0,2.697844738E1
9.327884708E0,-8.855039172E0,-2.073233221E1,-6.681715652E-2,2.254430709E1
9.337914708E0,-6.860346336E0,-1.649567363E1,-1.742656206E0,1.795016577E1
9.347945708E0,-5.599754469E0,-1.432643732E1,-1.933301310E0,1.550295811E1
9.357975708E0,-4.621233455E0,-1.320153944E1,-1.036441340E0,1.402535750E1
9.368005708E0,-4.367742623E0,-1.159875332E1,-4.837074065E-1,1.240331516E1
9.378035708E0,-3.491977068E0,-9.043175089E0,-7.007759321E-1,9.719259563E0
9.388065708E0,-2.148332812E0,-6.100746245E0,-1.220970988E0,6.582188753E0
9.398096708E0,-1.077670496E0,-3.056213906E0,-1.532231287E0,3.584626878E0
9.408126708E0,1.197217405E-3,-8.030215144E-2,-9.809485591E-1,9.842306358E-1
9.418156708E0,7.318585610E-1,2.517507589E0,-2.074100947E-1,2.629920220E0
9.428186708E0,1.413119411E0,4.781690408E0,2.216737926E-1,4.991052885E0
9.438216708E0,2.153744702E0,7.010397000E0,3.848075279E-1,7.343865411E0
9.448247708E0,3.299750731E0,9.285304781E0,1.880533990E-1,9.855993296E0
9.458277708E0,4.796501405E0,1.140635302E1,-2.986069246E-1,1.237741819E1
9.468307708E0,6.185195242E0,1.283270644E1,-6.802791754E-1,1.426175916E1
9.478337708E0,6.910904871E0,1.360087387E1,-1.297313551E0,1.531102213E1
9.488367708E0,6.641334196E0,1.383524664E1,-2.630526667E0,1.557051830E1
9.498398708E0,5.753314632E0,1.351648451E1,-4.194946876E0,1.527722364E1
9.508428708E0,4.837823094E0,1.230318960E1,-4.841844224E0,1.407893683E1
9.518458708E0,5.105162471E0,1.072998922E1,-3.730612464E0,1.245442981E1
9.528488708E0,5.643245475E0,9.367666907E0,-1.272759923E0,1.100996460E1
9.538518708E0,5.767740297E0,8.250192075E0,9.840560619E-1,1.011438895E1
9.548548708E0,5.744920954E0,7.412691284E0,2.657828486E0,9.747623356E0
9.558579708E0,5.530021745E0,6.783755997E0,3.755025759E0,9.523691741E0
9.568609708E0,5.172075083E0,6.477702790E0,4.701635009E0,9.529762109E0
9.578639708E0,4.741696330E0,6.963285983E0,4.841916729E0,9.716748087E0
9.588669708E0,4.039353637E0,7.987262083E0,4.008487355E0,9.807176161E0
9.598700708E0,3.156298943E0,8.837756556E0,2.648653035E0,9.751078241E0
9.608730708E0,2.583183808E0,9.331499539E0,1.255392523E0,9.763489777E0
9.618760708E0,2.402641962E0,9.437985522E0,4.712773955E-1,9.750403145E0
9.628790708E0,2.671972901E0,9.204765233E0,4.344540433E-1,9.594576202E0
9.638820708E0,3.202623509E0,8.886514149E0,5.859658527E-1,9.464158020E0
9.648850708E0,3.655643266E0,8.409871933E0,4.282639615E-1,9.180037235E0
9.658881708E0,4.060198083E0,7.739668168E0,2.736976397E-1,8.744288549E0
9.668911708E0,4.432687355E0,7.056156140E0,-2.712171046E-1,8.337362615E0
9.678941708E0,4.850801281E0,6.444052064E0,-6.345528527E-1,8.090657414E0
9.688971708E0,4.933211061E0,5.703817951E0,-5.235804471E-1,7.559381395E0
9.699001708E0,4.864680817E0,4.791586820E0,-1.036335652E0,6.906403933E0
9.709032708E0,4.365081263E0,3.639476591E0,-2.743571764E0,6.310856544E0
9.719062708E0,2.686648242E0,1.422500684E0,-3.079271524E0,4.327065991E0
9.729092708E0,2.448658964E-1,-2.055786299E0,-2.229499767E0,3.042513077E0
9.739122708E0,-2.172889948E0,-6.383856733E0,-1.720645824E0,6.959576105E0
9.749152708E0,-4.906174706E0,-1.335606732E1,-3.545095806E0,1.466365537E1
9.759183708E0,-9.416163129E0,-1.999824001E1,-7.258632939E0,2.326545688E1
9.769213708E0,-1.093856525E1,-1.844152877E1,-7.476268644E0,2.270763717E1
9.779243708E0,-1.175274559E1,-1.878303423E1,-9.521489609E0,2.411613916E1
9.789273708E0,-1.180313455E1,-2.208401434E1,-8.797672724E0,2.654085002E1
9.799303708E0,-1.182173455E1,-2.341901787E1,-4.594844094E0,2.663299454E1
9.809334708E0,-1.128631787E1,-2.310654500E1,-1.136651653E0,2.574073368E1
9.819364708E0,-9.889993418E0,-2.268031339E1,1.109855910E0,2.476772831E1
9.829394708E0,-9.245122715E0,-2.165241030E1,2.242082390E0,2.365007609E1
9.839424708E0,-7.777192090E0,-1.723315722E1,9.799874961E-1,1.893216311E1
9.849454708E0,-6.051616770E0,-1.300063145E1,-3.912503555E-1,1.434543693E1
9.859485708E0,-5.255220151E0,-1.006014155E1,-1.427073645E0,1.143941983E1
9.869515708E0,-3.896140415E0,-7.253374538E0,-2.047485299E0,8.484311897E0
9.879545833E0,-2.443373666E0,-4.713838148E0,-1.290649771E0,5.464075566E0
9.889575833E0,-1.506389225E0,-2.725105965E0,7.684761643E-2,3.114693656E0
9.899605833E0,-2.485993436E-1,-4.337031877E-1,1.053112921E0,1.165738784E0
9.909636833E0,1.448214399E0,3.198384277E0,1.781926106E0,3.937289369E0
9.919666833E0,2.610580352E0,6.599021405E0,1.923562188E0,7.352707309E0
9.929696833E0,3.041238310E0,8.829918948E0,1.366317712E0,9.438401516E0
9.939726833E0,3.819346593E0,1.055649063E1,4.193869380E-1,1.123400144E1
9.949756833E0,4.775948442E0,1.210361478E1,-7.602538828E-1,1.303400016E1
9.959787833E0,5.227854012E0,1.354425411E1,-2.143983361E0,1.467562406E1
9.969817833E0,5.048801744E0,1.447727092E1,-3.180362574E0,1.565875086E1
9.979847833E0,4.383367260E0,1.482191517E1,-3.794481601E0,1.591543805E1
9.989877833E0,3.186428768E0,1.432371836E1,-3.578642160E0,1.510393709E1
9.999907833E0,1.837805607E0,1.240113047E1,-2.587841992E0,1.280087858E1
1.000993783E1,1.283110079E0,1.027305504E1,-1.578652332E0,1.047254384E1
1.001996883E1,1.069866217E0,9.128085431E0,-6.948211277E-1,9.216796285E0
1.002999883E1,9.219769773E-1,8.407698523E0,6.121450067E-2,8.458320354E0
1.004002883E1,7.092733982E-1,7.738983459E0,7.482670176E-1,7.807357892E0
1.005005883E1,7.963112497E-1,7.415039526E0,1.399477418E0,7.587849486E0
1.006008883E1,1.133540349E0,7.372903320E0,1.791854678E0,7.671724727E0
1.007011983E1,1.555434793E0,7.368195142E0,1.966756739E0,7.783174745E0
1.008014983E1,2.047355198E0,7.209018729E0,1.953787615E0,7.744604599E0
1.009017983E1,2.739284878E0,6.887234173E0,1.915977180E0,7.655628305E0
1.010020983E1,3.428278963E0,6.678828297E0,1.812880243E0,7.723106813E0
1.011023983E1,4.023164158E0,6.794026047E0,1.861725689E0,8.112377106E0
1.012027083E1,4.405234093E0,7.365077991E0,1.996078041E0,8.811060593E0
1.013030083E1,4.313739201E0,7.800669245E0,2.186032004E0,9.178100157E0
1.014033083E1,3.961591223E0,7.803615072E0,2.333436364E0,9.057347210E0
1.015036083E1,3.202919670E0,7.348454942E0,2.402994841E0,8.368564313E0
1.016039083E1,2.734128803E0,6.776816522E0,2.460104889E0,7.710565384E0
1.017042183E1,3.183204613E0,6.286835053E0,2.274030261E0,7.404613441E0
1.018045183E1,4.229823178E0,5.355968846E0,1.382161035E0,6.963345139E0
1.019048183E1,5.228552170E0,3.575813277E0,-8.780550322E-1,6.394933856E0
1.020051183E1,5.393568197E0,8.868097758E-1,-4.393859504E0,7.013060018E0
1.021054183E1,1.987863580E0,-2.418807174E0,-8.411071197E0,8.974873171E0
1.022057283E1,-2.858673912E0,-6.095464455E0,-1.028190539E1,1.229000740E1
1.023060283E1,-9.217936671E0,-1.173118690E1,-9.852711571E0,1.787923455E1
1.024063283E1,-1.326008060E1,-1.931081327E1,-3.963771650E0,2.375812982E1
1.025066283E1,-1.211543434E1,-2.196772257E1,-2.247494280E0,2.518761233E1
1.026069283E1,-1.046956943E1,-2.190408616E1,-2.073648665E0,2.436597819E1
1.027072383E1,-8.746672139E0,-2.181084879E1,-1.865460598E-1,2.350004677E1
1.028075383E1,-7.763809567E0,-2.073099904E1,1.508337809E0,2.218842363E1
1.029078383E1,-7.121316926E0,-1.857068324E1,-3.937792763E-1,1.989317704E1
1.030081383E1,-7.382198054E0,-1.730521362E1,-3.469631641E0,1.913127310E1
1.031084383E1,-7.008251656E0,-1.615496339E1,-4.804060393E0,1.825314849E1
1.032087483E1,-6.510461816E0,-1.451601457E1,-4.305957434E0,1.648156733E1
1.033090483E1,-6.059939697E0,-1.265211869E1,-3.013078704E0,1.434843614E1
1.034093483E1,-5.165240858E0,-1.022402380E1,-2.546949782E0,1.173445052E1
1.035096483E1,-3.384638561E0,-7.407659170E0,-3.091307141E0,8.711221063E0
1.036099483E1,-8.810707337E-1,-5.106613165E0,-3.320831405E0,6.154811522E0
1.037102483E1,1.474715442E0,-2.960303198E0,-2.595355957E0,4.204051998E0
1.038105583E1,2.948922469E0,-4.007588053E-1,-1.837369697E0,3.497524661E0
1.039108583E1,3.482531184E0,2.356727285E0,-1.085189577E0,4.342789813E0
1.040111583E1,3.529497189E0,5.048838581E0,-1.275828834E-1,6.161525689E0
1.041114583E1,3.393490953E0,7.357393581E0,7.018143976E-1,8.132623476E0
1.042117583E1,3.416312928E0,9.099717665E0,1.092132415E0,9.781043340E0
1.043120683E1,2.793288007E0,1.041844372E1,1.148595614E0,1.084738214E1
1.044123683E1,2.143201588E0,1.163074226E1,7.326656230E-1,1.184923109E1
1.045126683E1,1.389663890E0,1.240262151E1,-1.226336539E-1,1.248083431E1
1.046129683E1,7.472636354E-1,1.271846822E1,-6.248416507E-1,1.275571495E1
1.047132683E1,2.382673135E-1,1.272818512E1,-1.075418733E0,1.277575803E1
1.048135783E1,2.114733249E-2,1.251546458E1,-1.871653969E0,1.265465881E1
1.049138783E1,1.430793205E-1,1.189113047E1,-1.590688241E0,1.199790584E1
1.050141783E1,7.889534059E-1,1.095425566E1,-7.248080615E-1,1.100652131E1
1.051144783E1,1.937772822E0,1.002154057E1,2.210201470E-1,1.020955870E1
1.052147783E1,3.244721999E0,9.198659570E0,5.660433657E-1,9.770566198E0
1.053150883E1,4.330392364E0,8.679367763E0,1.043194728E0,9.755612643E0
1.054153883E1,4.763648532E0,8.465439193E0,1.758578174E0,9.871606012E0
1.055156883E1,4.845214266E0,8.381715251E0,2.081566672E0,9.902634581E0
1.056159883E1,4.762652751E0,8.352989634E0,2.477389258E0,9.929388430E0
1.057162883E1,4.486501620E0,8.389018423E0,2.379745435E0,9.806503720E0
1.058165983E1,4.003351453E0,8.378970568E0,1.847009125E0,9.468126179E0
1.059168983E1,3.492438414E0,8.232558627E0,1.337638289E0,9.042202376E0
1.060171983E1,3.024374940E0,8.050558192E0,7.913188970E-1,8.636232777E0
1.061174983E1,2.650439652E0,7.607585413E0,1.470258987E-1,8.057406704E0
1.062177983E1,2.427019004E0,6.780829466E0,-3.747631808E-1,7.211831732E0
1.063181083E1,2.301752056E0,5.675413347E0,-1.169264206E0,6.235026702E0
1.064184083E1,1.757763949E0,4.438134329E0,-2.472272944E0,5.375770078E0
1.065187083E1,9.659036002E-1,2.760401512E0,-1.612700669E0,3.339699046E0
1.066190083E1,-5.232632357E-1,4.724971247E-1,-7.256439941E-1,1.011739666E0
1.067193083E1,-2.443031019E0,-2.231628445E0,-2.677636514E0,4.256560040E0
1.068196183E1,-3.275492387E0,-5.794543349E0,-8.184689811E-1,6.706375659E0
1.069199183E1,-3.950303758E0,-9.830475780E0,-2.526782735E0,1.089163830E1
1.070202183E1,-7.696278319E0,-1.713433108E1,-1.279563626E1,2.272765516E1
1.071205183E1,-9.451115445E0,-1.990821628E1,-1.045266513E1,2.439095871E1
1.072208183E1,-8.082521412E0,-1.838911433E1,4.599577707E-1,2.009224326E1
1.073211183E1,-7.157665558E0,-1.951289421E1,2.944641723E0,2.099181106E1
1.074214283E1,-7.159948896E0,-2.132414995E1,1.289114585E0,2.253100210E1
1.075217283E1,-6.588723289E0,-2.203147593E1,-1.125209821E0,2.302310369E1
1.076220283E1,-5.498794690E0,-2.014228266E1,-3.343817979E-2,2.087940162E1
1.077223283E1,-5.693680633E0,-1.686429029E1,8.409918711E-1,1.781935896E1
1.078226283E1,-6.078171900E0,-1.437275311E1,-6.400781791E-1,1.561825553E1
1.079229383E1,-6.118667377E0,-1.225671593E1,-1.934599100E0,1.383502257E1
1.080232383E1,-5.427801890E0,-1.042819103E1,-2.747340587E0,1.207294835E1
1.081235383E1,-4.326187631E0,-8.304583459E0,-3.143994062E0,9.877585966E0
1.082238383E1,-2.851626847E0,-5.316028855E0,-3.066426069E0,6.767193458E0
1.083241383E1,-7.534792256E-1,-1.553267230E0,-2.241779066E0,2.829477586E0
1.084244483E1,8.733269736E-1,2.503026960E0,-7.980969894E-1,2.768538020E0
1.085247483E1,1.696600904E0,5.728654584E0,2.692933707E-1,5.980673615E0
1.086250483E1,1.797654239E0,7.655579360E0,5.189554457E-1,7.880911803E0
1.087253483E1,1.704908628E0,9.478353530E0,-1.184762836E-1,9.631195964E0
1.088256483E1,2.067899098E0,1.105403138E1,-1.304334887E0,1.132117953E1
1.089259583E1,2.776576080E0,1.201459326E1,-2.774128436E0,1.263944676E1
1.090262583E1,3.460122314E0,1.241586194E1,-3.844617966E0,1.345017329E1
1.091265583E1,3.526625622E0,1.179381526E1,-3.834522164E0,1.289320468E1
1.092268583E1,2.871001304E0,1.053963896E1,-2.763277173E0,1.126775659E1
1.093271583E1,1.937666987E0,9.542820252E0,-1.273170397E0,9.820434541E0
1.094274683E1,1.226799931E0,8.989774223E0,1.846843064E-1,9.074975865E0
1.095277683E1,1.061924821E0,8.560107368E0,1.495104976E0,8.754339574E0
1.096280683E1,1.259363367E0,8.327126815E0,2.201118844E0,8.704709142E0
1.097283683E1,1.619174998E0,8.253185264E0,2.453262477E0,8.761009729E0
1.098286683E1,2.344651323E0,8.357177410E0,2.712069597E0,9.093686029E0
1.099289783E1,2.962794404E0,8.493644407E0,3.173627751E0,9.538975788E0
1.100292783E1,3.410134760E0,8.755545874E0,3.637500232E0,1.007571390E1
1.101295783E1,4.049107669E0,8.809486438E0,3.789354762E0,1.040968461E1
1.102298783E1,4.331768798E0,8.802045856E0,3.441837194E0,1.039646456E1
1.103301783E1,4.688208632E0,8.696619388E0,2.706149876E0,1.024371691E1
1.104304783E1,5.120226653E0,8.328686852E0,1.939612648E0,9.967238478E0
1.105307883E1,4.966225026E0,7.774465533E0,1.264500146E0,9.311534028E0
1.106310883E1,4.792817367E0,7.436262580E0,7.897353979E-1,8.882160856E0
1.107313883E1,4.740468707E0,7.100484467E0,4.065358543E-1,8.547174657E0
1.108316883E1,4.555903684E0,6.594942387E0,2.941080038E-1,8.020973943E0
1.109319883E1,4.272651986E0,6.188065640E0,6.296501085E-2,7.520084837E0
1.110322983E1,5.326543318E0,5.454586816E0,-5.739182496E-1,7.645519159E0
1.111325983E1,6.490397680E0,4.377358954E0,-1.682406642E0,8.007310757E0
1.112328983E1,5.303432783E0,2.923069298E0,-4.917239392E-1,6.075567943E0
1.113331983E1,2.950093667E0,8.705714732E-1,-2.009397852E0,3.674047776E0
1.114334983E1,1.988275516E-1,-1.668310613E0,-5.470487734E0,5.722676712E0
1.115338083E1,-2.984332330E0,-7.694466267E0,-5.259411435E0,9.786340442E0
1.116341083E1,-4.601939397E0,-1.632034604E1,-8.337944748E0,1.889584250E1
1.117344083E1,-5.576773742E0,-1.898346509E1,-9.944324577E0,2.214411758E1
1.118347083E1,-8.041231298E0,-1.658203818E1,-1.003910326E1,2.098592350E1
1.119350083E1,-8.738005396E0,-1.598623146E1,-8.972188722E0,2.030794192E1
1.120353183E1,-7.333208912E0,-1.621342386E1,-1.677136985E0,1.787355182E1
1.121356183E1,-7.155435430E0,-1.808515735E1,4.661378099E0,2.000004046E1
1.122359183E1,-8.915228655E0,-2.229752425E1,2.930208163E0,2.419187900E1
1.123362183E1,-9.108949249E0,-2.430639600E1,-2.025110051E-2,2.595716188E1
1.124365183E1,-7.107880025E0,-2.248325754E1,-8.016135049E-1,2.359367314E1
1.125368183E1,-5.284801215E0,-1.790335104E1,-1.112881844E0,1.870020343E1
1.126371283E1,-4.141956776E0,-1.316844888E1,-9.015881748E-1,1.383389725E1
1.127374283E1,-3.456596736E0,-9.992944175E0,-3.134682079E-1,1.057852809E1
1.128377283E1,-2.788634208E0,-7.318806050E0,1.837567918E-1,7.834230614E0
1.129380283E1,-1.766294745E0,-4.380808226E0,5.534493403E-1,4.755794783E0
1.130383283E1,-3.973060244E-1,-9.483411956E-1,1.012129787E0,1.442778502E0
1.131386383E1,1.068247123E0,2.471728569E0,1.032082752E0,2.883710950E0
1.132389383E1,2.298298691E0,5.344852120E0,6.184368300E-1,5.850819188E0
1.133392383E1,3.531552486E0,7.864437810E0,3.645505071E-2,8.621054111E0
1.134395383E1,4.382967603E0,9.765458835E0,-8.299352248E-1,1.073607860E1
1.135398383E1,4.542945669E0,1.127202962E1,-2.088729511E0,1.233125290E1
1.136401483E1,3.979112113E0,1.267531226E1,-2.949983447E0,1.360879408E1
1.137404483E1,2.431814890E0,1.330783949E1,-3.241830844E0,1.391121068E1
1.138407483E1,2.232272516E-1,1.274228977E1,-2.918512563E0,1.307415369E1
1.139410483E1,-9.172128122E-1,1.165777628E1,-1.713876210E0,1.181873085E1
1.140413483E1,-3.631638399E-1,1.044705999E1,-4.290884189E-1,1.046217316E1
1.141416583E1,1.204945670E0,9.629616905E0,6.178672381E-1,9.724359914E0
1.142419583E1,2.825939152E0,8.987059945E0,1.028577931E0,9.476874544E0
1.143422583E1,4.526571419E0,8.521268992E0,1.712172332E0,9.799663675E0
1.144425583E1,5.669957310E0,8.318271207E0,2.605224595E0,1.039852138E1
1.145428583E1,5.718661108E0,8.177348632E0,3.334094059E0,1.052085066E1
1.146431683E1,4.949294997E0,7.879129524E0,3.845849682E0,1.006810622E1
1.147434683E1,3.598899254E0,7.627834906E0,3.997878166E0,9.333754391E0
1.148437683E1,2.021790294E0,7.538252054E0,3.306538471E0,8.476206503E0
1.149440683E1,7.503208521E-1,7.807815712E0,2.450562379E0,8.217677503E0
1.150443683E1,-3.531221241E-2,8.278819458E0,1.662024418E0,8.444076251E0
1.151446783E1,-6.815067253E-1,8.309995058E0,7.934611706E-1,8.375562662E0
1.152449783E1,-1.302481612E0,8.374438391E0,3.378158677E-1,8.481850993E0
1.153452783E1,-1.517599507E0,8.388221447E0,2.217312415E-1,8.527281634E0
1.154455783E1,-1.138282880E0,8.293747984E0,4.157361558E-1,8.381812459E0
1.155458783E1,-4.882710122E-1,8.073614933E0,8.805225572E-1,8.136153061E0
1.156461783E1,2.638120446E-1,7.644149222E0,1.060789146E0,7.721909592E0
1.157464883E1,7.510561395E-1,7.161517119E0,8.879815578E-1,7.255337622E0
1.158467883E1,6.616487038E-1,6.414013748E0,3.308788772E-1,6.456534070E0
1.159470883E1,1.383405030E0,5.511455666E0,-9.680346179E-1,5.764290421E0
1.160473883E1,3.465172555E0,3.075039017E0,-1.563327657E0,4.889507046E0
1.161476883E1,3.796999119E0,-1.624463512E0,-3.281377902E0,5.274800939E0
1.162479983E1,4.384061033E0,-6.553088018E0,-5.343097955E0,9.524266348E0
1.163482983E1,2.612694413E0,-1.366794494E1,-1.366964414E1,1.950635953E1
1.164485983E1,-3.617044918E0,-1.956746043E1,-1.193874201E1,2.320564764E1
1.165488983E1,-1.002623003E1,-1.769771382E1,-1.531600957E0,2.039804316E1
1.166491983E1,-1.089000061E1,-1.771573962E1,4.446418664E-1,2.079993389E1
1.167495083E1,-1.093848689E1,-2.107332779E1,-2.954391955E0,2.392622142E1
1.168498083E1,-1.031027140E1,-2.231160902E1,-2.528267343E0,2.470833319E1
1.169501083E1,-8.311897157E0,-2.058951279E1,7.642600295E-1,2.221710523E1
1.170504083E1,-7.179346449E0,-1.904535787E1,2.105019854E0,2.046215483E1
1.171507083E1,-6.364787208E0,-1.714008825E1,1.906023026E0,1.838276544E1
1.172510183E1,-5.267995148E0,-1.508605261E1,1.042524637E0,1.601335736E1
1.173513183E1,-5.443437930E0,-1.328594049E1,-3.140305638E-2,1.435786257E1
1.174516183E1,-5.827483639E0,-1.204521279E1,-2.238008635E-1,1.338270539E1
1.175519183E1,-5.375800263E0,-1.034249307E1,1.757418671E-1,1.165749872E1
1.176522183E1,-4.281796447E0,-8.092008519E0,2.479957648E-1,9.158377836E0
1.177525283E1,-2.447883623E0,-5.451138128E0,-8.641015291E-3,5.975543138E0
1.178528283E1,1.499401510E-2,-2.544138148E0,1.433867379E-1,2.548219672E0
1.179531283E1,2.682784987E0,5.663542914E-1,2.861965017E-1,2.756809915E0
1.180534283E1,4.596849396E0,3.754782515E0,5.336022824E-3,5.935439712E0
1.181537283E1,5.356090468E0,6.455020271E0,-1.449559844E-1,8.389040710E0
1.182540283E1,5.259283381E0,8.520446289E0,-6.406794190E-1,1.003337116E1
1.183543383E1,4.364402109E0,1.006988535E1,-2.303310778E0,1.121409101E1
1.184546383E1,2.812326542E0,1.123589031E1,-4.220143697E0,1.232736892E1
1.185549383E1,1.287878045E0,1.212864788E1,-5.088740566E0,1.321582422E1
1.186552383E1,1.123236971E-1,1.273635719E1,-4.688155715E0,1.357225902E1
1.187555383E1,-8.704010269E-1,1.251676734E1,-3.576338357E0,1.304673364E1
1.188558483E1,-1.358933994E0,1.126466095E1,-2.187421302E0,1.155526287E1
1.189561483E1,-1.076265118E0,9.971308308E0,-1.081601579E0,1.008737815E1
1.190564483E1,-2.673744607E-1,9.023205094E0,-4.085437882E-1,9.036405662E0
1.191567483E1,8.755597329E-1,8.405154984E0,4.615008509E-1,8.463227410E0
1.192570483E1,2.091011095E0,8.236699625E0,1.506502368E0,8.630474929E0
1.193573583E1,3.036925111E0,8.317447334E0,2.373862112E0,9.167227804E0
1.194576583E1,3.902050488E0,8.253242567E0,3.056973752E0,9.627413952E0
1.195579583E1,4.590515985E0,8.031580469E0,3.469943590E0,9.880264690E0
1.196582583E1,4.970617454E0,7.862022910E0,3.557760583E0,9.958719921E0
1.197585583E1,4.929012176E0,8.247297118E0,3.736960201E0,1.030911938E1
1.198588683E1,4.504374804E0,8.930890422E0,3.762338287E0,1.068669198E1
1.199591683E1,3.911553675E0,9.270799593E0,3.335464647E0,1.060062742E1
1.200594683E1,3.129646457E0,9.089489130E0,2.497743416E0,9.932382482E0
1.201597683E1,2.299645304E0,8.180995540E0,1.450974870E0,8.621043129E0
1.202600683E1,1.709090849E0,7.063496150E0,5.425128543E-1,7.287543453E0
1.203603683E1,1.401349843E0,6.518218147E0,3.539682162E-1,6.676544218E0
1.204606783E1,1.003433077E0,6.545428165E0,2.943548293E-1,6.628435152E0
1.205609783E1,3.768004239E-1,6.568155708E0,-4.028206797E-1,6.591275481E0
1.206612783E1,-2.955293888E-1,5.799294212E0,-8.099728306E-1,5.863037350E0
1.207615783E1,1.112909326E-1,4.177636778E0,-9.288676286E-1,4.281101470E0
1.208618783E1,8.554210451E-1,1.043709283E0,7.096822648E-1,1.524704282E0
1.209621883E1,-2.674805877E-1,-1.965844427E0,-3.254652326E-1,2.010477007E0
1.210624883E1,1.707726109E-1,-4.623840728E0,8.078432746E-1,4.696985962E0
1.211627883E1,-1.416278954E0,-8.403904265E0,2.367754111E0,8.845208448E0
1.212630883E1,-5.958811517E0,-1.358847543E1,-1.735873582E0,1.493878698E1
1.213633883E1,-8.805143126E0,-2.026449648E1,-1.731880957E0,2.216257600E1
1.214636983E1,-1.098083945E1,-2.331532335E1,-2.959114459E0,2.594107739E1
1.215639983E1,-1.079363265E1,-2.271863370E1,-7.899915791E0,2.636375339E1
1.216642983E1,-6.167512677E0,-2.045192547E1,-4.422074074E0,2.181454119E1
1.217645983E1,-2.258684097E0,-1.791739137E1,-2.464414287E-1,1.806087763E1
1.218648983E1,-2.814630929E0,-1.742993239E1,-1.146292834E0,1.769289908E1
1.219651983E1,-3.057419310E0,-1.795277405E1,-6.925895378E-2,1.821138945E1
1.220655083E1,-2.681856157E0,-1.721009346E1,1.225369263E0,1.746084761E1
1.221658083E1,-2.612645881E0,-1.536321882E1,9.940746081E-1,1.561546014E1
1.222661083E1,-2.077399362E0,-1.275531503E1,-1.321470737E-1,1.292405170E1
1.223664083E1,-1.226575982E0,-9.351209918E0,-7.751922762E-1,9.463114637E0
1.224667083E1,3.505896950E-1,-5.931220261E0,-7.859322958E-1,5.993327664E0
1.225670183E1,1.378528160E0,-3.240569599E0,-4.365389411E-1,3.548548642E0
1.226673183E1,1.903073398E0,-1.050413700E0,-3.959499089E-1,2.209487187E0
1.227676183E1,1.617920770E0,1.075198878E0,-5.847285819E-1,2.028701003E0
1.228679183E1,1.100995039E0,3.321569324E0,-4.523826297E-1,3.528407983E0
1.229682183E1,1.215581170E0,5.531216916E0,-2.516513709E-1,5.668802922E0
1.230685283E1,1.853348091E0,7.506268369E0,-4.177717908E-1,7.742964371E0
1.231688283E1,2.775904820E0,9.244914554E0,-1.089859017E0,9.714004600E0
1.232691283E1,3.452085024E0,1.056817220E1,-2.108929303E0,1.131595058E1
1.233694283E1,3.617177942E0,1.180675866E1,-3.032433865E0,1.271531287E1
1.234697283E1,3.215344419E0,1.272219640E1,-3.594181720E0,1.360554531E1
1.235700383E1,2.233152084E0,1.299592795E1,-3.777157470E0,1.371670624E1
1.236703383E1,8.732470129E-1,1.239353844E1,-3.197820021E0,1.282920139E1
1.237706383E1,-1.059095939E-1,1.115526423E1,-2.312763240E0,1.139298076E1
1.238709383E1,-6.483193910E-1,1.004878859E1,-1.673467273E0,1.020778933E1
1.239712383E1,-7.704070611E-1,9.303191999E0,-1.220046031E0,9.414426202E0
1.240715383E1,-7.115500116E-1,8.833631346E0,-4.915332469E-1,8.875863400E0
1.241718483E1,-4.910041469E-1,8.421368728E0,6.309449744E-1,8.459233292E0
1.242721483E1,2.579353005E-2,8.069058198E0,1.929114558E0,8.296496157E0
1.243724483E1,6.253152752E-1,7.904522812E0,2.899406201E0,8.442692485E0
1.244727483E1,1.271807119E0,7.863295848E0,3.419845816E0,8.668578912E0
1.245730483E1,2.005029543E0,8.040275863E0,3.279134910E0,8.911728518E0
1.246733583E1,2.584069954E0,8.221425528E0,2.611108063E0,9.004839841E0
1.247736583E1,3.000448426E0,8.315846951E0,1.912471043E0,9.045084121E0
1.248739583E1,3.373042071E0,8.278114284E0,1.254851071E0,9.026585186E0
1.249742583E1,3.565875641E0,8.048199425E0,9.329337092E-1,8.852081585E0
1.250745583E1,3.293747979E0,7.303510904E0,7.235834353E-1,8.044477625E0
1.251748683E1,2.917132912E0,5.949160688E0,6.788278234E-1,6.660554371E0
1.252751683E1,2.458250152E0,4.676660382E0,7.601577692E-1,5.337788490E0
1.253754683E1,1.097263346E0,3.998880379E0,9.426775825E-1,4.252490113E0
1.254757683E1,-5.375359967E-1,3.299045849E0,1.413661302E0,3.629199187E0
1.255760683E1,-2.317909960E0,1.352812983E0,1.788198853E0,3.224975145E0
1.256763783E1,-3.546063813E0,-8.557090205E-1,1.277636647E0,3.865121201E0
1.257766783E1,-3.946449566E0,-2.814620989E0,-3.412551999E0,5.928074446E0
1.258769783E1,-3.201084814E0,-4.702312117E0,-5.200667968E0,7.707504819E0
1.259772783E1,-2.110220368E0,-8.236916556E0,-4.900256739E0,9.813885085E0
1.260775783E1,-3.146739914E0,-1.465487659E1,-9.066789654E0,1.751782106E1
1.261778783E1,-7.272731745E0,-2.172561042E1,-8.966114634E0,2.460256058E1
1.262781883E1,-9.504584724E0,-2.237639149E1,-6.824008230E0,2.525088346E1
1.263784883E1,-8.218180908E0,-2.087463472E1,-5.885089238E0,2.319317028E1
1.264787883E1,-7.473138630E0,-2.001796851E1,-6.143973541E0,2.223320209E1
1.265790883E1,-6.014118576E0,-1.970046237E1,-4.132317349E0,2.100842418E1
1.266793883E1,-5.604337517E0,-1.913581663E1,-2.593305923E0,2.010754368E1
1.267796983E1,-4.921526570E0,-1.739832936E1,-2.011975451E0,1.819261756E1
1.268799983E1,-3.880094778E0,-1.525540786E1,-1.971641211E0,1.586410960E1
1.269802983E1,-2.756113457E0,-1.266863357E1,-2.248483629E0,1.315849978E1
1.270805983E1,-1.748683516E0,-9.242210802E0,-1.782265099E0,9.573548111E0
1.271808983E1,-6.734714815E-1,-5.824478754E0,-1.091362629E0,5.963991028E0
1.272811983E1,5.250901982E-1,-3.204767683E0,-9.096864223E-1,3.372504263E0
1.273815083E1,1.737162454E0,-4.044700330E-1,-3.009608674E-1,1.808841299E0
1.274818083E1,2.731790794E0,2.369966551E0,7.272664502E-2,3.617279580E0
1.275821083E1,3.250275977E0,4.962336627E0,5.305297168E-1,5.955714945E0
1.276824083E1,3.815193608E0,7.376330373E0,1.038632803E0,8.369271781E0
1.277827083E1,4.121364052E0,9.530230027E0,1.314621309E0,1.046609551E1
1.278830183E1,4.202588017E0,1.144782732E1,1.221554686E0,1.225588399E1
1.279833183E1,4.109030228E0,1.287771830E1,9.642198944E-1,1.355173340E1
1.280836183E1,3.992909203E0,1.362079182E1,9.252247401E-1,1.422411103E1
1.281839183E1,3.590851146E0,1.361155322E1,1.160605649E0,1.412499906E1
1.282842183E1,2.626746734E0,1.263358068E1,1.571031071E0,1.299904988E1
1.283845283E1,2.011311499E0,1.136343680E1,2.134024383E0,1.173572025E1
1.284848283E1,1.998746125E0,1.033903502E1,2.387954925E0,1.079782200E1
1.285851283E1,2.499945185E0,9.291216316E0,2.006544557E0,9.828664590E0
1.286854283E1,3.141367493E0,8.415182959E0,1.545870502E0,9.114450590E0
1.287857308E1,3.567193019E0,7.886816273E0,1.318653549E0,8.755888541E0
1.288860408E1,3.448921680E0,7.485128345E0,1.143398463E0,8.320430707E0
1.289863408E1,2.880600386E0,7.329419332E0,1.338917660E0,7.988175437E0
1.290866408E1,1.851856174E0,7.288764811E0,1.710827472E0,7.712483024E0
1.291869408E1,1.023029435E0,7.048953540E0,1.184171170E0,7.220567609E0
1.292872408E1,6.380262449E-1,7.249882581E0,5.261593616E-1,7.296897875E0
1.293875508E1,8.413652158E-1,7.869848238E0,-4.455461383E-1,7.927226380E0
1.294878508E1,1.081244607E0,8.954327817E0,-1.208535495E0,9.099979923E0
1.295881508E1,1.042574631E0,9.130597395E0,-2.046975714E0,9.415141010E0
1.296884508E1,1.889578901E0,1.054533181E1,-2.032240877E0,1.090433557E1
1.297887508E1,9.745972404E-1,1.087500016E1,-1.976633856E0,1.109606010E1
1.298890508E1,-5.422623011E-1,1.054527450E1,-4.289086170E-1,1.056791490E1
1.299893608E1,-2.048061250E0,8.075795944E0,1.669492043E0,8.497072360E0
1.300896608E1,-2.308675160E0,4.170120183E0,2.351379130E0,5.314966335E0
1.301899608E1,-6.495832667E-1,2.268187577E0,-1.563428521E-2,2.359423178E0
1.302902608E1,2.503826859E0,2.207384135E0,-5.036801796E-1,3.375705465E0
1.303905608E1,4.838463948E0,1.057869485E0,2.817793103E0,5.698225970E0
1.304908708E1,2.866460356E0,-9.154248798E-1,1.928328692E0,3.573940295E0
1.305911708E1,-1.488505808E0,-2.969631261E0,-3.922718056E0,5.140240881E0
1.306914708E1,-4.486434961E0,-6.288951745E0,-8.472629514E0,1.146579538E1
1.307917708E1,-7.003468049E0,-1.009817768E1,-1.049752965E1,1.616229829E1
1.308920708E1,-1.141983553E1,-1.656813818E1,-1.512600430E1,2.517363407E1
1.309923808E1,-8.882464367E0,-1.979884995E1,-8.612287921E0,2.334660866E1
1.310926808E1,-5.670832053E0,-1.822170971E1,-2.009320522E0,1.918922640E1
1.311929808E1,-2.960972119E0,-1.519706551E1,1.883902717E-1,1.548398033E1
1.312932808E1,-2.014396490E0,-1.428015427E1,1.407905741E0,1.449009309E1
1.313935808E1,-2.697489857E0,-1.725009075E1,7.914852503E-1,1.747765806E1
1.314938808E1,-3.337579877E0,-1.989048050E1,6.761600313E-1,2.017988718E1
1.315941908E1,-4.145993694E0,-1.832532004E1,7.275971103E-1,1.880255343E1
1.316944908E1,-4.987983685E0,-1.533600471E1,-7.069304189E-1,1.614226664E1
1.317947908E1,-5.820864590E0,-1.401978945E1,-1.524743050E0,1.525653310E1
1.318950908E1,-6.190623797E0,-1.345354508E1,-1.451191217E0,1.488044537E1
1.319953908E1,-5.970391343E0,-1.233666141E1,-1.737786937E0,1.381516163E1
1.320957008E1,-4.634220413E0,-1.038521165E1,-1.563313039E0,1.147922330E1
1.321960008E1,-2.641117436E0,-7.785077645E0,-1.729279969E0,8.400794275E0
1.322963008E1,-9.150532892E-1,-4.984690533E0,-1.868932967E0,5.401608341E0
1.323966008E1,1.297304195E-1,-2.133309268E0,-1.441823831E0,2.578118379E0
1.324969008E1,9.402606359E-1,5.229065555E-1,-1.012852210E0,1.477630173E0
1.325972008E1,1.724405292E0,3.094861663E0,-4.067630187E-1,3.566118124E0
1.326975108E1,2.452075492E0,5.559278873E0,2.483476210E-1,6.081112756E0
1.327978108E1,3.112847698E0,7.779100036E0,8.319124608E-1,8.419993854E0
1.328981108E1,3.937389598E0,9.392722811E0,1.409817488E0,1.028172476E1
1.329984108E1,4.636864817E0,1.035179599E1,1.554672900E0,1.144889529E1
1.330987108E1,4.977583827E0,1.111569729E1,1.598814993E0,1.228378103E1
1.331990208E1,5.125417811E0,1.152187997E1,1.632444377E0,1.271567932E1
1.332993208E1,5.041744155E0,1.151387046E1,1.363139166E0,1.264304336E1
1.333996208E1,4.948734834E0,1.136148617E1,1.129306746E0,1.244382088E1
1.334999208E1,4.727463330E0,1.101907088E1,9.374688828E-1,1.202695641E1
1.336002208E1,4.605869896E0,1.044254009E1,8.478825223E-1,1.144463131E1
1.337005308E1,4.379017224E0,9.688147534E0,8.675770410E-1,1.066717790E1
1.338008308E1,3.887844385E0,9.186125479E0,5.912400413E-1,9.992487181E0
1.339011308E1,2.982778433E0,8.924460824E0,-5.809201442E-2,9.409906634E0
1.340014308E1,2.184482930E0,8.739842007E0,-3.595628321E-1,9.015879846E0
1.341017308E1,1.948217703E0,8.738824006E0,-4.445630752E-2,8.953467127E0
1.342020408E1,2.032456493E0,8.785414621E0,1.024233377E-1,9.018030827E0
1.343023408E1,2.171236648E0,8.773289250E0,-1.182331856E-1,9.038741722E0
1.344026408E1,2.481551599E0,8.868365561E0,-2.779309507E-1,9.213210714E0
1.345029408E1,2.780406299E0,9.093992071E0,-1.288716097E-1,9.510413181E0
1.346032408E1,3.014037648E0,9.357288684E0,6.578291564E-1,9.852716054E0
1.347035408E1,3.201852553E0,9.800196558E0,1.669355364E0,1.044425486E1
1.348038508E1,2.725350963E0,9.678881451E0,2.030259840E0,1.025817913E1
1.349041508E1,2.131880794E0,9.219527698E0,1.796222695E0,9.631771523E0
1.350044508E1,1.342580063E0,8.437131652E0,1.348511917E0,8.649057529E0
1.351047508E1,1.022421032E0,6.661954987E0,1.187306520E0,6.843733323E0
1.352050508E1,4.033906370E-1,4.223048594E0,5.115331364E-1,4.273000068E0
1.353053608E1,1.797685522E-1,1.621637553E0,-1.359948925E0,2.124025933E0
1.354056608E1,3.157993466E-1,-1.345451923E0,-2.952104524E0,3.259584517E0
1.355059608E1,-1.346363504E0,-5.754972317E0,-6.162103418E0,8.538379213E0
1.356062608E1,-5.046878010E0,-1.232613408E1,-1.054386182E1,1.698757137E1
1.357065608E1,-1.394690741E1,-1.691911028E1,-1.444500014E1,2.625700950E1
1.358068708E1,-2.053261003E1,-1.609722097E1,-8.103197751E0,2.731978059E1
1.359071708E1,-1.352800821E1,-1.656827968E1,2.327690159E0,2.151587876E1
1.360074708E1,-7.037981240E0,-1.731215895E1,4.866637588E-1,1.869440742E1
1.361077708E1,-3.645776966E0,-1.590386992E1,1.163307355E0,1.635781318E1
1.362080708E1,-1.915316590E0,-1.678893255E1,2.459112616E0,1.707582878E1
1.363083708E1,-2.261918192E0,-1.842326441E1,-3.393162632E-1,1.856469986E1
1.364086808E1,-3.290577326E0,-1.726196060E1,-2.235681735E0,1.771444201E1
1.365089808E1,-5.228408328E0,-1.492205458E1,-2.737362021E0,1.604671672E1
1.366092808E1,-6.749636325E0,-1.363832879E1,-2.564002894E0,1.543164650E1
1.367095808E1,-7.717626504E0,-1.326640378E1,-2.454836840E0,1.554301940E1
1.368098808E1,-8.132351384E0,-1.300042563E1,-1.453912511E0,1.540324859E1
1.369101908E1,-6.923227293E0,-1.113193150E1,-7.346181545E-1,1.312976157E1
1.370104908E1,-4.072389820E0,-7.919559512E0,-1.561363285E0,9.041108174E0
1.371107908E1,-8.320675582E-2,-4.843548102E0,-1.886151263E0,5.198504417E0
1.372110908E1,2.992392717E0,-1.598883698E0,-1.341228625E0,3.648251290E0
1.373113908E1,4.788391902E0,1.306677867E0,-6.663720846E-1,5.008009166E0
1.374117008E1,4.940227135E0,3.444897627E0,1.406708524E-2,6.022737060E0
1.375120008E1,4.763071996E0,5.563503487E0,3.092617209E-1,7.330420772E0
1.376123008E1,4.632549279E0,7.752851885E0,8.033546595E-1,9.067116624E0
1.377126008E1,4.344386213E0,9.782822142E0,1.380879764E0,1.079278136E1
1.378129008E1,4.096475963E0,1.117568387E1,1.577376469E0,1.200687894E1
1.379132008E1,3.965499210E0,1.194916642E1,1.389596793E0,1.266644155E1
1.380135108E1,3.951386370E0,1.230592025E1,1.323721915E0,1.299235803E1
1.381138108E1,3.450214792E0,1.218579856E1,1.220345482E0,1.272347876E1
1.382141108E1,2.738841074E0,1.149554177E1,1.277443542E0,1.188615132E1
1.383144108E1,2.329183099E0,1.081249109E1,1.121995314E0,1.111728074E1
1.384147108E1,1.905077239E0,1.023222744E1,4.292873704E-1,1.041691343E1
1.385150208E1,1.566977781E0,9.560750738E0,-3.674986367E-1,9.695278712E0
1.386153208E1,1.510452747E0,8.866473987E0,-8.599791690E-1,9.035230635E0
1.387156208E1,1.795906506E0,8.348993647E0,-7.188310377E-1,8.570162960E0
1.388159163E1,2.389068235E0,8.053918587E0,7.663247544E-2,8.401138267E0
1.389162162E1,2.983537109E0,7.908626388E0,9.809780145E-1,8.509417306E0
1.390165262E1,3.554373583E0,7.719577135E0,1.272384531E0,8.593276739E0
1.391168262E1,3.749575861E0,7.585789917E0,9.415093819E-1,8.514104047E0
1.392171263E1,4.343474632E0,7.656775115E0,2.892548878E-1,8.807703755E0
1.393174262E1,4.501552645E0,7.590430852E0,-5.222217735E-1,8.840324220E0
1.394177263E1,4.433465619E0,7.260999307E0,-8.848626530E-1,8.553403431E0
1.395180263E1,4.189197601E0,6.826514931E0,-5.456715202E-1,8.027978578E0
1.396183363E1,3.439448314E0,6.513017634E0,-1.878919427E-1,7.367802032E0
1.397186362E1,2.873784579E0,6.443064469E0,-7.609825189E-1,7.095830603E0
1.398189363E1,2.399968322E0,6.302163529E0,-1.634461813E0,6.938917676E0
1.399192363E1,1.624695062E0,5.816900178E0,-1.513871030E0,6.226376733E0
1.400195362E1,-6.594849417E-1,5.209255773E0,-8.376113033E-1,5.317222846E0
1.401198462E1,-2.619267853E0,3.581146522E0,-2.639433146E-2,4.436876284E0
1.402201463E1,-1.238383265E0,7.965667731E-1,7.877222747E-2,1.474556475E0
1.403204463E1,1.327136689E0,-2.480808125E0,-1.906799536E0,3.398762307E0
1.404207462E1,3.075541293E0,-7.358637283E0,-5.030544398E0,9.429468376E0
1.405210463E1,1.057118118E0,-1.492727498E1,-1.025158056E1,1.813934786E1
1.406213563E1,-7.588642189E0,-1.687300615E1,-1.236607641E1,2.225321713E1
1.407216563E1,-1.322484411E1,-1.326033905E1,-2.114641448E0,1.884687777E1
1.408219562E1,-1.263649259E1,-1.550108681E1,5.352528929E0,2.070299986E1
1.409222563E1,-1.021376661E1,-1.868066118E1,4.441614591E0,2.174893263E1
1.410225562E1,-7.036589602E0,-1.958698428E1,2.767473427E0,2.099577233E1
1.411228562E1,-5.757825758E0,-1.994896903E1,2.043031182E0,2.086355433E1
1.412231662E1,-5.839359334E0,-1.805993714E1,2.093423072E0,1.909559810E1
1.413234663E1,-6.650943511E0,-1.568529398E1,1.351985309E0,1.709068054E1
1.414237662E1,-7.478643783E0,-1.396238382E1,-1.143317771E-1,1.583955008E1
1.415240662E1,-7.660736019E0,-1.235013573E1,-7.284855947E-1,1.455140612E1
1.416243663E1,-7.656074034E0,-1.117904251E1,-1.184774238E0,1.360110845E1
1.417246763E1,-7.854361888E0,-9.771185013E0,-1.041383260E0,1.257980669E1
1.418249762E1,-7.394677767E0,-7.546126499E0,-3.173725399E-1,1.057005249E1
1.419252762E1,-6.136698436E0,-5.005710104E0,-6.208442017E-2,7.919599472E0
1.420255763E1,-3.930703014E0,-2.066721761E0,-5.819615333E-1,4.478888729E0
1.421258762E1,-1.436084350E0,1.209159758E0,-7.340511207E-1,2.015747164E0
1.422261763E1,8.307484263E-1,4.279908673E0,-6.009125054E-1,4.401006366E0
1.423264862E1,2.832911080E0,7.108872882E0,-5.028791110E-1,7.669051195E0
1.424267863E1,4.186333342E0,9.372207854E0,-5.535792947E-1,1.027959712E1
1.425270862E1,4.735896184E0,1.105051019E1,-1.008325442E0,1.206479210E1
1.426273863E1,5.024567374E0,1.222458198E1,-1.364279519E0,1.328713439E1
1.427276863E1,5.140414165E0,1.284272389E1,-1.526279991E0,1.391721758E1
1.428279963E1,4.936103094E0,1.299983155E1,-1.554352473E0,1.399202436E1
1.429282962E1,4.285090183E0,1.308028223E1,-1.869395775E0,1.389065951E1
1.430285963E1,3.492598042E0,1.271764142E1,-2.222462350E0,1.337445263E1
1.431288963E1,2.949036782E0,1.145742611E1,-2.103755686E0,1.201645618E1
1.432291962E1,2.819210176E0,1.006614313E1,-1.883976392E0,1.062189016E1
1.433295062E1,2.831491376E0,9.187127692E0,-1.478880122E0,9.726651276E0
1.434298063E1,2.771324696E0,8.518314979E0,-8.006825551E-1,8.993498941E0
1.435301063E1,2.464344412E0,7.947448391E0,1.965249912E-1,8.323073434E0
1.436304062E1,2.118645621E0,7.608001735E0,1.234290214E0,7.993361120E0
1.437307063E1,1.928074045E0,7.569887829E0,2.015427647E0,8.067379988E0
1.438310062E1,1.854566066E0,7.643760383E0,2.340279068E0,8.206302102E0
1.439313163E1,1.784309139E0,7.767258840E0,2.210267397E0,8.270390012E0
1.440316162E1,1.939633698E0,8.119298059E0,1.844471433E0,8.549108417E0
1.441319163E1,2.261476142E0,8.556449935E0,1.336076059E0,8.950542389E0
1.442322162E1,2.632585764E0,8.682028247E0,1.132973023E0,9.142852408E0
1.443325162E1,2.643468894E0,8.483527554E0,1.767321954E0,9.059889318E0
1.444328262E1,2.232526285E0,7.967472181E0,2.488716192E0,8.640514733E0
1.445331263E1,1.594615231E0,6.867134954E0,2.445392271E0,7.461922243E0
1.446334262E1,4.561284292E-1,5.118935003E0,1.835090160E0,5.457023420E0
1.447337262E1,-3.675665009E-1,3.136363446E0,1.138229378E0,3.356701791E0
1.448340263E1,-1.412306063E0,1.107348624E0,7.162030797E-1,1.932298176E0
1.449343363E1,-2.377668211E0,-1.253014460E0,-6.218958235E-1,2.758642016E0
1.450346362E1,-1.816422924E0,-3.258013013E0,-1.162536399E0,3.907112990E0
1.451349362E1,-6.419880259E-1,-4.897166485E0,-3.065242592E0,5.812925284E0
1.452352363E1,-1.456471252E0,-8.762666028E0,-4.470978724E0,9.944610358E0
1.453355362E1,-1.611660157E0,-1.603387223E1,-3.050624553E0,1.640087856E1
1.454358363E1,-2.748118851E0,-2.017567260E1,-3.302327014E0,2.062802186E1
1.455361462E1,-8.475009915E0,-2.047583357E1,-5.220252632E0,2.276700663E1
1.456364463E1,-1.345029403E1,-1.924261485E1,-7.362451422E0,2.460476228E1
1.457367462E1,-1.393807578E1,-1.827990120E1,-6.668462938E0,2.393518628E1
1.458370463E1,-1.002731996E1,-1.773343563E1,-2.149195569E0,2.048513916E1
1.459373463E1,-6.320012739E0,-1.836452796E1,-6.215941072E-2,1.942169693E1
1.460376563E1,-4.046344275E0,-1.892692017E1,-9.223935914E-1,1.937658430E1
1.461379562E1,-2.977163059E0,-1.699600584E1,-1.751632851E0,1.734346944E1
1.462382563E1,-2.338190442E0,-1.409990332E1,-1.712533690E0,1.439469276E1
1.463385563E1,-1.455982718E0,-1.155215568E1,-1.683322024E0,1.176459773E1
1.464388562E1,-5.283292633E-1,-8.940550607E0,-1.220422373E0,9.038916292E0
1.465391563E1,1.789353240E-1,-5.723404954E0,-3.350431180E-1,5.735994771E0
1.466394663E1,9.284074527E-1,-2.203985733E0,-3.182195091E-1,2.412624539E0
1.467397663E1,1.290214446E0,1.026274640E0,-4.075640872E-1,1.698234801E0
1.468400662E1,1.686717648E0,4.020468884E0,-1.552959082E-1,4.362717420E0
1.469403663E1,2.158844644E0,6.272048614E0,-3.721855089E-2,6.633293996E0
1.470406662E1,2.805157855E0,8.262760080E0,3.228097196E-1,8.731913928E0
1.471409763E1,3.393586847E0,1.007513849E1,5.396570742E-1,1.064500244E1
1.472412762E1,3.830520622E0,1.164821491E1,3.561901581E-1,1.226705630E1
1.473415763E1,3.953475288E0,1.280113615E1,7.363998011E-2,1.339792807E1
1.474418762E1,4.024212564E0,1.331371477E1,-4.570052192E-2,1.390867989E1
1.475421762E1,4.034319769E0,1.311163967E1,-1.277533297E-1,1.371886117E1
1.476424862E1,4.022819757E0,1.226306133E1,-4.766065478E-2,1.290612349E1
1.477427863E1,4.080572999E0,1.096330014E1,5.492684349E-1,1.171096587E1
1.478430862E1,4.115077710E0,9.732367687E0,1.551086365E0,1.067982745E1
1.479433862E1,4.077916608E0,8.745541872E0,2.545047098E0,9.979537626E0
1.480436863E1,3.924428659E0,7.964609385E0,3.218060743E0,9.444154695E0
1.481439862E1,3.739539408E0,7.611336402E0,3.593810129E0,9.210432566E0
1.482442962E1,3.529572034E0,7.707051229E0,3.797291772E0,9.288484387E0
1.483445962E1,3.303956341E0,8.052428716E0,3.830898060E0,9.509653815E0
1.484448963E1,3.113144445E0,8.520985987E0,3.732005563E0,9.809522723E0
1.485451962E1,2.889709178E0,8.996852862E0,3.518997052E0,1.008350737E1
1.486454963E1,2.477920185E0,9.138442605E0,3.219562308E0,1.000084012E1
1.487458062E1,2.042991714E0,9.040751418E0,2.880117698E0,9.705878595E0
1.488461096E1,1.685742625E0,8.820192690E0,2.476457504E0,9.315061409E0
1.489464096E1,1.296264853E0,8.234357230E0,1.922553251E0,8.554598328E0
1.490467096E1,8.321698844E-1,7.396953503E0,1.277303209E0,7.552412285E0
1.491470096E1,5.495739520E-1,6.344809027E0,7.144233334E-1,6.408512605E0
1.492473196E1,1.675651208E-1,5.135600737E0,6.011456631E-1,5.173378887E0
1.493476196E1,4.055859742E-1,4.443247134E0,3.408564198E-1,4.474721017E0
1.494479196E1,1.287363636E0,3.404019157E0,-4.398177673E-1,3.665800216E0
1.495482196E1,1.557342739E0,1.128233709E0,-2.319766158E0,3.013227960E0
1.496485196E1,1.622809043E0,-2.214990193E0,-4.060591601E0,4.901846070E0
1.497488196E1,4.597522411E-1,-7.519117041E0,-3.232108971E0,8.197256955E0
1.498491296E1,-3.044978189E0,-1.381753192E1,-4.071444910E0,1.472320428E1
1.499494296E1,-6.886305050E0,-2.104745503E1,-4.552194210E0,2.260838412E1
1.500497296E1,-1.209565555E1,-2.203596660E1,-4.940064583E0,2.561821510E1
1.501500296E1,-1.704070430E1,-2.044100755E1,-9.938424736E0,2.840761656E1
1.502503296E1,-1.663700551E1,-2.077451402E1,-1.132732556E1,2.892539869E1
1.503506396E1,-1.151288228E1,-2.152778275E1,-7.449825196E0,2.552433709E1
1.504509396E1,-5.340352687E0,-2.103682947E1,-2.756094161E0,2.187838239E1
1.505512396E1,-2.250218498E0,-1.917650156E1,-1.226979733E-2,1.930807722E1
1.506515396E1,-2.502747463E0,-1.625306915E1,2.479263583E0,1.663047653E1
1.507518396E1,-4.324605374E0,-1.340101487E1,3.146563036E0,1.442880002E1
1.508521396E1,-5.317259109E0,-1.057653021E1,3.605942517E0,1.237493665E1
1.509524496E1,-5.024276183E0,-7.089799849E0,3.520989783E0,9.375819010E0
1.510527496E1,-2.996107745E0,-2.771555661E0,3.700097015E0,5.508983602E0
1.511530496E1,-7.713208348E-2,1.167828714E0,3.429035300E0,3.623265979E0
1.512533496E1,2.387495919E0,4.289614466E0,2.968052220E0,5.736746727E0
1.513536496E1,4.537933728E0,7.223834404E0,3.326284518E0,9.156461911E0
1.514539596E1,5.734407660E0,9.662182388E0,3.472557588E0,1.176009591E1
1.515542596E1,5.433508773E0,1.099700115E1,2.335165239E0,1.248639454E1
1.516545596E1,4.906586350E0,1.106968204E1,1.006409894E0,1.215011568E1
1.517548596E1,5.056944577E0,1.074894589E1,-3.737622106E-1,1.188495790E1
1.518551596E1,5.442749712E0,1.054982715E1,-2.627325901E0,1.215833947E1
1.519554596E1,5.199241247E0,1.055777468E1,-7.341008513E0,1.387044058E1
1.520557696E1,4.343300677E0,1.117308654E1,-1.133068070E1,1.649504315E1
1.521560696E1,3.510836678E0,1.189057265E1,-9.639467125E0,1.570449039E1
1.522563696E1,2.406562812E0,1.164813890E1,-4.731610175E0,1.280073510E1
1.523566696E1,1.567863342E0,1.014110443E1,-1.262383746E0,1.033894614E1
1.524569696E1,1.537832919E0,8.455441039E0,1.541733743E0,8.731343320E0
1.525572796E1,1.629939137E0,7.513311925E0,3.961001239E0,8.648473188E0
1.526575796E1,1.887717732E0,7.023630418E0,5.545017514E0,9.145604503E0
1.527578796E1,2.367125681E0,6.852170175E0,6.312533566E0,9.612679133E0
1.528581796E1,3.048715729E0,6.743904884E0,6.322321220E0,9.733789924E0
1.529584796E1,3.527532817E0,6.674570940E0,5.884112753E0,9.571633502E0
1.530587796E1,4.241609118E0,6.886001580E0,5.361624273E0,9.703364392E0
1.531590896E1,4.921027218E0,7.320436839E0,5.339273876E0,1.031082683E1
1.532593896E1,4.816796506E0,7.694997779E0,5.050202737E0,1.038841023E1
1.533596896E1,4.267035736E0,7.778723475E0,4.473915195E0,9.936400256E0
1.534599896E1,3.455235212E0,7.266300393E0,3.760416014E0,8.881356899E0
1.535602896E1,2.278411725E0,6.036429797E0,2.705633275E0,6.996434528E0
1.536605996E1,1.522342183E0,4.084913971E0,1.213551017E0,4.525124744E0
1.537608996E1,1.513521074E0,1.477956846E0,-7.870220706E-2,2.116907300E0
1.538611996E1,1.582819642E0,-1.689026129E0,-1.221552055E-1,2.317983861E0
1.539614996E1,4.281530106E-1,-6.031825114E0,-5.579755238E-1,6.072690170E0
1.540617996E1,-8.818355495E-1,-1.152702903E1,-5.476284664E0,1.279217440E1
1.541621096E1,-3.830174467E0,-1.538648957E1,-1.048920088E1,1.901151316E1
1.542624096E1,-7.804928942E0,-1.435989625E1,-1.005474924E1,1.918909895E1
1.543627096E1,-1.003121888E1,-1.417781279E1,-9.824489400E0,1.995385476E1
1.544630096E1,-1.058679558E1,-1.534415105E1,-8.830187920E0,2.062754059E1
1.545633096E1,-8.607681484E0,-1.606696514E1,-2.071882514E0,1.834481525E1
1.546636096E1,-7.774535115E0,-1.836796846E1,9.526798296E-1,1.996830640E1
1.547639196E1,-7.454550916E0,-2.096579048E1,3.354512537E-1,2.225415079E1
1.548642196E1,-6.477709807E0,-2.122790946E1,8.647891617E-1,2.221109463E1
1.549645196E1,-6.589412091E0,-1.884637712E1,2.196734747E0,2.008561489E1
1.550648196E1,-6.216187824E0,-1.523333228E1,2.449369693E0,1.663414606E1
1.551651196E1,-5.549213476E0,-1.257598794E1,1.979085009E0,1.388762112E1
1.552654296E1,-4.980896859E0,-1.069009717E1,1.448866364E0,1.188220202E1
1.553657296E1,-3.981595425E0,-8.234727944E0,6.118758886E-1,9.167237236E0
1.554660296E1,-2.731472998E0,-4.941741564E0,-6.542568000E-1,5.684171565E0
1.555663296E1,-1.804931099E0,-1.195465579E0,-2.018556346E0,2.959980396E0
1.556666296E1,-6.504220498E-1,2.595700650E0,-2.375999562E0,3.578559015E0
1.557669296E1,1.273026556E-2,5.829519639E0,-2.495058374E0,6.341039156E0
1.558672396E1,4.689426023E-1,8.112916993E0,-2.027970947E0,8.375678806E0
1.559675396E1,1.068843539E0,9.624603503E0,-1.570296514E0,9.810262496E0
1.560678396E1,1.970281002E0,1.079016642E1,-1.572088248E0,1.108066605E1
1.561681396E1,3.005709751E0,1.194145629E1,-1.562176194E0,1.241261712E1
1.562684396E1,3.694732779E0,1.285124913E1,-1.869075347E0,1.350181829E1
1.563687496E1,4.140426560E0,1.343354761E1,-2.217218567E0,1.423093080E1
1.564690496E1,4.116732180E0,1.354841616E1,-2.641017741E0,1.440423684E1
1.565693496E1,3.870063002E0,1.282935247E1,-2.642383651E0,1.365839902E1
1.566696496E1,3.764161156E0,1.130316604E1,-1.560610163E0,1.201523931E1
1.567699496E1,3.877332553E0,1.044072044E1,-2.433834811E-1,1.114008916E1
1.568702596E1,3.818216326E0,1.023398628E1,7.965461616E-1,1.095206542E1
1.569705596E1,3.590849392E0,9.888928056E0,1.626178501E0,1.064563544E1
1.570708596E1,3.307808779E0,9.453725642E0,2.397301115E0,1.029862030E1
1.571711596E1,2.982750658E0,9.026577183E0,3.224627166E0,1.003863126E1
1.572714596E1,2.409775272E0,8.641871324E0,3.857741750E0,9.765814264E0
1.573717596E1,1.628892193E0,8.406039083E0,4.158170228E0,9.518674408E0
1.574720696E1,1.037597481E0,8.368391785E0,3.929491471E0,9.303090498E0
1.575723696E1,6.864543468E-1,8.598027731E0,3.385782276E0,9.266111485E0
1.576726696E1,8.532508510E-1,9.105085993E0,2.613977877E0,9.511230641E0
1.577729696E1,1.027375671E0,9.549701255E0,2.004737475E0,9.811792251E0
1.578732696E1,9.618380311E-1,9.650779148E0,1.455920445E0,9.807261336E0
1.579735796E1,7.344246116E-1,9.104432859E0,6.320150149E-1,9.155846230E0
1.580738796E1,-4.486042321E-2,7.755478454E0,-7.157927513E-2,7.755938506E0
1.581741796E1,-1.029991130E0,6.233016111E0,-1.705338983E-1,6.319845993E0
1.582744796E1,-1.254978832E0,4.606423042E0,9.682474566E-1,4.871509853E0
1.583747796E1,-9.233566278E-1,2.532004591E0,2.105587034E0,3.420106939E0
1.584750796E1,-4.477736351E-1,-7.145297527E-3,2.052235869E0,2.100529539E0
1.585753896E1,-1.119192159E-1,-2.949469476E0,2.742537099E0,4.029070097E0
1.586756896E1,-8.115941173E-1,-5.982894444E0,1.887690543E0,6.325905985E0
1.587759883E1,-2.336059717E0,-1.006204189E1,-4.620963898E-1,1.033999009E1
1.588762883E1,-4.456638720E0,-1.395092211E1,-2.710311924E0,1.489414808E1
1.589765883E1,-7.261923752E0,-1.657349773E1,-8.090718623E0,1.982110218E1
1.590768983E1,-1.291398858E1,-1.770214484E1,-1.589306427E1,2.706892175E1
1.591771983E1,-1.617708692E1,-1.711395471E1,-1.503263713E1,2.793860709E1
1.592774983E1,-1.400170752E1,-1.723227779E1,-8.243551977E0,2.368449621E1
1.593777983E1,-7.635420499E0,-2.113131112E1,-3.332022683E0,2.271418788E1
1.594780983E1,-4.809626358E0,-2.335372552E1,1.816164185E0,2.391291395E1
1.595783983E1,-5.260686128E0,-2.040321349E1,6.142185463E0,2.194749146E1
1.596787083E1,-5.539716429E0,-1.700595663E1,5.356861716E0,1.867048437E1
1.597790083E1,-3.969357787E0,-1.350910533E1,3.398837940E0,1.448460656E1
1.598793083E1,-1.497621325E0,-1.079935123E1,5.718880963E-1,1.091768806E1
1.599796083E1,1.121947075E0,-8.167774401E0,-2.061747973E0,8.498359171E0
1.600799083E1,1.933594402E0,-6.225788952E0,-1.902722419E0,6.791140404E0
1.601802183E1,1.192646344E0,-4.361020079E0,-4.056726591E-1,4.539325031E0
1.602805183E1,-9.574286458E-1,-2.380380442E0,-2.231262410E-1,2.575396276E0
1.603808183E1,-2.866346628E0,-9.682813704E-2,-4.100840910E-1,2.897151643E0
1.604811183E1,-2.086747598E0,3.135441924E0,-3.035406590E-1,3.778577580E0
1.605814183E1,2.048972538E-1,7.379852736E0,-6.024456453E-1,7.407236330E0
1.606817183E1,3.756258937E0,1.047278657E1,-3.444525744E0,1.164703814E1
1.607820283E1,7.943895038E0,1.161208614E1,-6.890144917E0,1.566589001E1
1.608823283E1,1.056822366E1,1.309435297E1,-7.962140690E0,1.861572226E1
1.609826283E1,1.053464544E1,1.454108042E1,-5.444595094E0,1.876340561E1
1.610829283E1,8.591220403E0,1.405356998E1,-1.611252898E0,1.655016716E1
1.611832283E1,6.394596899E0,1.197093327E1,7.645257854E-1,1.359332971E1
1.612835383E1,4.479739315E0,9.896992536E0,2.152068890E0,1.107474271E1
1.613838383E1,2.529968591E0,8.558943188E0,3.416454431E0,9.556589896E0
1.614841383E1,1.131254380E0,8.220205799E0,3.824881275E0,9.136806697E0
1.615844383E1,4.983213526E-1,8.445175082E0,3.620316435E0,9.201956174E0
1.616847383E1,1.071420407E-1,8.710802395E0,3.843367832E0,9.521608796E0
1.617850483E1,4.132148364E-1,8.646932089E0,4.029491723E0,9.548664021E0
1.618853483E1,8.609250292E-1,8.491879717E0,4.169153638E0,9.499213393E0
1.619856483E1,9.658267093E-1,8.592783363E0,3.846428264E0,9.463813056E0
1.620859483E1,7.186994022E-1,8.888443730E0,3.175931554E0,9.466123917E0
1.621862483E1,7.149068981E-2,8.816627058E0,2.564490552E0,9.182300114E0
1.622865483E1,-1.144980427E0,8.600835564E0,1.017283376E0,8.736144347E0
1.623868583E1,-2.051634483E0,8.484399374E0,-4.766825616E-1,8.741937031E0
1.624871583E1,-1.217792295E0,8.056669702E0,8.401279449E-3,8.148190924E0
1.625874583E1,4.772740075E-1,7.151702567E0,8.347027521E-1,7.216049388E0
1.626877583E1,1.021307430E0,6.886478128E0,1.275645962E0,7.077706019E0
1.627880583E1,1.121327270E0,6.923134907E0,1.670405378E0,7.209537150E0
1.628883683E1,9.544129443E-1,5.916697531E0,1.426474013E0,6.160604017E0
1.629886683E1,1.187675334E0,3.422832574E0,1.773480680E0,4.033805802E0
1.630889683E1,2.487795840E0,4.959567386E-1,2.170252854E0,3.338427576E0
1.631892683E1,4.215700106E0,-2.079804906E0,6.047272289E-1,4.739558086E0
1.632895683E1,2.888576280E0,-5.176903129E0,-4.670835385E0,7.547244672E0
1.633898683E1,-6.823425847E-1,-9.807815480E0,-1.094497613E1,1.471228529E1
1.634901783E1,-4.832260345E0,-1.448913609E1,-8.119457688E0,1.729772811E1
1.635904783E1,-8.554695185E0,-1.467452791E1,-1.660835825E0,1.706701365E1
1.636907783E1,-7.766827315E0,-1.413496089E1,3.283554528E0,1.645911468E1
1.637910783E1,-6.988034323E0,-1.787208481E1,5.577597615E-1,1.919778985E1
1.638913783E1,-6.303609545E0,-2.262342700E1,-3.821751845E-1,2.348831625E1
1.639916883E1,-4.332237745E0,-2.538788063E1,1.043792898E0,2.577600183E1
1.640919883E1,-2.875741349E0,-2.637626824E1,-1.145275419E0,2.655727904E1
1.641922883E1,-2.127453282E0,-2.342837108E1,-2.751849667E0,2.368517058E1
1.642925883E1,-2.680180637E0,-1.755721341E1,-4.155372043E0,1.824023651E1
1.643928883E1,-3.699216717E0,-1.349423703E1,-5.680113924E0,1.510107054E1
1.644931883E1,-4.032969939E0,-1.048110365E1,-5.989348601E0,1.272755581E1
1.645934983E1,-3.516338907E0,-7.742054417E0,-4.647328409E0,9.690289327E0
1.646937983E1,-2.148267908E0,-5.466384158E0,-3.265283733E0,6.720006594E0
1.647940983E1,-2.013517946E-2,-2.657558929E0,-3.030127723E0,4.030471301E0
1.648943983E1,1.997963475E0,6.092482960E-1,-2.876651761E0,3.555019956E0
1.649946983E1,3.040522318E0,3.541531636E0,-2.217899183E0,5.167813763E0
1.650950083E1,3.321171713E0,6.062272151E0,-1.478006548E0,7.068651111E0
1.651953083E1,3.250156986E0,8.071557298E0,-3.335308819E-1,8.707743709E0
1.652956083E1,2.940140828E0,9.652819827E0,7.872960126E-1,1.012132371E1
1.653959083E1,2.499897530E0,1.069479483E1,1.459958678E0,1.107969329E1
1.654962083E1,1.855496651E0,1.125330800E1,2.083715086E0,1.159403628E1
1.655965083E1,1.251642119E0,1.170756298E1,2.622216604E0,1.206273845E1
1.656968183E1,9.728103313E-1,1.217137582E1,2.781981246E0,1.252310541E1
1.657971183E1,9.845009619E-1,1.259551881E1,2.532739002E0,1.288530571E1
1.658974183E1,1.534695011E0,1.235166068E1,2.299623377E0,1.265729347E1
1.659977183E1,2.570589783E0,1.102249969E1,2.273516729E0,1.154436267E1
1.660980183E1,3.827303191E0,9.297519615E0,2.543157570E0,1.037110270E1
1.661983283E1,4.714999698E0,8.147941815E0,3.200063013E0,9.942865847E0
1.662986283E1,4.730895061E0,7.746048650E0,3.610935162E0,9.768392422E0
1.663989283E1,4.014290716E0,7.607828073E0,3.408161910E0,9.252521037E0
1.664992283E1,2.978413194E0,7.255014097E0,2.738164551E0,8.306847766E0
1.665995283E1,2.160888246E0,6.628253975E0,1.770206093E0,7.192831041E0
1.666998283E1,1.890735773E0,6.769024522E0,1.515479014E0,7.189662815E0
1.668001383E1,1.491124484E0,7.135277739E0,1.341076744E0,7.411756031E0
1.669004383E1,1.483423993E0,7.699540481E0,1.097927005E0,7.917633110E0
1.670007383E1,1.297908213E0,8.158949198E0,5.981982279E-1,8.283167200E0
1.671010383E1,1.017188652E0,8.409012977E0,-7.133456916E-3,8.470314214E0
1.672013383E1,1.015873905E0,8.258061258E0,-6.016761518E-1,8.342037504E0
1.673016483E1,1.055567144E0,7.963452221E0,-9.825599787E-1,8.092973333E0
1.674019483E1,9.180707449E-1,7.262421935E0,-1.640843318E0,7.501865971E0
