"Time (s)","Linear Acceleration x (m/s^2)","Linear Acceleration y (m/s^2)","Linear Acceleration z (m/s^2)","Absolute acceleration (m/s^2)"
8.984750006E-3,-1.233904882E0,-3.667237417E0,1.133430129E-1,3.870916968E0
1.903375001E-2,-1.563117449E0,-2.736844835E0,-6.064958654E-2,3.152353753E0
2.908275000E-2,-1.210431820E0,-1.878308685E0,-4.868790094E-1,2.286971770E0
3.913175000E-2,-5.068237889E-1,-1.149734505E0,-1.012483982E0,1.613655353E0
4.918075001E-2,2.786198258E-4,-2.369911587E-1,-1.623477672E0,1.640684198E0
5.922975001E-2,3.041002375E-1,-4.418448508E-2,-1.496399549E0,1.527625882E0
6.927875000E-2,2.596359631E-1,3.004211694E-1,-1.434073493E0,1.488029064E0
7.932775001E-2,1.277227780E-1,7.120072639E-1,-8.448928410E-1,1.112255081E0
8.937675001E-2,3.682965258E-1,8.412488562E-1,-3.127547014E-1,9.701327085E-1
9.942575000E-2,4.467556348E-1,1.128412634E0,8.023923540E-1,1.454901769E0
1.094747083E-1,4.915134394E-1,1.660549019E0,8.387585270E-1,1.924194474E0
1.195237083E-1,6.576568097E-2,1.611479770E0,-2.168065337E-1,1.627328254E0
1.295727083E-1,-8.971494073E-1,1.095976374E0,-3.336807168E-1,1.455123394E0
1.396217083E-1,-1.627110254E0,5.857097447E-1,-7.758195363E-2,1.731058244E0
1.496707083E-1,-2.012928547E0,1.880037707E-1,7.338964619E-2,2.023020710E0
1.597197083E-1,-2.244987871E0,-1.463341731E-1,4.468370573E-1,2.293697362E0
1.697687083E-1,-2.185270550E0,-3.796509415E-1,8.870189600E-1,2.388795690E0
1.798167083E-1,-1.611421883E0,-5.144602525E-1,1.338046424E0,2.156784196E0
1.898657083E-1,-1.085855429E0,-4.437592292E-1,1.753514485E0,2.109696024E0
1.999147083E-1,-7.753194532E-1,-2.131315953E-1,1.857385594E0,2.023963086E0
2.099637083E-1,-5.421362936E-1,1.000365043E-1,1.649697464E0,1.739373676E0
2.200127083E-1,-4.250501856E-1,3.748696733E-1,1.391194106E0,1.502203706E0
2.300617083E-1,-3.955533215E-1,4.473546821E-1,1.180341317E0,1.322797893E0
2.401107083E-1,-3.089537188E-1,5.270762050E-1,8.672299357E-1,1.060824909E0
2.501597083E-1,-1.730436695E-1,5.519157618E-1,5.777529998E-1,8.175289894E-1
2.602087083E-1,-1.453588575E-1,5.201893544E-1,4.046928120E-1,6.749092042E-1
2.702577083E-1,-1.068678063E-1,5.510141212E-1,3.116156638E-1,6.419825634E-1
2.803067083E-1,-1.195714670E-1,5.551814318E-1,2.395053153E-1,6.163493765E-1
2.903557083E-1,-2.553151631E-1,4.042092472E-1,2.171747987E-1,5.251055525E-1
3.004047083E-1,-3.321545935E-1,1.985386992E-1,1.543863007E-1,4.166286342E-1
3.104537083E-1,-3.325346625E-1,2.633702874E-2,1.914137207E-2,3.341247267E-1
3.205027083E-1,-3.325592208E-1,-1.135108280E-1,-1.059620726E-1,3.670262991E-1
3.305517083E-1,-3.505674756E-1,-2.112341738E-1,-2.549679116E-1,4.822095676E-1
3.406007083E-1,-3.245935589E-1,-2.611892760E-1,-3.391374115E-1,5.372103873E-1
3.506497083E-1,-3.026051044E-1,-3.049521768E-1,-2.499357978E-1,4.970247302E-1
3.606987083E-1,-1.165101573E-1,-3.116197568E-1,-1.988369802E-1,3.875791975E-1
3.707477083E-1,-2.005887330E-3,-3.268418133E-1,-2.113090547E-1,3.892057439E-1
3.807967083E-1,1.820080358E-1,-3.439449191E-1,-2.192542513E-1,4.466513844E-1
3.908457083E-1,3.917456147E-1,-3.470199698E-1,-1.844281983E-1,5.548884991E-1
4.008947083E-1,5.561321890E-1,-3.711771566E-1,-1.188820803E-1,6.791085644E-1
4.109437083E-1,7.716283983E-1,-3.988982213E-1,-1.152672951E-1,8.762515194E-1
4.209927083E-1,1.076745467E0,-4.310140532E-1,-9.331922293E-2,1.163555925E0
4.310417083E-1,1.340337071E0,-3.633775556E-1,-1.077969289E-1,1.392898736E0
4.410907083E-1,1.549910782E0,-1.914208835E-1,-2.814008347E-1,1.586837048E0
4.511397083E-1,1.800088727E0,-3.195503354E-2,-4.175895039E-1,1.848167077E0
4.611887083E-1,2.050241092E0,6.949064970E-2,-3.659235064E-1,2.083798814E0
4.712377083E-1,1.910759563E0,1.353776604E-1,-2.539703035E-1,1.932312121E0
4.812867083E-1,1.360670471E0,1.303174800E-1,-1.730027390E-1,1.377801410E0
4.913357083E-1,1.040994128E0,6.946843028E-2,-2.966630543E-1,1.084667509E0
5.013847083E-1,7.526237780E-1,-4.920256555E-2,-3.284544754E-1,8.226456017E-1
5.114337083E-1,4.362844411E-1,-1.444145322E-1,-1.443490434E-1,4.817014811E-1
5.214827083E-1,2.241283076E-1,-1.593284404E-1,1.769392307E-1,3.269962409E-1
5.315317083E-1,1.094283020E-1,-1.687325174E-1,3.971089733E-1,4.451300398E-1
5.415807083E-1,3.237734869E-2,-5.847508013E-2,4.268186029E-1,4.320205406E-1
5.516297083E-1,-1.589261520E-1,2.314889288E-1,3.901906208E-1,4.807217142E-1
5.616787083E-1,-2.202273376E-1,5.136498284E-1,2.816206169E-1,6.258165852E-1
5.717277083E-1,-1.458998711E-1,6.495759577E-1,1.170660082E-1,6.759734813E-1
5.817767083E-1,-1.683584417E-1,5.790790021E-1,8.963087238E-2,6.096808582E-1
5.918257083E-1,-1.256274283E-1,4.477786052E-1,2.339997232E-1,5.206186709E-1
6.018747083E-1,1.083372116E-1,3.439846802E-1,3.930264473E-1,5.334155977E-1
6.119237083E-1,3.330986264E-1,1.783020705E-1,2.600562318E-1,4.586671636E-1
6.219727083E-1,4.998094690E-1,1.259121877E-1,5.691343501E-2,5.185581196E-1
6.320217083E-1,7.582821286E-1,1.245749295E-1,-1.969015519E-1,7.932722866E-1
6.420707083E-1,8.145111470E-1,-7.513438225E-2,-4.732759738E-1,9.450204926E-1
6.521197083E-1,8.129258206E-1,-1.955975497E-1,-7.594060365E-1,1.129515082E0
6.621687083E-1,7.456335779E-1,9.669423580E-2,-1.092221292E0,1.325996440E0
6.722177083E-1,5.293324994E-1,4.974834466E-1,-1.081233205E0,1.302592767E0
6.822667083E-1,4.846938318E-1,5.702660787E-1,-8.953864717E-1,1.166982624E0
6.923157083E-1,4.867853808E-1,4.325968945E-1,-8.554101547E-1,1.075093769E0
7.023647083E-1,5.893978760E-1,2.803927016E-1,-1.042717595E0,1.230150359E0
7.124137083E-1,8.780996172E-1,1.786008632E-1,-1.414712777E0,1.674625166E0
7.224627083E-1,9.084896435E-1,3.870739818E-2,-1.668245709E0,1.899972484E0
7.325117083E-1,8.047521441E-1,-1.188353026E-1,-1.937459704E0,2.101308627E0
7.425597083E-1,3.793271519E-1,-1.947421020E-1,-1.880387371E0,1.928126095E0
7.526087083E-1,1.566395983E-2,-1.645710540E-1,-1.346338946E0,1.356450349E0
7.626577083E-1,-1.422231419E-1,-1.890761501E-1,-8.405945528E-1,8.732562137E-1
7.727067083E-1,-2.720001930E-1,-3.229686177E-1,-5.871411431E-1,7.232064400E-1
7.827557083E-1,-4.568007128E-1,-4.502227414E-1,-4.855867016E-1,8.044637051E-1
7.928047083E-1,-6.552312385E-1,-4.561465555E-1,-4.822374165E-1,9.327114140E-1
8.028537083E-1,-8.937021813E-1,-4.520903420E-1,-5.387682974E-1,1.137260104E0
8.129027083E-1,-1.041622996E0,-4.883033180E-1,-6.176016283E-1,1.305699187E0
8.229517083E-1,-1.076751460E0,-4.967695016E-1,-6.117438877E-1,1.334317889E0
8.330007083E-1,-1.149715794E0,-5.086241466E-1,-5.736492777E-1,1.381889440E0
8.430497083E-1,-1.324218636E0,-5.872943401E-1,-5.391869581E-1,1.545701205E0
8.530987083E-1,-1.337580986E0,-6.181816721E-1,-4.659517515E-1,1.545439261E0
8.631477083E-1,-1.085230507E0,-5.232977343E-1,-5.001836908E-1,1.304511210E0
8.731967083E-1,-1.034416449E0,-3.770261264E-1,-6.666223454E-1,1.287070877E0
8.832457083E-1,-1.274572706E0,-3.073787713E-1,-8.494893372E-1,1.562257797E0
8.932947083E-1,-1.425811231E0,-3.050129879E-1,-8.649739337E-1,1.695331972E0
9.033437083E-1,-1.639607508E0,-4.130543303E-1,-7.175340521E-1,1.836785719E0
9.133927083E-1,-1.649640600E0,-4.361806530E-1,-4.446000588E-1,1.763302833E0
9.234417083E-1,-1.561423072E0,-4.874496245E-1,-2.562799537E-1,1.655695794E0
9.334907083E-1,-1.506263364E0,-5.744094157E-1,-1.845708704E-1,1.622603434E0
9.435397083E-1,-1.554182611E0,-5.592744827E-1,-1.427726340E-1,1.657906982E0
9.535887083E-1,-1.651748667E0,-6.132776123E-1,-1.457851195E-1,1.767946942E0
9.636377083E-1,-1.533469581E0,-7.078054547E-1,-2.449036109E-1,1.706603438E0
9.736867083E-1,-1.127557186E0,-7.474448991E-1,-5.152753178E-1,1.447607591E0
9.837357083E-1,-9.342627083E-1,-6.826595038E-1,-6.874758554E-1,1.345917478E0
9.937847083E-1,-9.368981946E-1,-5.594276798E-1,-8.913986707E-1,1.409017085E0
1.003833708E0,-9.025305998E-1,-4.814573979E-1,-1.375637004E0,1.714275321E0
1.013882708E0,-7.418741105E-1,-4.191827971E-1,-2.254244306E0,2.409918838E0
1.023931708E0,-3.959101479E-1,-9.556806207E-2,-2.046872803E0,2.086999370E0
1.033980708E0,1.166132145E-1,9.593819082E-2,-5.663390887E-1,5.861251928E-1
1.044029708E0,4.728329010E-1,-9.690005779E-3,-2.918871582E-1,5.557544076E-1
1.054078708E0,6.861365506E-1,-4.710879457E-1,-1.055783783E0,1.344390797E0
1.064127708E0,5.481700355E-1,-5.744842601E-1,-2.126589063E0,2.270000792E0
1.074176708E0,3.196212329E-1,-5.608427060E-1,-2.432595493E0,2.516788252E0
1.084225708E0,8.976382345E-2,-6.173086828E-1,-2.432289099E0,2.511007331E0
1.094274708E0,-2.058572204E-1,-8.064392120E-1,-2.304673033E0,2.450354910E0
1.104323708E0,-7.491008306E-1,-9.585802549E-1,-1.956124016E0,2.303573165E0
1.114372875E0,-1.108386212E0,-8.064245939E-1,-1.642452471E0,2.139273414E0
1.124421875E0,-1.094920075E0,-4.302018750E-1,-1.486000276E0,1.895289013E0
1.134470875E0,-8.999243496E-1,1.664702296E-2,-1.461600430E0,1.716512970E0
1.144519875E0,-8.871794660E-1,3.433116657E-1,-1.606694409E0,1.867195016E0
1.154568875E0,-1.087722445E0,6.364507127E-1,-1.824150020E0,2.217145219E0
1.164617875E0,-1.408446170E0,7.844647908E-1,-2.069716705E0,2.623515363E0
1.174666875E0,-1.791775595E0,7.720435506E-1,-2.288931744E0,3.007610273E0
1.184715875E0,-2.189770567E0,6.558079201E-1,-2.393612106E0,3.309767074E0
1.194764875E0,-2.415071242E0,5.453996247E-1,-2.334061139E0,3.402627110E0
1.204813875E0,-2.529765108E0,3.454599327E-1,-2.232325433E0,3.391508647E0
1.214862875E0,-2.556822513E0,-3.662111163E-3,-2.170026274E0,3.353560616E0
1.224911875E0,-2.531919514E0,-4.258784437E-1,-2.113162687E0,3.325273736E0
1.234960875E0,-2.678575869E0,-6.478633082E-1,-1.997088439E0,3.403359779E0
1.245009875E0,-2.864701806E0,-3.841608989E-1,-1.791393333E0,3.400468513E0
1.255058875E0,-2.977197558E0,2.641169769E-1,-1.368029192E0,3.287090955E0
1.265107875E0,-3.070637233E0,9.220211238E-1,-9.904481649E-1,3.355580954E0
1.275156875E0,-3.210369315E0,1.128141323E0,-8.040190494E-1,3.496515496E0
1.285205875E0,-2.922522583E0,8.957677102E-1,-6.961654025E-1,3.134993510E0
1.295254875E0,-2.661460192E0,6.870788294E-1,-4.831741405E-1,2.790860964E0
1.305302875E0,-2.303147202E0,7.312814409E-1,-4.288529223E-1,2.454215640E0
1.315351875E0,-1.334711465E0,6.578316414E-1,-4.822777623E-1,1.564221533E0
1.325400875E0,-3.257184170E-1,5.187100089E-1,-5.489073694E-1,8.224669359E-1
1.335449875E0,3.994825043E-1,5.122704703E-1,-5.801525509E-1,8.709674439E-1
1.345498875E0,9.388662212E-1,2.138285834E-1,-2.497217166E-1,9.947629768E-1
1.355547875E0,1.631376529E0,-4.950077355E-1,1.364400629E-1,1.710274226E0
1.365596875E0,2.276290356E0,-1.398124811E0,4.385527953E-1,2.707134892E0
1.375645875E0,2.760740066E0,-2.117496643E0,8.339930463E-1,3.577851611E0
1.385694875E0,3.299984912E0,-2.576308944E0,1.090207511E0,4.326178523E0
1.395743875E0,3.877682801E0,-2.792837772E0,1.337502633E0,4.962386525E0
1.405792875E0,4.483810146E0,-2.555599276E0,1.603430639E0,5.404315951E0
1.415841875E0,4.861334748E0,-1.482990714E0,1.993827009E0,5.459595510E0
1.425890875E0,2.851505810E0,2.469068670E-1,2.420503013E0,3.748450776E0
1.435939875E0,8.450893074E-1,1.829539399E0,1.819026836E0,2.714820248E0
1.445988875E0,-9.770194495E-1,3.461196156E0,6.822811890E-1,3.660594686E0
1.456037875E0,-3.085570437E0,4.685625917E0,-2.214220700E-1,5.614700606E0
1.466086875E0,-4.719552047E0,5.037863358E0,-4.288366963E-1,6.916512101E0
1.476135875E0,-5.602621359E0,4.505652713E0,2.550369819E-1,7.194116786E0
1.486184875E0,-6.036875939E0,3.495003002E0,8.199388249E-1,7.023618495E0
1.496233875E0,-5.997362795E0,1.855720891E0,1.517213298E0,6.458637373E0
1.506282875E0,-4.557779763E0,4.657494378E-1,2.016914009E0,5.005818717E0
1.516331875E0,-1.783364814E0,-1.457646543E-1,1.960343075E0,2.654163213E0
1.526380875E0,-1.331827911E0,-9.458602220E-1,2.558034056E0,3.035120323E0
1.536429875E0,-2.571985513E-1,-1.242225178E0,2.236723709E0,2.571421288E0
1.546478875E0,5.215000078E-1,-1.166496719E0,1.429324092E0,1.917196968E0
1.556527875E0,6.228606141E-1,-1.043170170E0,1.002948343E0,1.575456989E0
1.566576875E0,9.124068394E-1,-9.171579945E-1,6.474195045E-1,1.446657196E0
1.576625875E0,9.181201538E-1,-8.930177647E-1,4.730341914E-1,1.365352222E0
1.586674875E0,8.115341833E-1,-9.270567459E-1,6.526018918E-1,1.394242149E0
1.596723875E0,5.986399850E-1,-9.965532428E-1,4.274292715E-1,1.238621806E0
1.606772875E0,2.959840098E-1,-1.187605167E0,2.906031096E-1,1.257959751E0
1.616821875E0,4.028912848E-1,-1.297024698E0,3.686458969E-1,1.407300342E0
1.626870875E0,1.962082914E-1,-1.341243682E0,1.909864354E-1,1.368907640E0
1.636919875E0,1.636752605E-1,-1.507677074E0,2.022771165E-1,1.529965942E0
1.646968875E0,2.355197069E-1,-1.415143717E0,4.575235748E-1,1.505798490E0
1.657017875E0,3.925826436E-1,-1.292949774E0,5.236263478E-1,1.449146232E0
1.667066875E0,7.344073623E-1,-1.335412254E0,8.170410910E-1,1.729229946E0
1.677115875E0,6.212625700E-1,-1.488288876E0,8.604613450E-1,1.827940012E0
1.687164875E0,3.229089761E-1,-1.761654979E0,8.068564108E-1,1.964361408E0
1.697213875E0,7.710226268E-2,-1.876528793E0,7.607063842E-1,2.026321611E0
1.707262875E0,-4.193652302E-2,-1.892831415E0,7.334595287E-1,2.030402009E0
1.717311875E0,-7.910785764E-2,-1.897044334E0,7.091014901E-1,2.026785677E0
1.727360875E0,-2.124053711E-1,-1.888275849E0,6.771733537E-1,2.017242047E0
1.737409875E0,-3.087595913E-1,-2.069355932E0,5.027713761E-1,2.151823765E0
1.747458875E0,-4.453561038E-1,-2.379411559E0,3.648346817E-1,2.448069805E0
1.757507875E0,-6.964682883E-1,-2.201527564E0,2.522842589E-1,2.322808438E0
1.767556875E0,-1.145409320E0,-1.643714300E0,-8.816431761E-3,2.003456249E0
1.777605875E0,-1.306048706E0,-1.286059415E0,-2.683928995E-1,1.852497447E0
1.787654875E0,-1.741468052E0,2.194185215E-1,-5.229211736E-1,1.831475366E0
1.797703875E0,-3.220016052E0,1.361330037E0,-6.720906615E-2,3.496604053E0
1.807752875E0,-2.280703249E0,2.244295269E0,-9.797462985E-2,3.201260313E0
1.817801875E0,-7.999818394E-1,2.635471072E0,-5.005716535E-1,2.799330401E0
1.827850875E0,-4.724731511E-1,2.735588268E0,-1.126711679E-1,2.778375216E0
1.837898875E0,4.974887091E-1,2.202243848E0,-2.375090759E-1,2.270194604E0
1.847947875E0,6.779571730E-1,9.761470449E-1,-9.417336957E-1,1.516361215E0
1.857996875E0,8.916536093E-2,-2.702553838E-1,-1.209854407E0,1.242874137E0
1.868045875E0,5.119082353E-1,-7.341875070E-1,-1.668439837E0,1.893349631E0
1.878094875E0,1.123202180E0,-6.820174795E-1,-1.916320996E0,2.323578520E0
1.888143875E0,9.341947344E-1,-5.220674801E-1,-1.889414156E0,2.171441942E0
1.898192875E0,7.265019268E-2,-1.568848890E-1,-1.601275355E0,1.610581784E0
1.908241875E0,-3.697989678E-1,1.162783152E-1,-1.932102485E0,1.970606996E0
1.918290875E0,-8.990254864E-1,2.662669981E-1,-1.804130031E0,2.033231444E0
1.928339875E0,-1.192615061E0,2.001683182E-1,-1.067362293E0,1.612966306E0
1.938388875E0,-1.392100425E0,2.704658836E-1,-2.953361383E-1,1.448557497E0
1.948437875E0,-1.725560117E0,2.113733375E-1,4.522084558E-1,1.796309798E0
1.958486875E0,-1.464837156E0,4.366244566E-1,8.862313400E-1,1.766860152E0
1.968535875E0,-1.176840151E0,1.631922805E0,1.199720013E0,2.342531300E0
1.978584875E0,-1.461147856E0,4.108570052E0,1.351714583E0,4.565351382E0
1.988633875E0,-1.753456598E0,6.323061478E0,1.329728468E0,6.695064920E0
1.998682875E0,-1.583009092E0,6.894125116E0,5.958314212E-1,7.098583943E0
2.008731875E0,-1.278430260E0,5.376089115E0,-2.202786469E-1,5.530392462E0
2.018780875E0,-1.201275665E0,2.850996518E0,-4.670521975E-1,3.128798830E0
2.028829875E0,-1.448619027E0,7.050116551E-1,-6.419456336E-1,1.734252783E0
2.038878875E0,-1.228195661E0,-5.670869476E-1,-5.154982795E-1,1.447684587E0
2.048927875E0,-1.223215295E0,-8.923026502E-1,-1.842668152E-1,1.525258646E0
2.058976875E0,-1.204177346E0,-1.302990612E0,-5.949805051E-2,1.775209180E0
2.069025875E0,-4.851545924E-1,-1.810310830E0,-5.754698083E-2,1.875076514E0
2.079074875E0,5.923878497E-1,-2.057870831E0,1.486868003E-1,2.146593461E0
2.089123875E0,1.375496964E0,-2.170746651E0,4.656022342E-1,2.611688795E0
2.099172875E0,1.764875918E0,-2.258416879E0,4.872495036E-1,2.907343441E0
2.109221875E0,2.163832904E0,-2.098074532E0,5.551941495E-1,3.064690868E0
2.119270708E0,2.585124791E0,-1.519989556E0,5.993827276E-1,3.058185425E0
2.129319708E0,2.655815582E0,-2.750465924E-1,3.639786494E-1,2.694714733E0
2.139368708E0,2.532627027E0,1.044050760E0,-1.155390809E-1,2.741822556E0
2.149417708E0,2.610190343E0,2.052733467E0,-8.398880629E-1,3.425232879E0
2.159466708E0,3.160242305E0,2.637381942E0,-1.591023725E0,4.412966284E0
2.169515708E0,4.425566031E0,2.840927612E0,-2.749968910E0,5.934545762E0
2.179564708E0,5.303174336E0,2.349291381E0,-3.266525974E0,6.656802534E0
2.189613708E0,5.567077889E0,1.101655190E0,-2.797859945E0,6.327244318E0
2.199662708E0,5.705614800E0,-1.512089968E-3,-2.265908186E0,6.139086450E0
2.209711708E0,5.848498532E0,-2.716838586E-1,-1.733878366E0,6.106151110E0
2.219760708E0,5.469811796E0,1.699352896E-1,-9.489330069E-1,5.554114955E0
2.229809708E0,4.572383184E0,7.769066799E-1,-1.313811616E-1,4.639777256E0
2.239858708E0,3.418797410E0,1.121474327E0,4.277717721E-1,3.623378132E0
2.249907708E0,2.732650042E0,9.651536947E-1,3.461458111E-1,2.918683750E0
2.259956708E0,2.225437706E0,6.292802721E-1,-4.013528824E-2,2.313045068E0
2.270005708E0,1.729234799E0,2.873122966E-1,-4.593888001E-1,1.812136699E0
2.280054708E0,1.154698499E0,8.590319932E-2,-6.947416055E-1,1.350323621E0
2.290103708E0,4.853381950E-1,-1.411611414E-1,-7.877673713E-1,9.359791999E-1
2.300152708E0,-2.571278000E-1,-4.013382643E-1,-7.149086523E-1,8.592330819E-1
2.310201708E0,-1.114862004E0,-4.091355264E-1,-5.403014374E-1,1.304697210E0
2.320250708E0,-1.754243048E0,-4.554957604E-1,-4.802598516E-1,1.874965223E0
2.330298708E0,-1.784923389E0,-8.415710378E-1,-3.684611249E-1,2.007475259E0
2.340347708E0,-1.896243265E0,-1.009043480E0,6.046262182E-2,2.148851552E0
2.350396708E0,-2.085326432E0,-7.105103767E-1,2.894910057E-1,2.221984781E0
2.360445708E0,-2.334798034E0,-4.254755706E-1,2.782689929E-2,2.373412239E0
2.370494708E0,-1.959735256E0,-3.219260591E-1,-6.136372161E-1,2.078641214E0
2.380543708E0,-8.854330489E-1,-5.193023318E-1,-1.021101608E0,1.447865702E0
2.390592708E0,3.453624304E-1,-9.230291837E-1,-2.535317624E-1,1.017613108E0
2.400641708E0,2.033126876E0,-9.447264469E-1,1.093584936E0,2.494401925E0
2.410690708E0,1.924309023E0,-4.600846553E-1,1.832478648E0,2.696779765E0
2.420739708E0,9.676036781E-1,2.725749743E-1,1.173189003E0,1.544968100E0
2.430788708E0,1.761412904E0,6.622421962E-1,1.323216716E0,2.300444006E0
2.440837708E0,1.837634138E0,6.423470449E-1,2.626072258E0,3.268908756E0
2.450886708E0,8.467081091E-1,3.075167656E-2,3.080377525E0,3.194774794E0
2.460935708E0,-1.135923967E-2,-8.500103241E-1,1.362939191E0,1.606315605E0
2.470984708E0,-2.988090920E-1,-1.085002905E0,-6.870397262E-1,1.318537736E0
2.481033708E0,-7.017430615E-1,-1.294122725E0,-2.381519480E0,2.799791418E0
2.491082708E0,-1.206498544E0,-1.681637587E0,-3.080909622E0,3.711542511E0
2.501131708E0,-1.882564435E0,-1.965390099E0,-2.566962755E0,3.741136843E0
2.511180708E0,-2.052708617E0,-1.847586830E0,-1.645135174E0,3.214600986E0
2.521229708E0,-1.398081980E0,-1.559224373E0,-1.167024722E0,2.397448763E0
2.531278708E0,-3.892352588E-1,-1.026825448E0,-1.003324903E0,1.487459394E0
2.541327708E0,8.112562944E-1,-1.208932886E0,-1.588597276E0,2.154831038E0
2.551376708E0,1.247934253E0,-2.101027375E0,-2.589024299E0,3.560154878E0
2.561425708E0,9.242822421E-1,-2.619939698E0,-3.257178615E0,4.281073956E0
2.571474708E0,-2.506265733E-1,-2.305716761E0,-3.327895426E0,4.056356916E0
2.581523708E0,-1.294294341E0,-1.555067003E0,-2.963156639E0,3.587997839E0
2.591572708E0,-2.270076373E0,-5.776271385E-1,-2.412900317E0,3.362883850E0
2.601621708E0,-2.859651274E0,1.126641512E-2,-1.737175026E0,3.345969129E0
2.611670708E0,-2.993057545E0,2.843120903E-1,-1.456358401E0,3.340689544E0
2.621719708E0,-3.392697194E0,4.386739057E-1,-1.953112115E0,3.939222763E0
2.631768708E0,-3.942846219E0,6.854310840E-1,-2.571044696E0,4.756692434E0
2.641817708E0,-4.578706071E0,1.229867088E0,-2.937445847E0,5.577249361E0
2.651866708E0,-4.560642852E0,1.440640501E0,-2.898898662E0,5.592720423E0
2.661915708E0,-3.562233118E0,1.387691624E0,-2.896144039E0,4.796127931E0
2.671964708E0,-2.778196929E0,1.089318150E0,-3.095614784E0,4.299746864E0
2.682013708E0,-2.520678535E0,5.823832637E-1,-3.412704027E0,4.282468834E0
2.692062708E0,-1.978104138E0,-3.357056075E-1,-3.402978938E0,3.950425279E0
2.702111708E0,-1.191862817E0,-1.198396788E0,-3.054634573E0,3.491057750E0
2.712160708E0,-8.682075901E-1,-1.885338793E0,-2.566325408E0,3.300653403E0
2.722209708E0,-7.248401481E-1,-2.239756660E0,-1.941420608E0,3.051395928E0
2.732258708E0,-2.820978959E-1,-2.248509357E0,-9.851155043E-1,2.470996987E0
2.742307708E0,-4.540158302E-2,-2.341875942E0,-2.738484979E-1,2.358269966E0
2.752356708E0,1.861056183E-1,-2.648205138E0,-7.753419376E-4,2.654736589E0
2.762405708E0,5.210526958E-1,-2.872415453E0,2.270965187E-1,2.928111896E0
2.772454708E0,7.320181900E-1,-2.589409046E0,7.761640835E-1,2.800592888E0
2.782503708E0,-1.846201332E-1,-1.356905449E0,1.403448701E0,1.960853194E0
2.792552708E0,-5.525286962E-1,6.673526627E-1,1.975928535E0,2.157531254E0
2.802601708E0,-6.581342348E-1,2.856948398E0,2.134620799E0,3.626554946E0
2.812649708E0,-1.644848076E-1,4.225097458E0,2.112238827E0,4.726526912E0
2.822698708E0,9.984459865E-1,5.333153595E0,2.428174413E0,5.944363098E0
2.832747708E0,3.008999979E0,6.020558115E0,2.872397912E0,7.317914365E0
2.842796708E0,5.559701627E0,6.528960652E0,4.465517132E-1,8.587026133E0
2.852845708E0,6.245683519E0,7.124519446E0,-4.790119462E-1,9.486663924E0
2.862894708E0,8.352022505E-1,6.292487556E0,5.157339223E-1,6.368590419E0
2.872943708E0,-1.276091812E0,5.063195835E0,2.430333498E0,5.759416922E0
2.882992708E0,-1.245831887E0,4.645900519E0,4.371849707E0,6.499966045E0
2.893041708E0,-1.626327166E0,4.079414665E0,5.337817919E0,6.912225705E0
2.903090708E0,-2.544000154E0,3.450845999E0,4.900774510E0,6.511364349E0
2.913139708E0,-3.328192172E0,2.884511003E0,4.051625773E0,5.984391219E0
2.923188708E0,-4.511932915E0,1.945328302E0,3.028507752E0,5.771802148E0
2.933237708E0,-5.386265609E0,8.812771404E-1,2.414898603E0,5.968269588E0
2.943286708E0,-6.034533545E0,-1.532461667E-1,2.397023957E0,6.494982936E0
2.953335708E0,-6.017652633E0,-1.188508562E0,2.212283517E0,6.520651361E0
2.963384708E0,-2.551945935E0,-2.102996718E0,2.003774438E0,3.866540476E0
2.973433708E0,-3.178859255E-1,-2.021176629E0,1.542333229E0,2.562225247E0
2.983482708E0,3.647037041E-1,-1.648990828E0,1.727926193E0,2.416176415E0
2.993531708E0,1.367352377E0,-1.084750305E0,1.150514816E0,2.090459301E0
3.003580708E0,1.375564207E0,-4.562330943E-1,9.958243874E-1,1.758406021E0
3.013629708E0,1.633738658E0,-1.109830767E0,5.220861912E-1,2.042890189E0
3.023678708E0,1.714958822E0,-1.878863001E0,-1.964199606E-1,2.551429157E0
3.033727708E0,1.549668853E0,-1.750337693E0,-6.033160034E-1,2.414362399E0
3.043776708E0,1.360462310E0,-1.391050850E0,-1.153380244E0,2.261894372E0
3.053825708E0,1.360423426E0,-7.055823433E-1,-1.577632577E0,2.199436949E0
3.063874708E0,2.388480298E0,-3.564410037E-1,-7.828647003E-1,2.538654262E0
3.073923708E0,3.200895072E0,-5.780428755E-1,3.746047944E-1,3.274170365E0
3.083972708E0,3.091020627E0,-8.997935182E-1,8.744028613E-1,3.335958222E0
3.094021708E0,2.631486487E0,-1.233840855E0,8.408433518E-1,3.025574645E0
3.104070708E0,1.928014112E0,-1.634436523E0,7.523708859E-1,2.637173319E0
3.114120333E0,1.370421288E0,-1.922020715E0,8.725709286E-1,2.516664094E0
3.124169333E0,1.001390644E0,-2.317045156E0,8.627426362E-1,2.667546876E0
3.134218333E0,9.581364512E-1,-2.803753354E0,8.690070507E-1,3.087755104E0
3.144267333E0,7.684252936E-1,-3.165149873E0,7.787096688E-1,3.348886367E0
3.154316333E0,3.577613050E-1,-3.779005190E0,1.086359751E0,3.948297214E0
3.164365333E0,5.685475820E-1,-4.643025443E0,1.413952931E0,4.886736591E0
3.174414333E0,1.149264389E0,-6.384136814E0,1.372744094E0,6.630417623E0
3.184463333E0,1.186885375E-1,-7.278410561E0,3.640271813E-1,7.288474673E0
3.194512333E0,-1.583989086E0,-3.376564141E0,-3.060201707E-1,3.742172520E0
3.204561333E0,-6.763219991E-1,-6.935101819E-1,3.143483600E-1,1.018421676E0
3.214610333E0,-1.040793861E0,-1.183283490E0,1.231001447E0,1.999694037E0
3.224659333E0,-1.428925312E0,-9.062926984E-1,2.677085998E0,3.167014911E0
3.234708333E0,-2.638003794E0,8.436456299E-1,3.206884082E0,4.237323150E0
3.244757333E0,-2.005777110E0,1.503054850E0,1.668127303E0,3.010807930E0
3.254806333E0,-1.720413398E0,1.745389779E0,-2.506233573E-2,2.450884710E0
3.264855333E0,-2.857477279E0,2.223399074E0,-1.036439440E-1,3.622074255E0
3.274903333E0,-2.822542212E0,2.145834004E0,-3.679629421E-1,3.564652134E0
3.284952333E0,-2.198830536E0,2.143325549E0,-3.422585821E-1,3.089634456E0
3.295001333E0,-2.317184905E0,2.202653738E0,-4.904340434E-1,3.234432705E0
3.305050333E0,-2.571254026E0,2.579733074E0,-1.437583869E0,3.915739698E0
3.315099333E0,-2.113174089E0,2.701132965E0,-2.749567207E0,4.395650560E0
3.325148333E0,-1.370385620E0,1.989081847E0,-3.185835568E0,3.997993448E0
3.335197333E0,-1.059191248E0,9.797214478E-1,-2.871166780E0,3.213306536E0
3.345246333E0,-1.864780275E0,1.344251490E-1,-2.218236275E0,2.901042531E0
3.355295333E0,-2.926355725E0,-9.567372125E-1,-6.595647562E-1,3.148639324E0
3.365344333E0,-4.014662014E0,-1.216586307E0,1.040795323E0,4.322134685E0
3.375393333E0,-4.427988532E0,-1.016440793E0,1.742934241E0,4.866010080E0
3.385442333E0,-3.360997976E0,-4.390282470E-1,1.028828119E0,3.542250767E0
3.395491333E0,-2.122369128E0,1.090370064E0,1.347832909E-1,2.389879521E0
3.405540333E0,-5.778838313E-1,3.461486177E0,2.347057745E-1,3.517232304E0
3.415589333E0,1.627616331E-1,6.521252267E0,1.735028513E0,6.750077513E0
3.425638333E0,2.889027393E-1,9.428723533E0,2.127690386E0,9.670127126E0
3.435687333E0,4.337113738E-1,9.696914265E0,7.706153682E-1,9.737150500E0
3.445736333E0,5.421360013E-1,7.143804733E0,-3.079646623E-1,7.170962261E0
3.455785333E0,-2.296634281E-1,1.587914321E0,-1.005733371E0,1.893598901E0
3.465834333E0,3.907203054E-1,-1.351368136E0,-7.541346985E-1,1.596113197E0
3.475883333E0,1.571921894E0,-1.740711422E0,-9.156976524E-1,2.517839726E0
3.485932333E0,1.910588239E0,-1.293200034E0,-3.998940021E-1,2.341501433E0
3.495981333E0,2.588173822E0,-1.823930749E0,8.298277822E-1,3.273221847E0
3.506030333E0,2.942199633E0,-2.126310151E0,1.956221518E0,4.123655680E0
3.516079333E0,2.336380437E0,-1.783045263E0,2.394514770E0,3.790992606E0
3.526128333E0,2.056619527E0,-6.046477067E-1,2.303433423E0,3.146599476E0
3.536177333E0,2.092288712E0,5.318200511E-1,2.262341823E0,3.127090524E0
3.546226333E0,1.763493928E0,1.840659633E0,2.195878569E0,3.364494228E0
3.556275333E0,1.248789847E0,3.336307815E0,2.027698906E0,4.099022905E0
3.566324333E0,9.266603047E-1,4.364610854E0,2.021402332E0,4.898427770E0
3.576373333E0,8.926365262E-1,4.266179411E0,1.631197458E0,4.653804023E0
3.586422333E0,7.584049201E-1,2.642535093E0,8.146475333E-1,2.867371679E0
3.596471333E0,8.502322260E-1,9.883004826E-1,-6.025123036E-1,1.436194192E0
3.606520333E0,1.439939712E0,-2.661026913E-1,-1.194617733E0,1.889801192E0
3.616569333E0,2.245765843E0,-1.165006848E0,-5.063615665E-1,2.580137054E0
3.626618333E0,2.537043429E0,-1.850031551E0,1.328171647E-1,3.142745058E0
3.636667333E0,2.600861987E0,-1.791718438E0,3.931957242E-1,3.182662552E0
3.646716333E0,2.586364986E0,-1.061010025E0,3.528525674E-1,2.817717347E0
3.656765333E0,2.606640206E0,-4.069328803E-1,-1.085931735E-1,2.640446934E0
3.666814333E0,2.895736488E0,3.968189514E-1,-6.327179964E-1,2.990499482E0
3.676863333E0,3.043479548E0,1.192384096E0,-1.026520662E0,3.426119125E0
3.686912333E0,3.024922532E0,1.691873723E0,-1.230600328E0,3.677902960E0
3.696961333E0,3.315419514E0,1.940084519E0,-8.866296816E-1,3.942340255E0
3.707010333E0,3.821827859E0,1.634627143E0,-7.459211147E-1,4.223123534E0
3.717058333E0,4.074232570E0,8.492800069E-1,-3.992081237E-1,4.180910749E0
3.727107333E0,3.693197593E0,6.023099899E-2,-4.412860031E-1,3.719955587E0
3.737156333E0,2.215424057E0,-2.303674328E-1,-2.116937649E-1,2.237406346E0
3.747205333E0,1.759324571E0,-2.852833128E-1,-2.174298835E-1,1.795518106E0
3.757254333E0,1.225971380E0,-4.211480463E-1,-1.550598999E-1,1.305532487E0
3.767303333E0,5.972261283E-1,-6.381475747E-1,-1.513507918E-2,8.741512718E-1
3.777352333E0,1.999011004E-1,-1.080133343E0,-6.104504105E-1,1.256701314E0
3.787401333E0,5.750619650E-2,-7.943536019E-1,-1.073454215E0,1.336640774E0
3.797450333E0,4.277822971E-3,-6.887569803E-1,-1.525380981E0,1.673676078E0
3.807499333E0,-8.276909173E-2,-9.341944420E-1,-1.486097925E0,1.757286835E0
3.817548333E0,-4.027348718E-1,-1.184450009E0,-1.231359443E0,1.755381235E0
3.827597333E0,-5.083446497E-1,-1.162614752E0,-1.581125850E0,2.027324912E0
3.837646333E0,-8.977797371E-1,-8.322985232E-1,-1.835594190E0,2.206385125E0
3.847695333E0,-1.571678358E0,-6.812824845E-1,-7.841196589E-1,1.883922059E0
3.857744333E0,-1.360835947E0,-5.361662865E-1,2.168357040E0,2.615553673E0
3.867793333E0,-1.450067674E0,-1.468580836E-1,4.000786572E0,4.257999148E0
3.877842333E0,-1.448549445E0,-4.474774736E-1,2.929561461E0,3.298615155E0
3.887891333E0,-6.476392137E-1,-8.647394603E-1,1.786778126E0,2.088010286E0
3.897940333E0,1.663227336E-1,-8.539548558E-1,5.939076141E-1,1.053389008E0
3.907989333E0,5.381943932E-1,-5.067594695E-1,-5.070798969E-1,8.964309157E-1
3.918038333E0,1.145400842E-1,-4.640478981E-1,-1.337683897E0,1.420513320E0
3.928087333E0,-3.863892728E-1,-6.361659533E-1,-1.795513866E0,1.943675341E0
3.938136333E0,-4.209048021E-1,-9.187560385E-1,-1.684053072E0,1.964003121E0
3.948185333E0,-1.030761793E-1,-1.232895945E0,-1.383690959E0,1.856140561E0
3.958234333E0,7.091561615E-2,-1.529454444E0,-1.336179993E0,2.032150805E0
3.968283333E0,5.928000784E-1,-1.827910364E0,-1.260649170E0,2.298239448E0
3.978332333E0,1.457934957E0,-2.248133381E0,-1.213607150E0,2.941516675E0
3.988381333E0,1.641185964E0,-2.513389395E0,-1.668512342E0,3.434319592E0
3.998430333E0,1.062899552E0,-2.655746877E0,-2.546131464E0,3.829560336E0
4.008479333E0,-5.044661915E-1,-2.735287136E0,-2.794765599E0,3.942967995E0
4.018528333E0,-1.898828612E0,-2.040088279E0,-2.998918210E0,4.094022558E0
4.028577333E0,-2.211503645E0,-1.068534222E0,-3.146296111E0,3.991452489E0
4.038626333E0,-2.031253282E0,-3.068876052E-1,-3.091452736E0,3.711771803E0
4.048675333E0,-1.624787302E0,5.521689463E-1,-2.721185406E0,3.217090974E0
4.058724333E0,-1.325651497E0,1.733968998E0,-2.152594555E0,3.065560910E0
4.068773333E0,-1.208628100E0,2.470277290E0,-1.754882149E0,3.262309478E0
4.078822333E0,-1.364515600E0,2.349622334E0,-2.070476843E0,3.416065323E0
4.088871333E0,-1.899414064E0,1.722913082E0,-3.463369566E0,4.309423630E0
4.098920333E0,-2.470210631E0,8.664193654E-1,-4.544666505E0,5.244675083E0
4.108969333E0,-2.564108144E0,1.421990222E-1,-5.077691082E0,5.690150953E0
4.119017458E0,-2.704963476E0,-2.585369790E-1,-5.113119362E0,5.790307279E0
4.129065458E0,-3.017053349E0,-4.224040282E-1,-4.819773324E0,5.701863815E0
4.139114458E0,-3.214603869E0,-5.026979935E-1,-3.827793773E0,5.023782288E0
4.149163458E0,-3.395973096E0,-5.391682470E-1,-2.603532411E0,4.312970749E0
4.159212458E0,-3.425031127E0,-4.983114123E-1,-1.888926060E0,3.942993044E0
4.169261458E0,-3.248290263E0,-6.024321967E-1,-1.804405142E0,3.764331561E0
4.179310458E0,-3.025021350E0,-9.115715647E-1,-1.729380103E0,3.601731865E0
4.189359458E0,-2.612538877E0,-1.107444518E0,-1.170949373E0,3.069676722E0
4.199408458E0,-2.167052673E0,-1.374314949E0,-5.623688293E-1,2.626997824E0
4.209457458E0,-9.690673824E-1,-1.688170681E0,9.721286556E-2,1.948964387E0
4.219506458E0,2.169930965E-2,-1.624055377E0,6.811918527E-1,1.761263486E0
4.229555458E0,1.011022470E0,-1.197935443E0,1.105459388E0,1.918138739E0
4.239604458E0,7.238358888E-1,-2.384289891E-1,1.454524130E0,1.642080150E0
4.249653458E0,4.641052008E-2,9.216287756E-1,1.234383477E0,1.541186590E0
4.259702458E0,8.298456162E-2,1.320930455E0,5.309190317E-1,1.426050042E0
4.269751458E0,1.037341665E0,1.180520681E0,1.575028666E-1,1.579403039E0
4.279800458E0,2.732807332E0,1.075194785E0,7.415626732E-1,3.028893352E0
4.289849458E0,4.904664077E0,1.207855829E0,3.042623515E-1,5.060357793E0
4.299898458E0,6.346850874E0,2.200999560E0,-2.001794279E-1,6.720638875E0
4.309947458E0,7.189258649E0,4.075987027E0,3.261316690E-1,8.270760064E0
4.319996458E0,4.005748519E0,6.103897895E0,8.645693064E-1,7.351943334E0
4.330045458E0,9.029143234E-1,7.765051516E0,1.780439890E0,8.017558576E0
4.340094458E0,-1.455364667E-1,7.830554364E0,2.013715728E0,8.086644146E0
4.350143458E0,-6.575639851E-1,6.087738529E0,2.100824039E0,6.473516234E0
4.360192458E0,-1.512222700E0,4.219398177E0,3.266265773E0,5.546046391E0
4.370241458E0,-2.501609010E0,3.104853385E0,4.160221724E0,5.762430648E0
4.380290458E0,-3.268907545E0,1.964669722E0,3.941787873E0,5.484831382E0
4.390339458E0,-4.147749320E0,1.164758341E0,3.715158565E0,5.688839036E0
4.400388458E0,-5.020440409E0,4.449742806E-1,2.712163445E0,5.723517674E0
4.410437458E0,-3.068877221E0,-3.828002518E-1,2.367926750E0,3.895076447E0
4.420486458E0,-9.757856870E-1,-8.367558557E-1,1.898802592E0,2.292982632E0
4.430535458E0,-7.530485782E-1,-1.234215077E0,1.543390405E0,2.114810384E0
4.440584458E0,2.636772662E-1,-1.473998281E0,1.189902830E0,1.912606959E0
4.450633458E0,3.827590290E-1,-1.421351706E0,1.175735027E0,1.883904987E0
4.460682458E0,1.460169616E-1,-1.108112855E0,1.659985640E0,2.001196486E0
4.470731458E0,6.334084064E-1,-1.153022979E0,1.774834603E0,2.209232009E0
4.480780458E0,1.047558213E0,-1.414137411E0,9.187200782E-1,1.985247946E0
4.490829458E0,1.651792229E0,-1.853786048E0,-6.158044866E-1,2.558154695E0
4.500878458E0,1.652094530E0,-2.087629650E0,-1.901372735E0,3.271518328E0
4.510927458E0,1.180027760E0,-2.418468620E0,-2.401484067E0,3.606741147E0
4.520976458E0,1.608968683E0,-2.444015105E0,-2.103181782E0,3.603521010E0
4.531025458E0,2.387017032E0,-2.017228589E0,-8.115115254E-1,3.228871699E0
4.541074458E0,3.029994407E0,-1.995510276E0,3.156560898E-1,3.641780627E0
4.551122458E0,3.807101354E0,-2.074767530E0,2.604550119E-1,4.343560502E0
4.561171458E0,4.110616577E0,-2.069654725E0,7.117026240E-2,4.602793123E0
4.571220458E0,3.880868365E0,-2.060930679E0,1.334571424E-1,4.396178492E0
4.581269458E0,3.789841835E0,-2.118785369E0,1.166519523E-1,4.343473294E0
4.591318458E0,3.526121299E0,-2.136414725E0,1.307875961E-2,4.122859487E0
4.601367458E0,3.450219178E0,-2.126904228E0,8.307051569E-2,4.053965303E0
4.611416458E0,3.582397242E0,-2.183138655E0,1.325856149E-1,4.197289998E0
4.621465458E0,3.185693188E0,-2.574579923E0,5.274510115E-2,4.096325782E0
4.631514458E0,3.005608886E0,-4.620406659E0,-1.206719130E-1,5.513293406E0
4.641563458E0,2.496128415E0,-5.552513645E0,-1.239562064E0,6.212694983E0
4.651612458E0,7.238776964E-1,-2.863834080E0,-2.502614731E0,3.871514568E0
4.661661458E0,-2.813915522E0,-5.864400619E-1,-1.370556651E0,3.184408587E0
4.671710458E0,-2.147728210E0,6.007587236E-1,9.114011183E-1,2.409211387E0
4.681759458E0,-1.721133482E0,1.660213974E0,2.743340507E0,3.639303235E0
4.691808458E0,-2.527190871E0,2.853031933E0,3.290781394E0,5.035447060E0
4.701857458E0,-2.822971690E0,3.642529423E0,2.266351843E0,5.135517543E0
4.711906458E0,-3.175151243E0,4.297308818E0,-5.153472751E-2,5.343323340E0
4.721955458E0,-3.441146053E0,3.046555476E0,-1.171248751E0,4.742869391E0
4.732004458E0,-3.425381960E0,2.565607370E0,-1.518974772E0,4.541240701E0
4.742053458E0,-3.867166584E0,3.036878334E0,-3.123109269E0,5.825068147E0
4.752102458E0,-3.645840701E0,3.162226265E0,-3.743531595E0,6.107852173E0
4.762151458E0,-2.786632999E0,1.967353009E0,-2.834386917E0,4.435036700E0
4.772200458E0,-2.716168788E0,4.437463653E-1,-2.119701920E0,3.473848004E0
4.782249458E0,-3.146096428E0,-1.261186529E0,-1.175047102E0,3.587373676E0
4.792298458E0,-2.940287009E0,-1.578188063E0,-3.971361628E-1,3.360607443E0
4.802347458E0,-1.730239059E0,-9.995861936E-1,-1.398949268E-1,2.003115161E0
4.812396458E0,-6.388852009E-1,-7.870346421E-1,-4.998097613E-1,1.130224591E0
4.822445458E0,-3.083380070E-1,-6.851568496E-1,-8.688553154E-1,1.148660870E0
4.832494458E0,-5.293814698E-1,5.741147161E-2,-1.043027790E0,1.171088292E0
4.842543458E0,-9.331814119E-1,1.602243508E0,-6.695833755E-1,1.971383703E0
4.852592458E0,-1.594909638E0,4.712047731E0,2.110958871E-1,4.979125630E0
4.862641458E0,-2.115728737E0,8.788800159E0,9.701527718E-1,9.091782703E0
4.872690458E0,-3.353556224E0,9.535784297E0,1.350342827E0,1.019808547E1
4.882739458E0,-2.362603737E0,5.720134606E0,1.258889450E0,6.315586986E0
4.892788458E0,1.213892202E0,3.124633346E0,1.968242955E-1,3.357917156E0
4.902837458E0,2.720133492E0,2.381139995E0,-1.892805102E-1,3.620052625E0
4.912886458E0,3.251285499E0,1.193831282E0,4.092163642E-1,3.487627927E0
4.922935458E0,2.844325722E0,-8.962553680E-1,1.074577904E0,3.169886460E0
4.932984458E0,2.845560654E0,-2.394567541E0,1.728799620E0,4.101209245E0
4.943033458E0,2.706959423E0,-3.523509933E0,1.776517578E0,4.785265538E0
4.953082458E0,2.638159037E0,-3.962862700E0,1.414566597E0,4.966403381E0
4.963130458E0,2.882934009E0,-3.788874121E0,1.035180388E0,4.872214490E0
4.973179458E0,3.035660066E0,-2.936245413E0,9.021433680E-1,4.318637728E0
4.983228458E0,2.920234860E0,-1.881586635E0,8.910454988E-1,3.586377278E0
4.993277458E0,2.968897435E0,-2.484610569E-1,8.435051505E-1,3.096382699E0
5.003326458E0,2.976692651E0,1.886056246E0,5.916702501E-1,3.573231169E0
5.013375458E0,2.779540326E0,3.765902165E0,2.926274157E-1,4.689722203E0
5.023424458E0,2.933686087E0,4.896045574E0,-1.246743321E-2,5.707708100E0
5.033473458E0,3.507158487E0,4.853201855E0,-3.150548498E-1,5.996081092E0
5.043522458E0,3.928527850E0,3.502638881E0,-6.595368357E-1,5.304413166E0
5.053571458E0,4.257749772E0,1.697662466E0,-9.444142056E-1,4.680000979E0
5.063620458E0,4.587853747E0,-4.083695412E-3,-1.139614291E0,4.727276109E0
5.073669458E0,4.837984477E0,-9.208820862E-1,-1.143177219E0,5.055785969E0
5.083718458E0,5.102170451E0,-1.063243076E0,-1.130725134E0,5.333026202E0
5.093767458E0,4.526528150E0,-6.831799060E-1,-9.744829273E-1,4.680364179E0
5.103816458E0,3.173724230E0,-6.919536531E-2,-3.410144408E-1,3.192742447E0
5.113865458E0,2.755193105E0,-2.358544600E-1,-2.123287725E-1,2.773409432E0
5.123914458E0,2.203962345E0,8.779068053E-2,-7.602750789E-1,2.333061383E0
5.133963458E0,1.601628673E0,1.196098832E0,-7.365855233E-1,2.130357965E0
5.144012458E0,1.909031418E0,1.279429257E0,-1.357454503E-1,2.302122283E0
5.154061458E0,1.939063010E0,7.326976365E-1,3.192942274E-1,2.097322099E0
5.164110458E0,1.690449341E0,2.841758502E-1,6.426487613E-1,1.830675372E0
5.174159458E0,1.201267771E0,1.069631159E-2,1.217450233E-1,1.207468641E0
5.184208458E0,1.066926237E0,2.333974600E-2,-5.678979564E-1,1.208877342E0
5.194257458E0,3.978796363E-1,-7.007086891E-1,-1.932157156E0,2.093449820E0
5.204306458E0,2.466510513E-1,-1.087953410E0,-2.701344342E0,2.922625637E0
5.214355458E0,-3.972551537E-1,-1.156864600E0,-2.501849331E0,2.784851420E0
5.224404458E0,-3.908600539E-1,-6.332914621E-1,-1.587776327E0,1.753528820E0
5.234453458E0,4.981433049E-1,-1.092341745E-1,8.062162869E-1,9.539725144E-1
5.244502458E0,6.415494847E-1,4.159340841E-1,2.548832878E0,2.661040387E0
5.254551458E0,-1.399501830E-1,9.792864150E-1,2.434823867E0,2.628108674E0
5.264600458E0,-3.755812794E-1,1.053770587E0,2.627572653E0,2.855806680E0
5.274649458E0,4.206732523E-1,5.628120482E-1,2.448895922E0,2.547707720E0
5.284698458E0,9.582387775E-1,6.748856306E-3,1.341893746E0,1.648922657E0
5.294747458E0,8.365320535E-1,-3.194152647E-1,-1.454262467E-1,9.071718586E-1
5.304796458E0,2.606178568E-1,-6.637461001E-1,-1.343640894E0,1.521134907E0
5.314845458E0,-2.678039387E-1,-9.171188182E-1,-1.910225712E0,2.135834298E0
5.324894458E0,-1.979583630E-1,-1.304298050E0,-1.765062736E0,2.203594196E0
5.334943458E0,-2.411096451E-1,-1.693733137E0,-1.285787373E0,2.140120317E0
5.344992458E0,-1.364914088E-1,-1.694597356E0,-9.370560694E-1,1.941227493E0
5.355040458E0,-2.083099812E-2,-1.496003108E0,-8.592506059E-1,1.725332094E0
5.365089458E0,1.332048351E-1,-1.251538038E0,-9.936617947E-1,1.603575615E0
5.375138458E0,3.094010308E-2,-8.654808873E-1,-1.160610327E0,1.448112836E0
5.385187458E0,3.440063149E-2,-6.865443939E-1,-1.237081382E0,1.415237420E0
5.395236458E0,1.106525628E-1,-9.596947342E-1,-1.358742059E0,1.667164646E0
5.405285458E0,3.271394366E-1,-1.428661895E0,-1.727623014E0,2.265563131E0
5.415334458E0,1.395421936E-1,-1.691101890E0,-2.143211528E0,2.733615423E0
5.425383458E0,-1.666485697E-1,-1.589631064E0,-2.684116398E0,3.123968550E0
5.435432458E0,-4.651518524E-1,-1.030607427E0,-3.158051938E0,3.354371768E0
5.445481458E0,-9.188707902E-1,-1.810233647E-1,-3.179106592E0,3.314183415E0
5.455530458E0,-9.264664695E-1,5.891408908E-1,-3.120551405E0,3.308061091E0
5.465579458E0,-1.079421445E0,1.180042378E0,-2.683308313E0,3.123746816E0
5.475628458E0,-1.345888271E0,1.571576031E0,-2.235294650E0,3.045949545E0
5.485677458E0,-1.529677515E0,1.680063516E0,-2.130456412E0,3.114702433E0
5.495726458E0,-1.698053353E0,1.248764704E0,-2.224940400E0,3.064825975E0
5.505775458E0,-1.814994596E0,4.772047180E-1,-2.473518401E0,3.104870852E0
5.515824458E0,-1.948272960E0,-1.671619552E-1,-3.060109906E0,3.631526302E0
5.525873458E0,-2.124684187E0,-8.197287637E-1,-3.705649531E0,4.349491532E0
5.535922458E0,-1.621169776E0,-1.392838928E0,-3.931988232E0,4.475346152E0
5.545971458E0,-1.621871588E0,-1.605999759E0,-3.828237576E0,4.457028788E0
5.556020458E0,-1.808389142E0,-1.621090254E0,-3.396596117E0,4.175532311E0
5.566069458E0,-2.259470840E0,-1.413901184E0,-2.566894927E0,3.700442487E0
5.576118458E0,-2.731490539E0,-1.129789653E0,-1.304890373E0,3.231130469E0
5.586167458E0,-3.020373106E0,-1.243091151E0,-4.011833131E-1,3.290725962E0
5.596216458E0,-2.950211196E0,-1.384089739E0,1.987316573E-1,3.264803942E0
5.606265458E0,-3.115570162E0,-1.276237262E0,6.470517147E-1,3.428444969E0
5.616314458E0,-3.206791404E0,-1.114047779E0,7.808009255E-1,3.483426997E0
5.626363458E0,-2.757295471E0,-3.915178657E-1,1.140277219E0,3.009351540E0
5.636412458E0,-1.266039572E0,4.581632602E-1,1.336574095E0,1.897155788E0
5.646461458E0,-2.168795143E-1,6.283698606E-1,1.485655875E0,1.627592942E0
5.656510458E0,1.674607480E-1,1.035933656E0,1.663497770E0,1.966831582E0
5.666559458E0,1.006956024E0,5.661782902E-1,2.058198860E0,2.360233217E0
5.676608458E0,1.993547219E0,-1.845685315E-1,2.452199453E0,3.165687637E0
5.686657458E0,3.093854188E0,-7.142935252E-1,2.669837497E0,4.148515546E0
5.696706458E0,4.394319972E0,-7.191028601E-1,2.465030583E0,5.089551328E0
5.706755458E0,6.754162070E0,-2.855511153E-1,6.378929284E-1,6.790224745E0
5.716804458E0,7.458613561E0,1.133322541E0,-1.911071804E-1,7.546645493E0
5.726853458E0,3.144544285E0,3.391354673E0,8.589618266E-1,4.703962234E0
5.736902458E0,1.285321204E0,5.529315986E0,2.494729469E0,6.200730682E0
5.746951458E0,-4.078375907E-1,7.068287943E0,3.342259988E0,7.829286543E0
5.756999458E0,-2.939420744E0,7.253408452E0,3.900741004E0,8.744593121E0
5.767048458E0,-6.031779506E0,6.523622729E0,5.072182420E0,1.023069167E1
5.777097458E0,-8.095961237E0,5.560982167E0,5.191121804E0,1.110931396E1
5.787146458E0,-8.183025109E0,4.182057273E0,4.574184419E0,1.026521632E1
5.797195458E0,-7.277462143E0,1.685531248E0,3.553848211E0,8.272382241E0
5.807244458E0,-3.309117678E0,6.793815547E-1,3.333817486E0,4.746172999E0
5.817293458E0,-7.765505844E-1,3.865056324E-1,2.859041117E0,2.987730497E0
5.827342458E0,-6.009066582E-1,-2.835425967E-1,2.073057219E0,2.176936253E0
5.837391458E0,6.548685649E-1,-6.361413950E-1,1.473809709E0,1.733679258E0
5.847440458E0,1.874732236E0,-8.897404003E-1,1.314902268E0,2.456669882E0
5.857489458E0,2.562257793E0,-1.009154577E0,1.505488754E0,3.138479623E0
5.867538458E0,2.653871675E0,-1.075683612E0,1.765815565E0,3.364258419E0
5.877587458E0,2.367844012E0,-6.409454674E-1,1.899017769E0,3.102219342E0
5.887636458E0,2.406648181E0,-4.974618119E-1,1.379961605E0,2.818460174E0
5.897685458E0,2.363380247E0,-9.715511334E-1,5.809843174E-1,2.620500062E0
5.907734458E0,2.250897652E0,-1.044377620E0,-1.076574728E-1,2.483717976E0
5.917783458E0,1.194513945E0,-1.048113406E0,-6.990670833E-1,1.736116373E0
5.927832458E0,3.759090158E-1,-1.008863971E0,-8.718502593E-1,1.385365285E0
5.937881458E0,1.742826945E-1,-1.203099119E0,-7.789154908E-1,1.443790598E0
5.947930458E0,5.367036456E-1,-1.269459170E0,-6.686864126E-1,1.531900423E0
5.957979458E0,1.059166982E0,-1.005196012E0,1.886408249E-1,1.472358340E0
5.968028458E0,1.082521346E0,-6.332329899E-1,1.386478619E0,1.869534553E0
5.978077458E0,9.207306433E-1,-7.128410769E-1,1.363915968E0,1.793363902E0
5.988126458E0,1.172607351E0,-8.702071917E-1,1.050014920E0,1.798554945E0
5.998175458E0,1.168456413E0,-1.138814830E0,1.058889824E0,1.945105978E0
6.008224458E0,1.049606492E0,-1.413069125E0,9.678600785E-1,2.008778552E0
6.018273458E0,9.207902849E-1,-1.491959758E0,8.590743855E-1,1.952385072E0
6.028322458E0,5.550612715E-1,-1.825883135E0,9.205011401E-1,2.118788471E0
6.038371458E0,-1.024131051E-1,-1.866032456E0,9.723846540E-1,2.106679256E0
6.048420458E0,-4.765568465E-1,-1.814704428E0,8.199418947E-1,2.047574980E0
6.058469458E0,-5.701950350E-1,-1.997021196E0,6.857216907E-1,2.187105456E0
6.068518458E0,-1.280503390E0,-2.262622197E0,5.249641907E-1,2.652307588E0
6.078567458E0,-1.679526157E0,-1.824775087E0,4.543359652E-1,2.521315808E0
6.088616458E0,-1.715897008E0,-5.293899482E-1,5.355353719E-1,1.873860826E0
6.098665458E0,-1.987114844E0,-4.885933399E-1,1.797337613E-1,2.054179417E0
6.108714458E0,-2.061486749E0,-4.840097076E-1,7.622532651E-1,2.250560609E0
6.118764000E0,-2.680163388E0,9.871234381E-1,1.830498050E0,3.392404984E0
6.128813000E0,-3.051488187E0,1.816988350E0,2.070732074E0,4.111077491E0
6.138862000E0,-3.075188121E0,1.709506001E0,1.941260540E0,4.018418250E0
6.148911000E0,-3.237704464E0,7.865101469E-1,1.542710374E0,3.671686765E0
6.158959000E0,-3.141213126E0,3.779575878E-1,1.261858374E0,3.406223480E0
6.169008000E0,-2.490154022E0,3.374521708E-1,4.233018681E-1,2.548318170E0
6.179057000E0,-2.556744161E0,1.299455971E-1,-9.623771444E-1,2.734958195E0
6.189106000E0,-3.002912443E0,-2.826947504E-1,-2.615792268E0,3.992463982E0
6.199155000E0,-2.449310344E0,-1.662141216E-1,-4.074012423E0,4.756503497E0
6.209204000E0,-1.861937943E0,-3.819985986E-2,-4.737165030E0,5.090088865E0
6.219253000E0,-1.534497375E0,-2.325309026E-1,-4.492422510E0,4.752958323E0
6.229302000E0,-1.656360951E0,-5.699129069E-1,-2.358984311E0,2.938220431E0
6.239351000E0,-2.305284944E0,-1.183370613E0,6.372693229E-1,2.668485876E0
6.249400000E0,-3.463935576E0,-1.826241569E0,1.613252353E0,4.235161284E0
6.259449000E0,-4.214193571E0,-1.177149176E0,1.366113937E0,4.583816633E0
6.269498000E0,-3.929812776E0,8.502453822E-1,2.494157611E0,4.731507989E0
6.279547000E0,-3.348632576E0,3.845869271E0,3.808187182E0,6.364459143E0
6.289596000E0,-2.577990603E0,6.347851333E0,2.872303479E0,7.429090077E0
6.299645000E0,-9.061625978E-1,6.861809894E0,1.686739283E0,7.123949402E0
6.309694000E0,1.043946095E0,6.775831266E0,2.368384295E0,7.253341090E0
6.319743000E0,1.808614260E0,5.004231343E0,2.392030727E0,5.833971878E0
6.329792000E0,1.519697195E0,2.453516246E0,8.498331535E-1,3.008560773E0
6.339841000E0,3.865427622E-1,-8.166806102E-3,-7.665758193E-1,8.585572144E-1
6.349890000E0,-1.640405653E0,-1.633913198E0,-7.544790995E-1,2.435126641E0
6.359939000E0,-3.182998499E0,-2.243528699E0,3.106523350E-1,3.906584869E0
6.369988000E0,-3.239206029E0,-2.669518239E0,1.255950347E0,4.381346209E0
6.380037000E0,-2.954656834E0,-2.966074399E0,2.162017343E0,4.711890633E0
6.390086000E0,-1.551587032E0,-2.544800053E0,3.176172167E0,4.355628458E0
6.400135000E0,2.810335565E-1,-1.891114672E0,3.714159861E0,4.177352994E0
6.410184000E0,1.748616858E0,-1.063598002E0,3.463403479E0,4.022942367E0
6.420233000E0,2.578106671E0,5.801771092E-1,2.417306778E0,3.581425909E0
6.430282000E0,2.295100556E0,2.207686436E0,1.412292322E0,3.483666971E0
6.440331000E0,1.430018741E0,3.847628113E0,1.021076465E0,4.229869128E0
6.450380000E0,1.184769560E0,5.301202070E0,9.395443520E-1,5.512636927E0
6.460429000E0,1.726015907E0,5.685167672E0,1.320864966E0,6.086455999E0
6.470478000E0,2.962152672E0,4.582657034E0,1.648913791E0,5.700351799E0
6.480527000E0,4.562928236E0,3.359481500E0,1.757072808E0,5.932430775E0
6.490576000E0,6.382380896E0,1.573172321E0,1.556504248E0,6.755173020E0
6.500625000E0,7.340099856E0,-3.323107141E-1,1.359020825E0,7.472244235E0
6.510674000E0,7.875077988E0,-1.557757891E0,7.389731607E-1,8.061609287E0
6.520723000E0,8.357365690E0,-1.892742537E0,4.457186311E-2,8.569131942E0
6.530772000E0,8.756821736E0,-1.511318135E0,2.285764307E-2,8.886311490E0
6.540821000E0,8.501496048E0,-5.012589937E-1,5.229074326E-1,8.532299093E0
6.550869000E0,6.219492670E0,6.585718989E-1,9.096970935E-1,6.320075539E0
6.560918000E0,5.157371675E0,1.478215878E0,8.526158434E-1,5.432362152E0
6.570967000E0,5.179945436E0,2.336474869E0,3.242143670E-1,5.691754078E0
6.581016000E0,4.194994530E0,2.366504999E0,-1.414184189E-1,4.818539633E0
6.591065000E0,2.724727357E0,1.854692366E0,-5.414159167E-1,3.340232648E0
6.601114000E0,1.002204577E0,9.827655083E-1,-1.162139081E0,1.822308783E0
6.611163000E0,-3.878379205E-1,3.133873701E-2,-1.559570821E0,1.607377216E0
6.621212000E0,-1.004744900E0,-4.265146208E-1,-1.209804121E0,1.629433351E0
6.631261000E0,-1.211992149E0,-7.340120906E-1,-9.427071109E-1,1.701879965E0
6.641310000E0,-9.393765369E-1,-8.163391328E-1,-4.712051824E-1,1.330741215E0
6.651359000E0,-8.871801969E-1,-4.235033047E-1,-1.307516357E-1,9.917357214E-1
6.661408000E0,-9.632934031E-1,-9.051793885E-1,-1.903512816E0,2.317465199E0
6.671457000E0,-9.873131803E-1,-1.079993010E0,-5.452993450E0,5.645910890E0
6.681506000E0,-1.188602994E0,-4.363420361E-1,-7.614273459E0,7.718829688E0
6.691555000E0,-1.524762200E0,-5.658526003E-1,-6.673742974E0,6.869056282E0
6.701604000E0,1.213827883E-1,-1.415592198E0,-3.138874240E0,3.445455927E0
6.711653000E0,1.358516649E0,-1.879979820E0,-6.739489067E-1,2.415387906E0
6.721702000E0,-9.171971709E-2,-1.466441925E0,7.884502530E-2,1.471421409E0
6.731751000E0,-1.657070657E0,-4.095378149E-1,6.584282036E-1,1.829516899E0
6.741800000E0,-2.656359081E0,3.803847671E-1,3.098469395E0,4.098957029E0
6.751849000E0,-2.087521184E0,3.878984392E-1,4.950794224E0,5.386889022E0
6.761898000E0,-6.054196854E-1,2.319555366E-1,2.737081647E0,2.812819281E0
6.771947000E0,-1.416619554E-1,-5.980415225E-2,1.403507319E0,1.411905606E0
6.781996000E0,-4.247198179E-2,-6.112416118E-1,1.580011225E-1,6.327594582E-1
6.792045000E0,-3.901269592E-1,-1.135294806E0,-1.292892909E0,1.764274757E0
6.802094000E0,-6.374501480E-1,-1.382734939E0,-1.910447906E0,2.442971512E0
6.812143000E0,-1.046130469E0,-1.353015296E0,-1.711350213E0,2.419454257E0
6.822192000E0,-1.617324062E0,-1.173983493E0,-9.914176333E-1,2.230892935E0
6.832241000E0,-1.770207117E0,-1.090358954E0,-6.467358188E-1,2.177333944E0
6.842290000E0,-1.650806388E0,-1.069285589E0,-5.513009271E-1,2.042661527E0
6.852339000E0,-1.206319765E0,-1.138690869E0,-4.344095314E-1,1.714799088E0
6.862388000E0,-1.009490646E0,-1.454000804E0,-6.113671808E-1,1.872687783E0
6.872437000E0,-9.626797378E-1,-1.817432154E0,-8.208156149E-1,2.214396122E0
6.882486000E0,-6.459037600E-1,-2.082061347E0,-1.026789780E0,2.409661464E0
6.892535000E0,-9.841413581E-1,-1.775744430E0,-1.065242093E0,2.292715248E0
6.902584000E0,-1.860603609E0,-1.133092160E0,-1.460220341E0,2.622591672E0
6.912633000E0,-1.995213530E0,-6.068257946E-1,-1.469946746E0,2.551442339E0
6.922682000E0,-2.093212572E0,-1.864180058E-1,-1.394289768E0,2.521970361E0
6.932731000E0,-1.937691546E0,4.364583957E-1,-1.477631156E0,2.475588474E0
6.942779000E0,-1.510736630E0,7.371040982E-1,-1.596651231E0,2.318392281E0
6.952828000E0,-1.270736055E0,8.170782208E-1,-1.380730075E0,2.046656415E0
6.962877000E0,-1.034240740E0,9.229765588E-1,-1.229641385E0,1.852986123E0
6.972926000E0,-1.064377144E0,5.300933683E-1,-1.501294838E0,1.915145915E0
6.982975000E0,-1.391320260E0,-2.167603773E-1,-1.755281514E0,2.250282276E0
6.993024000E0,-1.914276371E0,-5.298436922E-1,-1.673616815E0,2.597341257E0
7.003073000E0,-2.261553472E0,-6.219209665E-1,-1.807850322E0,2.961373428E0
7.013122000E0,-2.266361930E0,-7.921708363E-1,-2.120578126E0,3.203245638E0
7.023171000E0,-2.020083784E0,-1.186845029E0,-2.208402135E0,3.219686260E0
7.033220000E0,-1.964783889E0,-1.830499511E0,-1.887412215E0,3.282290216E0
7.043269000E0,-2.184276085E0,-2.324451240E0,-1.431371495E0,3.496135000E0
7.053318000E0,-1.759080304E0,-2.004006280E0,-8.463656815E-1,2.797631061E0
7.063367000E0,-1.958157970E0,-1.183170054E0,-3.653748914E-1,2.316845447E0
7.073416000E0,-2.335887370E0,-5.346261299E-1,1.141319485E-1,2.399004170E0
7.083465000E0,-2.714962215E0,-2.990347946E-1,8.462783387E-1,2.859480488E0
7.093514000E0,-3.305393001E0,-1.198205584E-1,1.635676718E0,3.689907612E0
7.103563000E0,-3.286469657E0,1.790657169E-1,2.384796552E0,4.064505128E0
7.113612000E0,-1.605771864E0,7.551000738E-1,2.945086988E0,3.438345063E0
7.123660875E0,-1.685334197E-1,1.040806140E0,2.888885890E0,3.075279275E0
7.133709875E0,6.966137378E-1,1.131552588E0,2.655000480E0,2.968957647E0
7.143758875E0,1.354071742E0,1.073904889E0,2.616690693E0,3.135897348E0
7.153807875E0,1.888414136E0,7.270720303E-1,2.954655080E0,3.581162985E0
7.163856875E0,2.456399508E0,1.987924683E-1,3.685496225E0,4.433542535E0
7.173905875E0,3.105572008E0,4.936979592E-2,4.060729887E0,5.112391035E0
7.183954875E0,5.257838534E0,9.099764442E-1,2.003641122E0,5.699780779E0
7.194003875E0,7.120105383E0,2.499206389E0,-7.876304734E-1,7.586981943E0
7.204052875E0,3.374126729E0,3.832186786E0,-1.068768110E0,5.216574740E0
7.214101875E0,4.597655435E-1,5.128510403E0,3.421767211E-1,5.160434886E0
7.224150875E0,-1.513574430E0,6.356754888E0,2.056259923E0,6.850360949E0
7.234199875E0,-3.547558361E0,6.928892661E0,3.702837313E0,8.620077029E0
7.244248875E0,-5.115131974E0,5.925218094E0,4.883583988E0,9.226168064E0
7.254297875E0,-5.895437055E0,3.977652063E0,5.286743075E0,8.861576967E0
7.264346875E0,-4.782360207E0,1.596649477E0,4.433131451E0,6.713636359E0
7.274395875E0,-1.522181677E0,4.869444251E-1,3.196051823E0,3.573359650E0
7.284444875E0,-1.364377898E0,2.759669441E-1,2.715538166E0,3.051529507E0
7.294493875E0,-7.722894260E-1,-4.838237661E-1,1.833578655E0,2.047566135E0
7.304542875E0,5.197721556E-1,-1.321672466E0,1.078383856E0,1.783225433E0
7.314591875E0,1.064000291E0,-1.602438220E0,7.723125225E-1,2.072769042E0
7.324640875E0,7.115397790E-1,-1.372355547E0,9.339351180E-1,1.806068495E0
7.334688875E0,5.209158710E-1,-8.342479849E-1,4.830779538E-1,1.095758803E0
7.344737875E0,6.891807573E-1,-3.447272766E-1,3.261451176E-1,8.367661854E-1
7.354786875E0,9.026639163E-3,1.341994464E-1,3.923627883E-2,1.401087335E-1
7.364835875E0,-2.525169781E-1,3.183767992E-1,-2.297128370E-1,4.667939567E-1
7.374884875E0,-5.504814398E-1,-1.714877254E-1,-1.153027073E-1,5.879902804E-1
7.384933875E0,-1.106556765E0,-4.234115034E-1,1.055685550E-2,1.184844556E0
7.394982875E0,-6.095370023E-1,-5.943443280E-1,-2.333226156E-1,8.827343770E-1
7.405031875E0,-8.643943284E-1,-1.147807848E0,-1.321959565E0,1.952490077E0
7.415080875E0,-9.952371807E-1,-1.208815357E0,-1.277250292E0,2.020668187E0
7.425129875E0,-1.825184392E0,-1.284392958E0,-2.807695547E-1,2.249398782E0
7.435178875E0,-1.855145818E0,-1.760676155E0,8.704226616E-1,2.701699861E0
7.445227875E0,-1.190774358E0,-1.902498032E0,1.730709175E0,2.834218866E0
7.455276875E0,-7.330993402E-1,-2.073109844E0,1.360229883E0,2.585622634E0
7.465325875E0,-7.546776125E-1,-2.164136374E0,9.380863488E-1,2.476495617E0
7.475374875E0,-4.891080411E-1,-2.106656490E0,8.162642884E-1,2.311604558E0
7.485423875E0,-1.122361350E-1,-2.057043450E0,8.645467946E-1,2.234158872E0
7.495472875E0,1.271310398E-1,-2.157125562E0,7.980382249E-1,2.303522954E0
7.505521875E0,1.350715587E-1,-2.751464628E0,6.571983880E-1,2.832086094E0
7.515570875E0,-7.663360834E-3,-4.323789688E0,5.504156587E-1,4.358689412E0
7.525619875E0,-5.483129999E-1,-5.912828429E0,8.427214774E-1,5.997696780E0
7.535668875E0,-1.094262263E0,-6.324294071E0,2.632322931E-1,6.423659131E0
7.545717875E0,-1.979322406E0,-2.754049097E0,-3.275096823E0,4.714738892E0
7.555766875E0,-1.351164945E0,6.037548369E-1,-5.280539764E0,5.484000986E0
7.565815875E0,-1.847306163E0,1.248450708E-1,-1.896737063E0,2.650610842E0
7.575864875E0,-2.753229318E0,-5.418263912E-1,8.469320574E-1,2.931064896E0
7.585913875E0,-3.723581772E0,6.399543643E-1,2.070678280E0,4.308400090E0
7.595962875E0,-5.237613015E0,1.366194336E0,3.446322301E0,6.416869522E0
7.606011875E0,-5.563320469E0,2.568494725E-1,3.196463175E0,6.421361469E0
7.616060875E0,-5.020649155E0,-2.777368963E-2,2.505725742E0,5.611269982E0
7.626109875E0,-3.602632408E0,4.300001460E-1,1.824737957E0,4.061222600E0
7.636158875E0,-2.908915527E0,-4.462361097E-2,7.931233478E-1,3.015431222E0
7.646207875E0,-2.694447259E0,-4.629614854E-1,-6.443251580E-2,2.734690278E0
7.656256875E0,-3.363896148E0,-5.786843151E-1,-1.238139728E0,3.630931398E0
7.666305875E0,-3.437568727E0,-4.606822407E-1,-2.484783939E0,4.266527640E0
7.676354875E0,-2.214576064E0,-2.748653287E-1,-3.025754298E0,3.759665832E0
7.686403875E0,-2.729214803E0,-4.750792551E-1,-2.437691049E0,3.690074713E0
7.696452875E0,-2.992956389E0,-9.112464595E-1,-1.252736133E0,3.370089891E0
7.706501875E0,-3.655928610E0,-1.143741694E0,-3.773687732E-1,3.849203327E0
7.716550875E0,-4.408684827E0,-1.375081519E0,-3.920423609E-1,4.634765183E0
7.726598875E0,-4.710829756E0,-1.403846896E0,6.182027221E-2,4.915945976E0
7.736647875E0,-3.832815362E0,-1.147671608E0,1.081231743E0,4.144476541E0
7.746696875E0,-3.212413502E0,-2.264205623E-1,1.529655588E0,3.565208689E0
7.756745875E0,-2.763428324E0,1.513319637E0,1.634453188E0,3.549381587E0
7.766794875E0,-1.489221800E0,3.269341409E0,1.671273397E0,3.962263190E0
7.776843875E0,-1.014113747E0,4.793788882E0,1.366391679E0,5.086832488E0
7.786892875E0,-2.317832192E0,4.703553481E0,6.459787506E-1,5.283280227E0
7.796941875E0,-4.081214730E0,1.889850504E0,9.001320720E-2,4.498438727E0
7.806990875E0,-5.227589133E0,-1.187511612E0,2.312398374E-1,5.365756595E0
7.817039875E0,-5.475932661E0,-2.631777971E0,1.334265615E0,6.220318202E0
7.827088875E0,-4.865308515E0,-2.791294692E0,2.939741464E0,6.332821873E0
7.837137875E0,-3.534857332E0,-2.094017733E0,4.534066965E0,6.118650984E0
7.847186875E0,-1.428207274E0,-7.301540977E-1,5.095140928E0,5.341662859E0
7.857235875E0,1.083524728E0,7.742257315E-1,4.739139343E0,4.922691645E0
7.867284875E0,3.344274062E0,1.859186536E0,3.882976871E0,5.451445034E0
7.877333875E0,4.507113347E0,2.854658044E0,2.922721096E0,6.083209833E0
7.887382875E0,3.428917771E0,3.806133347E0,2.101528774E0,5.537197064E0
7.897431875E0,2.011972235E0,4.161762173E0,1.873581796E0,4.987845768E0
7.907480875E0,2.700545905E0,4.404274272E0,1.402393571E0,5.353250207E0
7.917529875E0,4.440929883E0,4.197402121E0,5.025635076E-1,6.131281503E0
7.927578875E0,5.866734828E0,3.671959044E0,-5.215119946E-1,6.940737390E0
7.937627875E0,6.477723255E0,2.708955370E0,-4.670811412E-1,7.036867383E0
7.947676875E0,6.472178341E0,1.793331100E0,5.540380087E-1,6.738849087E0
7.957725875E0,6.469881554E0,1.244673992E0,7.977979043E-1,6.636645400E0
7.967774875E0,6.603044289E0,1.004488499E0,9.881183419E-1,6.751708590E0
7.977823875E0,6.984442379E0,1.128181084E0,9.373832211E-1,7.136800068E0
7.987872875E0,5.647317476E0,1.970606400E0,8.574798498E-1,6.042413090E0
7.997921875E0,4.177083047E0,2.693698230E0,3.113724196E-1,4.980058807E0
8.007970875E0,3.626844851E0,2.858602576E0,-6.111521494E-1,4.658231339E0
8.018019875E0,3.174037056E0,2.556104475E0,-1.133183669E0,4.229927487E0
8.028068875E0,1.876740755E0,1.811298425E0,-1.169464180E0,2.858426895E0
8.038117875E0,1.014893473E0,9.523611563E-1,-1.125212160E0,1.789721470E0
8.048166875E0,4.605074090E-1,1.603429323E-1,-9.617488611E-1,1.078303205E0
8.058215875E0,1.195302442E-1,-2.398446000E-1,-6.390793285E-1,6.929901150E-1
8.068264875E0,-1.554137295E-1,-4.105657554E-1,-4.654557614E-1,6.398177339E-1
8.078313875E0,-5.597508846E-1,-8.200760883E-1,-5.696079746E-1,1.144682964E0
8.088362875E0,-9.317881666E-1,-1.328935293E0,-1.231891686E0,2.037610200E0
8.098411875E0,-1.105921172E0,-1.422315912E0,-2.377096792E0,2.982722473E0
8.108460875E0,-1.216848554E0,-1.197348967E0,-3.268981805E0,3.687900079E0
8.118510083E0,-1.172058152E0,-6.093886292E-1,-3.041609316E0,3.316091380E0
8.128558083E0,-1.097023026E0,-6.421786451E-1,-2.388056813E0,2.705303730E0
8.138607083E0,-7.693813133E-1,-1.119859911E0,-2.214321710E0,2.597932729E0
8.148656083E0,5.247992992E-2,-1.464048659E0,-2.245678135E0,2.681280087E0
8.158705083E0,8.755085698E-1,-1.267022635E0,-2.697831627E0,3.106470200E0
8.168754083E0,6.389287627E-1,-7.260978842E-1,-4.457799100E0,4.561515199E0
8.178803083E0,6.485912865E-1,-4.195277828E-1,-5.869608150E0,5.920217399E0
8.188852083E0,2.795835932E-1,-8.282773930E-1,-4.778433509E0,4.857739930E0
8.198901083E0,-7.022926998E-1,-1.273064563E0,-3.197903051E0,3.512903691E0
8.208950083E0,-1.086082885E0,-1.397983308E0,-2.781274903E0,3.296880867E0
8.218999083E0,-9.963604309E-1,-1.472400822E0,-3.101571343E0,3.574974557E0
8.229048083E0,-1.757642327E0,-1.376443920E0,-2.364230286E0,3.251690216E0
8.239097083E0,-3.160769724E0,-1.327158909E0,3.549835852E-1,3.446422690E0
8.249146083E0,-6.063203028E0,-1.552580767E0,4.293661909E0,7.590024413E0
8.259195083E0,-7.694393177E0,-1.707247807E0,3.854005086E0,8.773353785E0
8.269244083E0,-4.733854921E0,-1.445991288E0,1.384651072E0,5.139798811E0
8.279293083E0,-2.497362762E0,-1.467887941E0,4.807465227E-1,2.936432017E0
8.289342083E0,-2.347662347E0,-1.453740603E0,2.389318496E-2,2.761421938E0
8.299391083E0,-2.178440710E0,-1.524850346E0,-8.633038227E-1,2.795722804E0
8.309440083E0,-1.962795251E0,-1.519688424E0,-1.238529153E0,2.774161597E0
8.319489083E0,-2.580602847E0,-1.490806687E0,-1.266373740E0,3.238165852E0
8.329538083E0,-3.003553298E0,-1.339443324E0,-1.055748700E0,3.453989888E0
8.339587083E0,-3.230817905E0,-1.068127840E0,-6.488596737E-1,3.464116092E0
8.349636083E0,-2.844927985E0,-7.157190764E-1,-4.009563681E-1,2.960850392E0
8.359685083E0,-2.068269373E0,-2.204622495E-1,-8.831634521E-3,2.080004760E0
8.369734083E0,-1.779258606E0,-3.428275162E-1,-8.362641779E-1,1.995652693E0
8.379783083E0,-1.156946754E0,-4.073743451E-1,-2.599794871E0,2.874615282E0
8.389832083E0,-1.875099733E0,-7.360703105E-1,-2.685903307E0,3.357361328E0
8.399881083E0,-2.216767454E0,-9.253382492E-1,-2.020612957E0,3.138978424E0
8.409930083E0,-1.999391073E0,-1.509856916E0,-1.477397268E0,2.908596785E0
8.419979083E0,-2.434675348E0,-2.151290626E0,-1.719580754E0,3.675956117E0
8.430028083E0,-3.102411588E0,-2.125576910E0,-1.775856696E0,4.158930376E0
8.440077083E0,-3.137924652E0,-1.757708108E0,-1.726617293E0,3.989651137E0
8.450126083E0,-2.583106332E0,-1.075110585E0,-9.975139403E-1,2.970409931E0
8.460175083E0,-1.983383735E0,-7.189794838E-1,-9.400065744E-1,2.309622242E0
8.470224083E0,-1.747844148E0,-3.443244034E-1,-2.104852039E0,2.757520728E0
8.480273083E0,-2.088557311E0,4.712136608E-1,-2.819683508E0,3.540441928E0
8.490322083E0,-2.648018612E0,1.435083307E0,-3.799583296E0,4.848535851E0
8.500371083E0,-3.560024040E0,1.877359098E0,-4.695251019E0,6.184143472E0
8.510420083E0,-4.206341929E0,1.703364671E0,-5.177822312E0,6.885100400E0
8.520469083E0,-4.097905900E0,1.216230211E0,-5.052035839E0,6.617787758E0
8.530517083E0,-3.554736111E0,5.760600847E-1,-4.668656128E0,5.896129585E0
8.540566083E0,-3.017267065E0,-2.676785159E-1,-3.970258259E0,4.993846510E0
8.550615083E0,-2.842501098E0,-5.453306276E-1,-2.819326243E0,4.040519577E0
8.560664083E0,-3.078478642E0,-4.892464739E-1,-1.669833228E0,3.536203596E0
8.570713083E0,-2.668246470E0,-7.766160733E-1,-8.995935434E-1,2.920948526E0
8.580762083E0,-2.259326121E0,-1.424459501E0,-6.207141012E-1,2.742065898E0
8.590811083E0,-1.581163711E0,-2.257006531E0,-1.933077983E-1,2.762521505E0
8.600860083E0,-1.209391893E0,-2.936942402E0,4.136910921E-1,3.203029775E0
8.610909083E0,-1.781368867E0,-2.896503058E0,1.044018016E0,3.557102560E0
8.620958083E0,-1.316005784E0,-2.382833349E0,1.064296160E0,2.922754233E0
8.631007083E0,-6.191113794E-1,-8.669549704E-1,1.382151972E0,1.745065585E0
8.641056083E0,-3.423429282E-1,8.475550783E-1,1.569267551E0,1.816080653E0
8.651105083E0,-3.977243927E-1,1.999575260E0,1.630507779E-1,2.045255845E0
8.661154083E0,7.400674671E-1,3.204987538E0,6.625561917E-1,3.355387560E0
8.671203083E0,2.811723109E0,3.609058791E0,2.069893291E0,5.021508780E0
8.681252083E0,5.373903426E0,3.183558662E0,2.572577251E0,6.755148962E0
8.691301083E0,7.970342579E0,2.876422550E0,1.913463900E0,8.686858559E0
8.701350083E0,9.388266647E0,2.700181623E0,1.274449914E0,9.851637124E0
8.711399083E0,3.935527844E0,2.864516450E0,8.185998125E-1,4.935984153E0
8.721448083E0,1.095886181E0,3.968989413E0,1.083296102E0,4.257625386E0
8.731497083E0,3.726170334E-1,5.208716660E0,2.142635285E0,5.644506946E0
8.741546083E0,-1.553312546E0,5.393736012E0,2.687614202E0,6.223217667E0
8.751595083E0,-3.467527813E0,4.437071890E0,2.817703056E0,6.296888645E0
8.761644083E0,-5.369270092E0,3.066137216E0,2.156109024E0,6.548210815E0
8.771693083E0,-6.721208916E0,2.356484041E0,3.204295228E0,7.809940732E0
8.781742083E0,-8.626809481E0,8.654627609E-1,5.643591045E0,1.034509485E1
8.791791083E0,-1.039826849E1,-1.875228957E0,5.528627769E0,1.192502395E1
8.801840083E0,-1.055799220E1,-3.399204560E0,4.650105836E0,1.202702271E1
8.811889083E0,-5.512362569E0,-3.798703290E0,2.993467728E0,7.333289631E0
8.821938083E0,-7.013510057E-1,-2.693446215E0,6.775604394E-1,2.864547765E0
8.831987083E0,4.326217452E-1,-2.194245442E0,3.949650916E-1,2.271094902E0
8.842036083E0,7.577114403E-1,-1.666236606E0,9.054200014E-1,2.042120572E0
8.852085083E0,1.006187115E0,-1.028652118E0,1.099207253E0,1.810744122E0
8.862134083E0,3.296394137E-1,-4.217099637E-1,1.537470392E0,1.627979313E0
8.872183083E0,-2.662710911E-1,-2.097630143E-1,1.067569139E0,1.120091372E0
8.882232083E0,1.978870270E-1,2.723633051E-1,-7.571313965E-1,8.286066600E-1
8.892281083E0,3.177833068E-1,5.956599516E-1,-1.631956719E0,1.766091657E0
8.902330083E0,7.674438384E-1,2.118124634E-1,-1.597288870E0,1.784703420E0
8.912379083E0,1.651251654E0,-6.134980524E-1,-1.330172856E0,2.207344946E0
8.922428083E0,2.679866642E0,-9.974578071E-1,-1.043130116E0,3.043801527E0
8.932477083E0,3.530675403E0,-1.383727212E0,-7.741491330E-1,3.870358728E0
8.942526083E0,2.759686690E0,-2.086788236E0,2.125901431E-2,3.459914409E0
8.952574083E0,2.017773842E0,-2.989082608E0,9.320113841E-1,3.724871989E0
8.962623083E0,2.306153255E0,-3.079189956E0,1.102028535E0,4.001777169E0
8.972672083E0,2.414554786E0,-2.744256765E0,8.700823537E-1,3.757401138E0
8.982721083E0,2.281439998E0,-2.605659628E0,7.291170940E-1,3.539214927E0
8.992770083E0,2.396490106E0,-2.569146690E0,6.541259685E-1,3.573731988E0
9.002819083E0,2.357747625E0,-2.544804146E0,4.959962073E-1,3.504427805E0
9.012868083E0,1.980570640E0,-2.767551488E0,3.085713109E-1,3.417194398E0
9.022917083E0,1.843705156E0,-4.201677606E0,4.288988230E-1,4.608394254E0
9.032966083E0,1.566120579E0,-6.559743903E0,5.288347551E-1,6.764808936E0
9.043015083E0,-7.152314186E-2,-4.601366955E0,6.049561474E-1,4.641515416E0
9.053064083E0,-8.073838297E-1,-1.127553093E0,3.326612547E-1,1.426151512E0
9.063113083E0,-1.883731101E0,2.428313577E-1,-1.330794123E-1,1.903974805E0
9.073162083E0,-1.406344827E0,-5.045270026E-2,1.662049707E0,2.177787978E0
9.083211083E0,-1.540215952E0,7.125148022E-1,2.075075386E0,2.680649246E0
9.093260083E0,-2.264798530E0,1.858595967E0,7.858725080E-1,3.033362318E0
9.103309083E0,-2.414605072E0,2.128824454E0,-9.277087104E-1,3.350052934E0
9.113358083E0,-2.870327705E0,2.398912023E0,-2.527380905E0,4.514555822E0
9.123407333E0,-3.556877654E0,1.662134784E0,-2.938172363E0,4.903766666E0
9.133456333E0,-4.148517644E0,4.401971054E-1,-2.499632944E0,4.863346275E0
9.143505333E0,-4.880817963E0,2.024779683E-1,-1.993973920E0,5.276297310E0
9.153554333E0,-5.808835114E0,1.012278745E0,-2.128152024E0,6.268676469E0
9.163603333E0,-5.715362109E0,1.320988342E0,-2.993148177E0,6.585537962E0
9.173652333E0,-5.007025727E0,1.132143742E0,-3.328635391E0,6.118159008E0
9.183701333E0,-3.275051215E0,8.588378656E-1,-2.621828056E0,4.282236016E0
9.193750333E0,-2.162167909E0,6.578953761E-1,-1.914041897E0,2.961646970E0
9.203799333E0,-2.876045405E0,2.303399509E-1,-1.304891250E0,3.166612518E0
9.213848333E0,-3.431580885E0,-3.713473105E-1,6.487690419E-2,3.452224676E0
9.223897333E0,-2.858895521E0,-4.264666736E-1,9.590369225E-1,3.045473566E0
9.233946333E0,-2.084773578E0,6.859602571E-1,8.379951730E-1,2.349267600E0
9.243995333E0,-1.113056968E0,2.656475440E0,3.910521349E-1,2.906661203E0
9.254044333E0,-1.240713673E0,6.038621918E0,8.492466778E-1,6.222985217E0
9.264093333E0,-1.169410386E0,9.118018280E0,9.513142124E-1,9.241795104E0
9.274142333E0,9.399817237E-1,9.106009269E0,7.866867328E-1,9.188136180E0
9.284191333E0,1.524825203E0,5.314575822E0,6.538160661E-1,5.567520410E0
9.294240333E0,1.366865889E0,2.754461911E0,1.142162946E0,3.280231542E0
9.304289333E0,1.792861277E0,3.570981722E0,1.445845692E0,4.249321332E0
9.314338333E0,1.283393084E0,4.451863006E0,1.374733025E0,4.832812114E0
9.324387333E0,1.208669469E0,3.060703983E0,9.384126234E-1,3.421901374E0
9.334436333E0,1.473033783E0,-9.720411301E-2,6.716347249E-1,1.621841660E0
9.344485333E0,1.966715078E0,-1.765210086E0,3.213770056E-1,2.662182944E0
9.354533333E0,2.390739369E0,-2.770293832E0,1.991855474E-1,3.664674273E0
9.364583333E0,2.760911974E0,-3.202311852E0,5.577496751E-1,4.264800210E0
9.374631333E0,2.983734745E0,-3.231464900E0,7.375313835E-1,4.459707498E0
9.384680333E0,3.109913566E0,-2.824067751E0,5.656982338E-1,4.238742212E0
9.394729333E0,3.117583358E0,-2.176800858E0,2.654273379E-1,3.811592796E0
9.404778333E0,2.921068965E0,-1.237945016E0,1.318652380E-1,3.175301592E0
9.414827333E0,2.791698149E0,-1.345871168E-1,2.625048995E-2,2.795063745E0
9.424876333E0,3.018180985E0,8.917483342E-1,-7.107860729E-2,3.147965012E0
9.434925333E0,3.716287955E0,2.161389937E0,-3.754731059E-1,4.315481743E0
9.444974333E0,4.843655399E0,3.399838983E0,-7.090870913E-1,5.960092888E0
9.455023333E0,6.017697072E0,3.096726925E0,-1.068820662E0,6.851625596E0
9.465072333E0,6.617877506E0,1.451194140E0,-1.398726636E0,6.917998505E0
9.475121333E0,6.725447563E0,3.819547445E-1,-1.759761651E0,6.962348412E0
9.485170333E0,6.146329969E0,-1.073279822E-1,-2.155077868E0,6.514081056E0
9.495219333E0,4.486387014E0,-7.650672376E-2,-1.769621226E0,4.823388954E0
9.505268333E0,3.423886827E0,6.584374130E-2,-5.360749237E-1,3.466224563E0
9.515317333E0,3.444299164E0,-1.097136462E-1,-2.718502119E-2,3.446153340E0
9.525366333E0,3.564262102E0,-2.048355657E-1,2.152756231E-1,3.576627677E0
9.535415333E0,3.335510840E0,-1.628227365E-1,5.701010410E-1,3.387795596E0
9.545464333E0,2.626640315E0,-5.017799807E-1,7.452426915E-1,2.776041996E0
9.555513333E0,1.982675345E0,-7.209236830E-1,1.054259999E0,2.358430967E0
9.565562333E0,1.666209124E0,-8.482134748E-1,1.192571353E0,2.217644105E0
9.575611333E0,9.342453128E-1,-5.248045617E-1,8.770835173E-1,1.384741719E0
9.585660333E0,-4.184840548E-1,-5.101771671E-1,-6.884090710E-1,9.535809850E-1
9.595709333E0,-1.549133833E0,-2.381787282E-1,-2.347522452E0,2.822659456E0
9.605758333E0,-2.356156889E0,3.451523691E-1,-3.570132122E0,4.291439014E0
9.615807333E0,-2.542256514E0,3.945519859E-1,-3.371278843E0,4.240785362E0
9.625856333E0,-2.189298697E0,2.395955086E-2,-1.349035681E0,2.571672630E0
9.635905333E0,-1.206647794E0,-7.789894581E-2,2.003532217E0,2.340130016E0
9.645954333E0,1.449115455E-2,1.937357962E-1,3.562890930E0,3.568183758E0
9.656003333E0,3.292806870E-1,6.433691382E-2,1.944457651E0,1.973190454E0
9.666052333E0,3.762200877E-2,-3.678933603E-1,1.091525620E0,1.152470875E0
9.676101333E0,3.292279159E-1,-9.447948593E-1,5.148998170E-1,1.125233384E0
9.686150333E0,2.848674296E-1,-1.311435746E0,-6.090961222E-1,1.473774492E0
9.696199333E0,-5.470567256E-2,-1.302974240E0,-1.380477329E0,1.899066149E0
9.706248333E0,-4.421807733E-1,-1.274616414E0,-1.677761468E0,2.152917644E0
9.716297333E0,-6.431513295E-1,-1.260901185E0,-1.585106635E0,2.125106697E0
9.726346333E0,-5.669543619E-1,-1.284208186E0,-1.381355581E0,1.969459610E0
9.736395333E0,-5.283400807E-1,-1.381495330E0,-1.217330584E0,1.915611218E0
9.746444333E0,-8.227694620E-1,-1.265025226E0,-1.039767163E0,1.832581284E0
9.756493333E0,-7.368395117E-1,-9.476366061E-1,-8.926956562E-1,1.495945566E0
9.766542333E0,-2.209249105E-1,-8.526368934E-1,-1.389210731E0,1.644902411E0
9.776591333E0,1.641971245E-1,-4.063931823E-1,-2.389781595E0,2.429644457E0
9.786640333E0,9.030834541E-2,3.295806491E-1,-2.905448713E0,2.925476239E0
9.796688333E0,2.041710296E-1,1.065304220E-1,-2.688219974E0,2.698066191E0
9.806737333E0,-1.579461586E-1,-7.623196310E-1,-2.682033035E0,2.792736903E0
9.816786333E0,-6.620638561E-1,-1.459546303E0,-2.915312381E0,3.326807816E0
9.826835333E0,-9.348243333E-1,-1.979745013E0,-3.551140366E0,4.171796345E0
9.836884333E0,-6.166301134E-1,-1.606932390E0,-2.997680939E0,3.456668254E0
9.846933333E0,-1.252715960E0,-1.356065789E0,-2.657517999E0,3.235832754E0
9.856982333E0,-1.962688831E0,-1.029416349E0,-2.460784920E0,3.311692602E0
9.867031333E0,-2.542388077E0,-3.880989987E-1,-2.055198069E0,3.292141714E0
9.877080333E0,-2.929150402E0,-1.767315084E-1,-1.794188887E0,3.439515935E0
9.887129333E0,-3.285516561E0,3.171161395E-1,-2.797975720E0,4.327106406E0
9.897178333E0,-3.530376903E0,9.865872484E-1,-3.804352285E0,5.282992692E0
9.907227333E0,-3.130480269E0,1.242344461E0,-4.438638943E0,5.571789851E0
9.917276333E0,-2.341960581E0,1.011306353E0,-4.716070030E0,5.361794143E0
9.927325333E0,-1.915770042E0,5.501563346E-1,-4.672135221E0,5.079536827E0
9.937374333E0,-1.628945988E0,1.454184991E-1,-4.222590757E0,4.528231915E0
9.947423333E0,-1.230561152E0,-8.601488113E-2,-4.245379695E0,4.420964608E0
9.957472333E0,-1.871202564E0,-2.540714604E-1,-3.634131652E0,4.095468740E0
9.967521333E0,-2.108827415E0,-5.771312946E-1,-2.291941305E0,3.167527197E0
9.977570333E0,-1.793008626E0,-1.349031588E0,-1.800109777E0,2.876658021E0
9.987619333E0,-9.707157855E-1,-2.269986765E0,-1.395325749E0,2.835853133E0
9.997668333E0,-9.072587315E-1,-2.992387455E0,-7.961434346E-1,3.226661658E0
1.000771733E1,-1.111384518E0,-3.403963024E0,2.897195222E-1,3.592502918E0
1.001776633E1,-1.234709605E0,-3.581298550E0,1.332483968E0,4.015684330E0
1.002781533E1,-6.014317381E-1,-2.996072955E0,1.996275676E0,3.650108199E0
1.003786433E1,2.007264349E-1,-1.541692082E0,2.656391825E0,3.077908885E0
1.004791333E1,-3.716804557E-1,1.062267761E0,2.702614065E0,2.927572704E0
1.005796233E1,-9.786657330E-1,4.456478214E0,2.219655102E0,5.073938653E0
1.006801133E1,-1.231918437E0,6.723682873E0,1.059426599E0,6.917219032E0
1.007806033E1,1.362879257E-1,6.762163399E0,-4.387714081E-3,6.763538090E0
1.008810933E1,2.378537692E0,5.975545079E0,-2.493148235E-1,6.436360651E0
1.009815833E1,4.426206886E0,4.704246960E0,9.467701949E-2,6.459892460E0
1.010820733E1,5.337759447E0,3.393867806E0,1.173805153E0,6.433337636E0
1.011825633E1,2.985882719E0,2.379590483E0,1.876853313E0,4.254471159E0
1.012830463E1,2.504141732E-1,1.940949907E0,2.000033097E0,2.798236264E0
1.013835363E1,-9.510844168E-1,1.598080875E0,1.945505472E0,2.691359433E0
1.014840263E1,-1.747264250E0,1.443962889E0,2.191922197E0,3.153170484E0
1.015845163E1,-2.088090849E0,1.593383222E0,2.200120139E0,3.426298603E0
1.016850063E1,-2.216012140E0,2.032541862E0,2.450930607E0,3.879303684E0
1.017854963E1,-2.205085302E0,2.167788545E0,2.586294819E0,4.031206923E0
1.018859862E1,-1.788909290E0,1.788685488E0,2.242777331E0,3.380775411E0
1.019864763E1,-3.232644868E0,2.070672140E0,2.973994745E0,4.856163166E0
1.020869663E1,-4.563172358E0,1.571867223E0,3.058468885E0,5.713802626E0
1.021874563E1,-1.813587317E0,3.366943717E-2,2.644495665E0,3.206803690E0
1.022879462E1,-3.072010159E-1,-3.112531364E-1,2.338783058E0,2.379318636E0
1.023884263E1,1.086754730E0,-6.110474843E-1,1.769960364E0,2.164988352E0
1.024889163E1,1.383400060E0,-9.718259525E-1,1.345303696E0,2.160574795E0
1.025894063E1,1.160328783E0,-1.373548379E0,9.392321107E-1,2.028584480E0
1.026898963E1,9.506964540E-1,-1.582489275E0,5.310947040E-1,1.920978302E0
1.027903862E1,5.247893590E-1,-1.548764874E0,-4.443065286E-1,1.694545602E0
1.028908763E1,2.666935524E-1,-1.454206041E0,-1.769908032E0,2.306168923E0
1.029913663E1,9.220942140E-2,-1.632802811E0,-2.924017131E0,3.350287119E0
1.030918563E1,5.520610651E-1,-1.929901593E0,-2.575898177E0,3.265661188E0
1.031923462E1,1.671429810E0,-2.001410701E0,-9.807052419E-1,2.785876016E0
1.032928363E1,3.034029278E0,-1.757223374E0,-7.491832763E-2,3.506961705E0
1.033933263E1,3.727966891E0,-1.749720227E0,2.112829980E-1,4.123578364E0
1.034938162E1,3.311731968E0,-1.813457801E0,3.051191148E-1,3.788046396E0
1.035943063E1,3.215376871E0,-1.828762888E0,4.615204391E-1,3.727737013E0
1.036947963E1,3.133379027E0,-1.716151947E0,4.789343244E-1,3.604527669E0
1.037952863E1,2.740958643E0,-1.527965743E0,2.684488866E-1,3.149539395E0
1.038957762E1,2.430647493E0,-1.524466769E0,2.924438131E-1,2.884019686E0
1.039962663E1,2.533352374E0,-1.750973870E0,4.037935102E-1,3.105935116E0
1.040967563E1,2.259652396E0,-1.975461928E0,4.860144255E-1,3.040507984E0
1.041972463E1,1.897261558E0,-2.444012766E0,5.655754423E-1,3.145262374E0
1.042977363E1,1.506977455E0,-3.628454590E0,8.350864756E-1,4.016719206E0
1.043982263E1,1.680560530E0,-5.002760183E0,6.827472121E-1,5.321469431E0
1.044987163E1,1.062406632E0,-3.788503407E0,-3.899323931E-1,3.953923771E0
1.045992062E1,-3.606138691E-1,-1.809281135E0,9.135251194E-2,1.847129089E0
1.046996963E1,-1.508304188E0,-1.388321369E0,1.242749088E0,2.397257401E0
1.048001863E1,-1.639741702E0,-5.898583442E-1,1.635490484E0,2.389877578E0
1.049006763E1,-2.036353077E0,4.893172252E-1,1.005235773E0,2.323072139E0
1.050011663E1,-2.660039318E0,2.480762517E0,-3.381728402E-1,3.652992295E0
1.051016563E1,-3.385145807E0,4.524190725E0,-1.736611354E0,5.911288595E0
1.052021463E1,-3.938248846E0,4.969549168E0,-2.059354270E0,6.666870549E0
1.053026362E1,-3.906355501E0,3.256917245E0,-2.422143888E0,5.633285387E0
1.054031263E1,-3.643081692E0,2.363069175E0,-2.312386680E0,4.919682134E0
1.055036163E1,-3.493917759E0,2.602924885E0,-2.196714428E0,4.879368150E0
1.056041063E1,-2.603114920E0,2.273576370E0,-3.349654670E0,4.813059651E0
1.057045962E1,-5.943452051E-1,1.636520471E0,-4.368627892E0,4.702802901E0
1.058050863E1,2.003562184E0,1.177715186E0,-2.982566763E0,3.781134616E0
1.059055763E1,1.588252875E0,5.703906244E-1,-2.635493584E0,3.129491826E0
1.060060662E1,-1.541215826E0,-9.171831375E-1,-1.080188600E0,2.093651963E0
1.061065563E1,-3.049370618E0,-1.554107475E0,3.911860362E-1,3.444842191E0
1.062070463E1,-1.589822560E0,-4.911544204E-1,-3.152260271E-1,1.693557169E0
1.063075363E1,5.051658109E-1,1.934461251E0,-7.897226071E-1,2.149649885E0
1.064080262E1,2.819161937E-1,5.016409339E0,2.639900923E-1,5.031255327E0
1.065085163E1,3.048621297E-1,7.961031473E0,9.133345002E-1,8.019048756E0
1.066090063E1,1.285443703E0,9.458035040E0,8.212841231E-1,9.580255735E0
1.067094963E1,1.306844512E0,4.954358101E0,-1.397747958E0,5.311045672E0
1.068099863E1,1.605222372E0,2.604612976E-1,-1.653560134E0,2.319232647E0
1.069104763E1,2.599503095E0,5.937648690E-1,8.632282475E-1,2.802701566E0
1.070109563E1,1.517486948E0,2.478494967E0,1.546987320E0,3.292244478E0
1.071114463E1,2.069598591E-1,1.910740267E0,9.063438615E-1,2.124904691E0
1.072119363E1,7.791745225E-1,-3.459037364E-2,1.463995596E0,1.658792493E0
1.073124262E1,1.720573904E0,-1.263063485E0,2.308149495E0,3.143764943E0
1.074129163E1,2.173800944E0,-1.460739720E0,2.231845085E0,3.440974216E0
1.075134063E1,2.501167545E0,-1.186626343E0,1.414652112E0,3.108884328E0
1.076138963E1,2.575471915E0,-1.264535229E0,6.450065048E-1,2.940771722E0
1.077143863E1,2.426594496E0,-1.352637566E0,5.625302124E-1,2.834506919E0
1.078148763E1,2.452825398E0,-6.367933595E-1,8.253679647E-1,2.665162376E0
1.079153663E1,2.531370168E0,8.641389513E-1,7.078067704E-1,2.766868533E0
1.080158562E1,2.602445121E0,1.908381500E0,3.023804252E-1,3.241307526E0
1.081163463E1,2.874832985E0,2.273184022E0,-2.265610416E-1,3.671969525E0
1.082168363E1,2.330996613E0,2.046869295E0,-3.209945977E-1,3.118694703E0
1.083173263E1,2.305211269E0,1.137126739E0,-3.590892076E-1,2.595380757E0
1.084178163E1,3.037846048E0,-1.029922718E-1,-3.292917967E-1,3.057376180E0
1.085183063E1,3.030291445E0,-8.037044692E-1,-1.493378878E-2,3.135096511E0
1.086187963E1,2.498598571E0,-6.489608306E-1,4.802107716E-1,2.625785095E0
1.087192862E1,2.306245057E0,-5.917253602E-1,5.399633221E-1,2.441406470E0
1.088197763E1,2.394094502E0,-8.142844212E-1,3.728303106E-1,2.556120115E0
1.089202663E1,2.768571827E0,-9.115095842E-1,1.256262589E-1,2.917468361E0
1.090207563E1,3.267890422E0,-6.948608887E-1,-1.307741475E-1,3.343507342E0
1.091212462E1,2.515880894E0,-1.130524063E-1,-1.451803713E-1,2.522600813E0
1.092217363E1,1.162257487E0,1.423142123E-1,-7.490575612E-3,1.170961959E0
1.093222263E1,8.190335298E-1,-3.873669273E-1,-1.182038033E-1,9.136964476E-1
1.094227162E1,6.161515188E-1,-3.512527692E-1,1.865029366E-1,7.333515851E-1
1.095232063E1,6.285470313E-1,-8.894521326E-1,-2.558142230E-2,1.089426857E0
1.096236963E1,-4.260676011E-1,-4.405315661E-1,-6.855683474E-1,9.195681707E-1
1.097241863E1,-1.476634791E0,3.905723709E-1,-9.657914798E-1,1.807138696E0
1.098246762E1,1.962995079E-1,1.062075972E0,-1.833325471E0,2.127820751E0
1.099251663E1,5.077613314E0,1.854860181E0,-1.229062511E0,5.543758465E0
1.100256563E1,4.037805001E0,1.776979362E0,1.556007089E0,4.677893002E0
1.101261463E1,1.975248504E0,1.751731085E0,2.261237430E0,3.476113226E0
1.102266363E1,9.150576746E-1,1.230268207E0,1.513700291E0,2.154571646E0
1.103271263E1,5.132250282E-1,3.707614195E-1,3.835353930E-1,7.402454711E-1
1.104276163E1,1.039304868E0,-2.926864725E-1,-6.571020551E-1,1.263963247E0
1.105281062E1,1.243383073E0,-5.291461194E-1,-1.618946664E0,2.108787657E0
1.106285963E1,7.874196813E-1,-8.727554083E-1,-2.089045261E0,2.397048573E0
1.107290863E1,2.786107627E-1,-1.410368296E0,-1.883520455E0,2.369475045E0
1.108295763E1,3.671471094E-1,-1.789155019E0,-1.456847959E0,2.336295927E0
1.109300663E1,2.066642824E-1,-1.907930680E0,-1.193406190E0,2.259895559E0
1.110305563E1,1.259738758E-1,-1.989677094E0,-1.105899172E0,2.279845901E0
1.111310463E1,2.322082825E-1,-1.972675145E0,-1.352867947E0,2.403251879E0
1.112315358E1,3.036501481E-1,-1.990630774E0,-1.771708682E0,2.682119674E0
1.113320258E1,-2.339827663E-1,-1.939097509E0,-1.637316277E0,2.548656837E0
1.114325158E1,-1.065510480E0,-1.726503273E0,-1.434493908E0,2.484733166E0
1.115330058E1,-1.536077000E0,-1.472187399E0,-1.642229108E0,2.687709942E0
1.116334958E1,-1.209405634E0,-1.315315958E0,-1.890111290E0,2.601007256E0
1.117339858E1,-2.544507985E-1,-1.770481351E0,-2.803335278E0,3.325362853E0
1.118344758E1,-2.426533100E-1,-2.378894665E0,-3.024575792E0,3.855655479E0
1.119349658E1,-4.021136051E-1,-2.210702430E0,-2.277792798E0,3.199568817E0
1.120354458E1,-5.676745927E-1,-1.700194311E0,-1.182756656E0,2.147516809E0
1.121359358E1,-1.133401186E0,-8.657100981E-1,-8.657241315E-1,1.668391589E0
1.122364258E1,-1.427543176E0,4.360748184E-1,-1.682024673E0,2.248832534E0
1.123369158E1,-1.371323513E0,1.539117553E0,-2.354039320E0,3.129043327E0
1.124374058E1,-2.261569844E0,1.995567579E0,-2.317570821E0,3.803698546E0
1.125378958E1,-3.197715356E0,1.880203768E0,-1.544564819E0,4.018237199E0
1.126383858E1,-3.222751379E0,1.426712433E0,-1.260453288E0,3.743043856E0
1.127388758E1,-2.445712698E0,1.110653470E0,-2.153357617E0,3.442674942E0
1.128393658E1,-1.841863283E0,1.202908500E0,-3.169306659E0,3.857972772E0
1.129398558E1,-1.145179890E0,1.125334659E0,-4.128860475E0,4.430045586E0
1.130403458E1,-5.700819645E-1,3.993484569E-1,-4.825501256E0,4.875442032E0
1.131408358E1,-6.690845349E-1,5.383350188E-1,-4.964373797E0,5.038103404E0
1.132413258E1,-1.505256619E0,3.204414511E-1,-4.523635824E0,4.778259232E0
1.133418158E1,-1.665737838E0,-1.497284818E-1,-3.720863401E0,4.079451632E0
1.134423058E1,-2.220262481E0,-5.006105375E-1,-2.848289257E0,3.645946802E0
1.135427958E1,-2.482519605E0,-7.420169288E-1,-1.676889063E0,3.086332717E0
1.136432858E1,-1.923415569E0,-1.125307762E0,-9.659238461E-1,2.428755625E0
1.137437758E1,-1.417680678E0,-1.694783882E0,-3.618958712E-1,2.238990740E0
1.138442658E1,-1.533483176E0,-1.928692973E0,9.383026958E-2,2.465812514E0
1.139447558E1,-1.879037541E0,-1.971405129E0,6.337592393E-1,2.796224425E0
1.140452458E1,-1.489123713E0,-1.955412410E0,1.290520256E0,2.776070902E0
1.141457358E1,-4.808622245E-1,-1.797636990E0,1.523630033E0,2.405031331E0
1.142462258E1,6.281410883E-1,-1.482779630E0,1.267404458E0,2.049270777E0
1.143467158E1,1.626254076E0,-8.876541138E-1,8.516206473E-1,2.039090452E0
1.144472058E1,2.092140485E0,3.167226219E-1,6.927716786E-1,2.226498962E0
1.145476958E1,1.802705941E0,1.755016635E0,6.054160309E-1,2.587732728E0
1.146481858E1,1.227267708E0,2.759133251E0,5.055959101E-1,3.061801684E0
1.147486758E1,2.199936975E0,2.859196653E0,-2.404889266E-1,3.615599966E0
1.148491658E1,3.996335379E0,3.217705817E0,-8.401946763E-1,5.199062827E0
1.149496558E1,5.451938027E0,3.222215189E0,-6.706733695E-1,6.368367275E0
1.150501458E1,6.093964645E0,3.134671261E0,4.515746907E-1,6.867786303E0
1.151506358E1,4.099372382E0,3.493038923E0,1.178822211E0,5.513238308E0
1.152511258E1,1.434017944E0,4.465872350E0,1.700113180E0,4.989068865E0
1.153516158E1,4.928033352E-2,5.086901032E0,2.215249225E0,5.548542132E0
1.154521058E1,-9.453491753E-1,4.976882161E0,3.431802202E0,6.118848541E0
1.155525958E1,-1.894481061E0,3.711220173E0,3.876010498E0,5.690840978E0
1.156530858E1,-2.343596339E0,2.342367108E0,4.267302369E0,5.402684238E0
1.157535758E1,-3.571143106E0,2.038591976E0,4.240089427E0,5.906545410E0
1.158540658E1,-4.887107520E0,1.408207750E0,3.803939179E0,6.351127637E0
1.159545558E1,-5.724902426E0,3.239310694E-1,3.281738968E0,6.606757887E0
1.160550458E1,-3.554746051E0,-2.441791409E-1,1.922417157E0,4.048645535E0
1.161555358E1,-8.058680852E-1,-2.090981859E-1,1.650637404E0,1.848715571E0
1.162560258E1,-4.385075524E-2,-1.064233010E0,9.781713510E-1,1.446144522E0
1.163565158E1,7.251598446E-1,-1.622700577E0,1.905209970E-1,1.787543625E0
1.164570058E1,1.146023862E0,-1.492391868E0,3.676159099E-1,1.917223419E0
1.165574958E1,1.332035779E0,-1.654270279E0,1.218655636E0,2.448683530E0
1.166579858E1,1.486236504E0,-1.531741875E0,2.186952209E0,3.055796473E0
1.167584758E1,1.343837214E0,-1.264401328E0,2.381266880E0,3.012480893E0
1.168589658E1,9.821524277E-1,-1.104480565E0,1.557049355E0,2.146835672E0
1.169594558E1,7.085410345E-1,-1.574134188E0,-1.709679079E-1,1.734692730E0
1.170599458E1,1.178867088E0,-1.403560967E0,-1.479250835E0,2.355396789E0
1.171604358E1,1.995448880E0,-9.083702141E-1,-2.006313884E0,2.971909837E0
1.172609158E1,2.326117696E0,-8.016497576E-1,-2.006839549E0,3.175038715E0
1.173614058E1,1.740755276E0,-1.332746508E0,-1.444334625E0,2.625365631E0
1.174618958E1,1.044412118E0,-1.798977172E0,-5.852770507E-1,2.160940713E0
1.175623858E1,1.257656272E0,-1.830272055E0,3.676185411E-1,2.250941689E0
1.176628758E1,1.770056551E0,-1.592787976E0,1.099339693E0,2.622712620E0
1.177633658E1,1.576439161E0,-1.519362150E0,1.226256724E0,2.509447613E0
1.178638558E1,1.175166093E0,-1.639430630E0,8.681931183E-1,2.196020817E0
1.179643458E1,1.102955903E0,-1.764914802E0,5.006517604E-1,2.140581268E0
1.180648358E1,1.052144476E0,-1.783134141E0,1.627970088E-1,2.076795182E0
1.181653258E1,8.146846631E-1,-1.895746252E0,-5.086434424E-2,2.064013598E0
1.182658158E1,5.524461043E-1,-2.464950476E0,-1.568296328E-1,2.530962877E0
1.183663058E1,9.875578862E-1,-4.223156183E0,-4.145442009E-1,4.356852719E0
1.184667958E1,-1.795659462E-1,-3.597169647E0,-1.031841482E0,3.746541104E0
1.185672858E1,-2.023065864E0,-7.758266991E-1,-8.945099741E-1,2.344109778E0
1.186677758E1,-1.213170948E0,-1.870298585E0,2.356030297E-1,2.241720173E0
1.187682658E1,-1.322869391E0,-1.005882475E0,1.098545933E0,1.992131057E0
1.188687558E1,-1.713018132E0,1.889820099E-3,1.421642020E0,2.226095399E0
1.189692458E1,-1.722414022E0,4.671574473E-1,1.248825807E0,2.178190084E0
1.190697358E1,-1.841221551E0,8.341731405E-1,1.007651843E0,2.258606620E0
1.191702258E1,-2.290486811E0,1.396070684E0,-6.936420366E-2,2.683310377E0
1.192707158E1,-2.882930209E0,1.301594297E0,-1.091006533E0,3.346002026E0
1.193712058E1,-2.641667659E0,1.234228526E0,-1.452677579E0,3.257606517E0
1.194716958E1,-2.907779121E0,1.608054471E0,-2.470501530E0,4.140579236E0
1.195721858E1,-2.696376548E0,1.557033421E0,-5.244456596E0,6.099108505E0
1.196726758E1,-2.437138780E0,1.392315602E0,-6.667757764E0,7.234444123E0
1.197731658E1,-1.793615275E0,9.180666518E-1,-5.287345923E0,5.658262016E0
1.198736558E1,-1.038363466E0,4.893827140E-2,-2.400018024E0,2.615469395E0
1.199741458E1,-1.696969279E0,-1.374126669E0,-2.285793543E-2,2.183678392E0
1.200746358E1,-2.127747397E0,-1.197578178E0,9.135289201E-1,2.606921089E0
1.201751258E1,-3.367233154E-1,6.883523530E-1,1.275948994E0,1.488374076E0
1.202756158E1,7.767871043E-1,4.079983014E0,2.069902939E0,4.640491114E0
1.203761058E1,4.117319825E-1,8.017227309E0,1.886662602E0,8.246511549E0
1.204765958E1,1.040967816E0,1.057631854E1,1.812274617E0,1.078083796E1
1.205770858E1,1.472687920E0,1.004153337E1,1.445195774E0,1.025133127E1
1.206775758E1,7.174282175E-1,4.712758752E0,-1.353840923E-1,4.768975483E0
1.207780658E1,8.439578712E-1,2.422656396E0,2.494632697E-1,2.577549384E0
1.208785558E1,-3.114940417E-1,2.853277516E0,7.622991657E-1,2.969734187E0
1.209790458E1,-1.400376574E0,2.293509529E0,1.140019357E0,2.919055436E0
1.210795358E1,-7.808702150E-1,6.349468088E-1,1.637181791E0,1.921790821E0
1.211800258E1,7.754130086E-1,-1.149994122E0,2.156009621E0,2.563616450E0
1.212805183E1,1.892965609E0,-1.954889669E0,2.175640186E0,3.484009563E0
1.213810083E1,2.509490180E0,-1.822443218E0,1.911384338E0,3.643107236E0
1.214814983E1,2.632555066E0,-1.080279524E0,1.493800754E0,3.213843605E0
1.215819883E1,2.339931743E0,-4.070088941E-1,1.114744475E0,2.623660048E0
1.216824783E1,2.110759481E0,3.550441039E-1,1.357565307E0,2.534629256E0
1.217829683E1,2.016207080E0,1.405404010E0,1.703558506E0,2.990378405E0
1.218834583E1,2.695176114E0,2.073098735E0,1.135495658E0,3.584837938E0
1.219839483E1,3.645875199E0,2.255243011E0,2.963567698E-1,4.297249625E0
1.220844383E1,4.581013382E0,1.873927367E0,-1.323587430E-1,4.951242896E0
1.221849283E1,5.489042119E0,8.499904436E-1,-6.636880665E-1,5.593974346E0
1.222854183E1,5.627900627E0,-2.558127612E-1,-1.119378247E0,5.743841336E0
1.223859083E1,4.312122154E0,-1.197237285E0,-9.459529004E-1,4.574123028E0
1.224863983E1,3.729205332E0,-1.227550421E0,-1.099441727E-1,3.927587066E0
1.225868883E1,3.997934884E0,-1.061598839E0,2.426749447E-1,4.143593436E0
1.226873783E1,4.199921687E0,-4.767778713E-1,4.412145209E-1,4.249862300E0
1.227878683E1,3.877447451E0,1.371294862E-1,3.062549365E-1,3.891939789E0
1.228883583E1,4.173669150E0,6.534357047E-1,-4.330048840E-1,4.246644043E0
1.229888383E1,4.735982431E0,8.637144434E-1,-1.443952364E0,5.025985541E0
1.230893283E1,3.688626824E0,5.100643158E-1,-1.844706637E0,4.155607781E0
1.231898183E1,2.149875600E0,4.943452460E-1,-1.442050849E0,2.635498619E0
1.232903083E1,1.643169048E0,-2.363035262E-2,-7.633681829E-1,1.811986174E0
1.233907983E1,1.105079319E0,-6.011002010E-1,2.227072880E-2,1.258180329E0
1.234912883E1,3.753231248E-1,-1.039322702E0,1.023017156E-1,1.109740856E0
1.235917783E1,-1.271374717E-1,-8.681741148E-1,-2.049637659E-1,9.010551458E-1
1.236922683E1,-9.190992701E-1,-9.202997035E-1,-8.855948706E-1,1.573522573E0
1.237927583E1,-1.899458357E0,-1.147233651E0,-1.826398859E0,2.873990239E0
1.238932483E1,-1.886088991E0,-1.007651258E0,-1.812308239E0,2.803061521E0
1.239937383E1,-7.239975643E-1,-5.795140350E-1,-1.022254679E0,1.380222308E0
1.240942283E1,1.833327225E-1,-3.641002715E-1,-2.047462495E-1,4.561807991E-1
1.241947183E1,-4.212904260E-1,1.542969114E-1,1.184638728E0,1.266752571E0
1.242952083E1,-3.655215834E-1,1.667386168E-1,2.371038930E0,2.404835421E0
1.243956983E1,-1.035327007E-1,1.071034491E-2,8.514912777E-1,8.578293114E-1
1.244961883E1,-1.208091033E0,3.445296407E-1,9.298185320E-1,1.562929020E0
1.245966783E1,-1.153166821E0,2.026791126E-1,1.081980625E0,1.594225396E0
1.246971683E1,-7.305600406E-1,-1.315453953E-1,6.356788802E-1,9.772971926E-1
1.247976583E1,-6.644037656E-1,-4.207118440E-1,-4.576045588E-2,7.877339899E-1
1.248981483E1,-5.185543267E-1,-6.557623118E-1,-6.826859625E-1,1.079343746E0
1.249986383E1,-6.919273406E-1,-7.064910007E-1,-1.190327046E0,1.547504913E0
1.250991283E1,-9.540771680E-1,-7.031563336E-1,-1.139602450E0,1.644197621E0
1.251996183E1,-1.039200349E0,-7.774569029E-1,-5.162905772E-1,1.396757875E0
1.253001083E1,-8.328811982E-1,-9.331138766E-1,4.189186491E-2,1.251458160E0
1.254005983E1,-8.751257233E-1,-9.282536709E-1,3.802362478E-1,1.331194769E0
1.255010883E1,-7.321427357E-1,-6.712334597E-1,4.764462610E-1,1.101629875E0
1.256015783E1,2.599357791E-1,-6.626140791E-1,3.735551461E-1,8.038454293E-1
1.257020683E1,9.845686434E-1,-1.033824565E0,-1.334884981E-1,1.433871620E0
1.258025583E1,1.208200376E0,-1.608778941E0,-8.944404653E-1,2.201804164E0
1.259030483E1,1.277025905E0,-2.024766235E0,-1.727697859E0,2.952187894E0
1.260035383E1,9.033230437E-1,-2.026032157E0,-2.396592432E0,3.265647579E0
1.261040283E1,-1.273378851E-1,-1.535680559E0,-2.550707495E0,2.980040007E0
1.262045183E1,-6.898602037E-1,-7.684861046E-1,-2.716554412E0,2.906225364E0
1.263050083E1,-4.521866749E-1,-2.935489368E-1,-2.849982026E0,2.900524317E0
1.264054983E1,-1.946716431E-1,-3.489559829E-2,-2.863753388E0,2.870574545E0
1.265059883E1,-1.549781120E-1,3.983848357E-1,-2.292794999E0,2.332303068E0
1.266064783E1,-2.958004072E-1,7.150869924E-1,-1.572731441E0,1.752806742E0
1.267069683E1,-6.920951557E-1,7.613279432E-1,-1.218215926E0,1.594573919E0
1.268074583E1,-1.527924959E0,6.080624807E-1,-1.270183640E0,2.077898250E0
1.269079483E1,-2.214542881E0,3.972890675E-1,-1.626688963E0,2.776356562E0
1.270084383E1,-2.567329960E0,-7.151086271E-2,-2.111407353E0,3.324806451E0
1.271089283E1,-2.208135941E0,-5.367673802E-1,-2.703025709E0,3.531335659E0
1.272094183E1,-1.603743904E0,-5.999278343E-1,-3.398161417E0,3.805181852E0
1.273099083E1,-1.652364087E0,-5.878597659E-1,-3.754369701E0,4.143812017E0
1.274103983E1,-2.150592761E0,-2.872286814E-1,-4.030053640E0,4.576994852E0
1.275108883E1,-2.725467322E0,5.673670292E-2,-3.675883110E0,4.576407742E0
1.276113783E1,-4.217326801E0,1.357015961E-1,-2.510523090E0,4.909886603E0
1.277118683E1,-5.681729509E0,5.973047733E-2,-7.139315826E-1,5.726719502E0
1.278123583E1,-6.434088408E0,-2.312117708E-1,3.894672471E-1,6.450010641E0
1.279128483E1,-5.437483710E0,-8.246673220E-1,1.294462448E-1,5.501187292E0
1.280133383E1,-1.941092433E0,-1.187050851E0,-2.797307740E-2,2.275458646E0
1.281138283E1,-2.969550861E-1,-1.610917853E0,-1.804672945E-1,1.647970599E0
1.282143183E1,-1.671097688E-1,-2.169004766E0,-2.679977739E-1,2.191878226E0
1.283148083E1,-6.713334471E-3,-2.210157470E0,5.561169863E-2,2.210867199E0
1.284152983E1,3.414575136E-1,-1.855968813E0,1.510639858E-1,1.893154457E0
1.285157883E1,8.161067060E-1,-1.303507506E0,-6.560950184E-1,1.672011557E0
1.286162783E1,1.267400073E0,-2.594164002E-1,-7.093631530E-1,1.475396860E0
1.287167683E1,1.665571046E0,6.866151452E-1,-1.115668554E0,2.119028926E0
1.288172583E1,2.272611580E0,1.046519455E0,-8.179669976E-1,2.632306284E0
1.289177483E1,2.897478374E0,1.076023335E0,-5.540236831E-2,3.091322786E0
1.290182383E1,3.284165854E0,1.264251639E0,8.454828250E-1,3.619242845E0
1.291187283E1,3.727191258E0,1.653470380E0,1.885085024E0,4.492155887E0
1.292192183E1,4.467018697E0,1.918740427E0,2.269820119E0,5.365436072E0
1.293197083E1,6.157924998E0,2.271336302E0,1.676795508E0,6.774263949E0
1.294201983E1,7.881711069E0,2.639000452E0,6.675051288E-1,8.338540392E0
1.295206883E1,4.236551861E0,2.889070662E0,8.831421098E-1,5.203368231E0
1.296211783E1,8.104368071E-1,3.033735455E0,1.770558827E0,3.604890732E0
1.297216683E1,5.580125074E-1,3.743454119E0,2.769222914E0,4.689714517E0
1.298221483E1,-6.465753128E-1,4.462983241E0,3.792525999E0,5.892328275E0
1.299226383E1,-2.779787956E0,4.606454033E0,4.521944517E0,7.028130765E0
1.300231283E1,-5.152306817E0,3.990938106E0,4.097224407E0,7.698123170E0
1.301236183E1,-7.144604632E0,3.166984729E0,2.040252293E0,8.076991831E0
1.302241083E1,-7.693219056E0,1.686110707E0,6.800788352E-1,7.905130991E0
1.303245983E1,-7.319007779E0,-3.257706034E-1,8.291489205E-1,7.373024433E0
1.304250883E1,-3.796833351E0,-1.998784132E0,1.223160331E0,4.461748838E0
1.305255783E1,-2.622431781E0,-1.382218630E0,1.601611424E0,3.369396970E0
1.306260683E1,-1.682011809E0,-2.632966125E-1,1.570117736E0,2.315978958E0
1.307265583E1,2.664649263E-1,-3.127441764E-2,8.584721223E-1,8.994198301E-1
1.308270483E1,5.030157897E-1,-5.596522129E-1,2.528464687E-1,7.938304736E-1
1.309275383E1,-2.362362832E-2,-9.920871395E-1,7.682741430E-1,1.255006027E0
1.310280283E1,4.950197223E-1,-7.286227119E-1,1.163027858E0,1.458961747E0
1.311285183E1,1.278673797E0,-5.596241462E-1,9.976036951E-1,1.715633701E0
1.312290125E1,2.036136146E0,-5.633254337E-1,5.934172520E-1,2.194386015E0
1.313295025E1,2.927319639E0,-4.760405374E-1,3.573815283E-1,2.987228886E0
1.314299925E1,3.675756226E0,-3.567351186E-1,2.907118678E-1,3.704450994E0
1.315304825E1,4.256332407E0,-3.753725338E-1,5.183524516E-1,4.304179290E0
1.316309725E1,3.426890249E0,-6.308929342E-1,8.956586596E-1,3.597750284E0
1.317314625E1,2.748931029E0,-7.799396306E-1,8.928923419E-1,2.993690760E0
1.318319525E1,2.535825162E0,-8.531479400E-1,1.056983924E0,2.876714389E0
1.319324425E1,2.429876246E0,-9.671242064E-1,1.102327912E0,2.838089961E0
1.320329325E1,2.265227131E0,-8.801573986E-1,8.595064947E-1,2.577728150E0
1.321334225E1,2.018384876E0,-6.365062612E-1,6.010961080E-1,2.200075967E0
1.322339125E1,1.677536935E0,-3.631074142E-1,5.650883693E-1,1.807014672E0
1.323344025E1,1.197913224E0,-1.915465987E-1,6.199504548E-1,1.362359995E0
1.324348925E1,6.664773345E-1,-7.963849247E-2,6.988712016E-1,9.689970502E-1
1.325353825E1,3.645458293E-1,-1.551026577E-1,6.981917551E-1,8.027591314E-1
1.326358725E1,2.044540349E-1,-2.367496687E-1,6.216268516E-1,6.958964008E-1
1.327363625E1,6.167371175E-1,-2.099411205E0,3.238559327E-1,2.211961741E0
1.328368525E1,-3.852268463E-1,-1.722900803E0,-2.095191854E-1,1.777831598E0
1.329373425E1,-2.334308476E0,1.050428318E0,5.324825406E-1,2.614561793E0
1.330378325E1,-1.975238272E0,7.600234294E-1,9.091929173E-1,2.303439516E0
1.331383225E1,-2.044660509E0,4.348720461E-1,1.700968482E0,2.695003538E0
1.332388125E1,-1.256441806E0,-4.113960600E-1,1.588817132E0,2.066937978E0
1.333393025E1,-1.186133130E0,-1.228365523E-1,5.630342424E-1,1.318714594E0
1.334397925E1,-5.280982983E-1,5.531705743E-1,-2.560171214E-1,8.064925687E-1
1.335402825E1,3.044934627E-1,-2.374916804E-1,-3.956728971E-1,5.528793798E-1
1.336407725E1,1.020514548E-1,-1.021006299E0,-6.258043948E-1,1.201873330E0
1.337412625E1,-4.443413195E-1,-7.161640495E-1,-7.576158383E-1,1.133274862E0
1.338417525E1,-9.967456162E-1,-7.203307754E-1,-1.097236741E0,1.648122179E0
1.339422425E1,-2.106975456E0,-7.557900453E-1,-1.629235717E0,2.768568797E0
1.340427325E1,-2.565493057E0,-7.657156938E-1,-2.139363183E0,3.427090600E0
1.341432225E1,-2.907263689E0,-5.680412132E-1,-2.252602700E0,3.721434119E0
1.342437125E1,-3.601427590E0,-4.961111051E-1,-2.264449744E0,4.283005902E0
1.343442025E1,-3.872137887E0,-8.967576438E-1,-1.908627960E0,4.409136738E0
1.344446925E1,-3.548884802E0,-1.310739343E0,-1.334951493E0,4.011822086E0
1.345451825E1,-3.440160797E0,-1.170152982E0,-8.606730142E-1,3.734263294E0
1.346456725E1,-3.476836288E0,-5.754496354E-1,-6.431361267E-1,3.582339589E0
1.347461625E1,-2.711891257E0,7.111424607E-1,-1.525655508E-2,2.803624538E0
1.348466525E1,-2.226824081E0,2.889433190E0,7.208622873E-1,3.718495943E0
1.349471425E1,-2.291690752E0,5.580632905E0,1.295044246E0,6.170287653E0
1.350476325E1,-2.106191929E0,7.431473710E0,1.549343163E0,7.878027049E0
1.351481225E1,-1.880923560E0,7.457345300E0,1.690470391E0,7.874488079E0
1.352486125E1,-1.428116934E0,5.797648221E0,2.129729603E0,6.339399897E0
1.353491025E1,-7.761275384E-1,3.589323853E0,1.428420990E0,3.940305344E0
1.354495925E1,-5.093214270E-1,1.949855216E0,3.968052104E-1,2.053971289E0
1.355500825E1,-6.380151352E-1,1.054726607E0,1.423074880E-1,1.240871850E0
1.356505725E1,-2.009123763E-1,1.153386676E-1,8.533435294E-1,8.842307224E-1
1.357510625E1,9.265226027E-1,-6.736559612E-1,2.364502036E0,2.627380133E0
1.358515525E1,1.726450355E0,-9.416005254E-1,2.987725177E0,3.576834370E0
1.359520425E1,2.176026979E0,-8.111187387E-1,2.637434567E0,3.514124090E0
1.360525325E1,2.542638045E0,-7.298061883E-1,1.991265782E0,3.311006602E0
1.361530225E1,2.899726336E0,-6.806790519E-1,1.534722493E0,3.350687978E0
1.362535125E1,2.823586817E0,-2.469594920E-1,1.331394632E0,3.131492163E0
1.363540025E1,2.176201811E0,3.666952658E-1,1.409809302E0,2.618755813E0
1.364544925E1,2.406218119E0,1.264427640E0,1.303979377E0,3.014801006E0
1.365549825E1,3.166183953E0,1.777754703E0,7.909157315E-1,3.716272366E0
1.366554725E1,3.957692885E0,1.821719332E0,1.547442234E-1,4.359580263E0
1.367559625E1,4.370218627E0,1.628840153E0,-1.689380470E-1,4.666955234E0
1.368564525E1,4.610819856E0,1.325802355E0,-4.464205894E-1,4.818371403E0
1.369569425E1,4.599666000E0,9.345066833E-1,-6.352986650E-1,4.736436894E0
1.370574325E1,4.538611713E0,4.235266936E-1,-8.137479392E-1,4.630394891E0
1.371579225E1,4.549433740E0,5.857155919E-3,-8.483774891E-1,4.627864089E0
1.372584125E1,5.318316286E0,2.851213449E-1,-6.764114615E-1,5.368734931E0
1.373589025E1,5.746579224E0,9.809125257E-1,-4.359672296E-1,5.845975503E0
1.374593925E1,5.711585977E0,1.468470324E0,-2.760719016E-1,5.903798367E0
1.375598825E1,4.705111471E0,1.881934544E0,1.451993747E-1,5.069599041E0
1.376603725E1,3.546147136E0,1.944473439E0,6.630429724E-1,4.098263345E0
1.377608625E1,3.134748152E0,1.205592957E0,2.385381858E-1,3.367046305E0
1.378613525E1,2.506996342E0,5.502726942E-1,-6.083009009E-1,2.637775708E0
1.379618425E1,1.811854202E0,1.978879040E-1,-8.240621352E-1,2.000263402E0
1.380623325E1,1.304458556E0,-1.391754270E-1,-3.182304727E-1,1.349908351E0
1.381628225E1,1.172480759E0,-5.281099927E-1,4.622646435E-1,1.366491820E0
1.382633125E1,6.396573257E-1,-7.288168395E-1,9.062869973E-1,1.327287309E0
1.383638025E1,-2.115297505E-1,-7.327455837E-1,8.161647396E-1,1.117043333E0
1.384642925E1,-4.534047961E-1,-7.356305999E-1,4.587655234E-1,9.783629664E-1
1.385647825E1,9.534352899E-2,-7.930134201E-1,-2.549634531E-1,8.384312944E-1
1.386652725E1,7.361469090E-1,-6.465839374E-1,-9.630190225E-1,1.373822659E0
1.387657625E1,9.793820170E-1,-1.469107085E-1,-7.774855542E-1,1.259069370E0
1.388662525E1,1.093356529E0,3.180043316E-1,1.721971388E-1,1.151610659E0
1.389667425E1,1.464295996E0,3.535062861E-1,3.036963411E-1,1.536672030E0
1.390672325E1,1.790800133E0,6.309239244E-1,-2.644659095E-1,1.917021735E0
1.391677225E1,2.342433182E0,8.475118089E-1,-9.047630668E-1,2.650257664E0
1.392682125E1,2.891510705E0,8.099644983E-1,-1.136925595E0,3.210837345E0
1.393687025E1,3.301749894E0,7.920404434E-1,-9.908200479E-1,3.537033332E0
1.394691925E1,2.516936901E0,6.244557345E-1,-7.356088190E-1,2.695558692E0
1.395696825E1,1.298302315E0,1.864022183E-1,-4.553753078E-1,1.388416853E0
1.396701625E1,5.401842007E-1,-2.343879783E-1,6.006011412E-2,5.918985660E-1
1.397706525E1,-9.458660692E-2,-6.269630206E-1,2.606663887E-1,6.855481176E-1
1.398711425E1,-7.255719271E-1,-9.593573499E-1,-6.932312697E-3,1.202858763E0
1.399716325E1,-7.864315018E-1,-1.125765014E0,-4.440048122E-1,1.443246912E0
1.400721225E1,-2.839223734E-1,-1.205788254E0,-6.994800429E-1,1.422606607E0
1.401726125E1,3.714472979E-1,-1.298193557E0,-8.256104779E-1,1.582691463E0
1.402731025E1,8.516349730E-1,-1.297011250E0,-9.609628491E-1,1.825094492E0
1.403735925E1,1.112087792E0,-1.198004440E0,-1.188468801E0,2.020992822E0
1.404740825E1,1.272299162E0,-9.699139130E-1,-1.451030857E0,2.159853862E0
1.405745725E1,1.328819518E0,-5.181071609E-1,-1.929887559E0,2.399721303E0
1.406750625E1,1.554901819E0,7.062033176E-2,-2.335356735E0,2.806527744E0
1.407755525E1,1.534388617E0,3.598949540E-1,-2.526728064E0,2.977956936E0
1.408760425E1,1.239384893E0,8.191329324E-1,-2.619942037E0,3.011834981E0
1.409765325E1,8.223354524E-1,1.418346237E0,-2.433959649E0,2.934638175E0
1.410770225E1,4.749357060E-1,1.809434332E0,-1.999206301E0,2.737963178E0
1.411775125E1,2.403296265E-1,1.822441463E0,-1.814067081E0,2.582613133E0
1.412780025E1,-2.097191602E-1,1.546656368E0,-1.901325080E0,2.459911606E0
1.413784925E1,-7.135330948E-1,1.063910244E0,-1.958610252E0,2.340339421E0
1.414789825E1,-9.614632246E-1,5.194251233E-1,-1.560896531E0,1.905416482E0
1.415794725E1,-7.014302355E-1,-3.186662364E-1,-1.501265456E0,1.687409409E0
1.416799625E1,-5.502665547E-1,-1.250422390E0,-1.735563533E0,2.208739507E0
1.417804525E1,-5.533357581E-1,-1.980646069E0,-1.842461160E0,2.761123402E0
1.418809425E1,-5.496233609E-1,-2.444913238E0,-1.741241180E0,3.051492655E0
1.419814325E1,-4.251568973E-1,-2.745023335E0,-1.403647506E0,3.112256066E0
1.420819225E1,-3.809306046E-1,-2.866736637E0,-9.539849281E-1,3.045221555E0
1.421824125E1,-2.979881430E-1,-2.792966411E0,-5.899256603E-1,2.870099404E0
1.422829025E1,-2.083915499E-1,-2.405772561E0,-4.799032080E-1,2.462006446E0
1.423833925E1,1.646865365E-1,-1.713807213E0,-6.862642392E-1,1.853433415E0
1.424838825E1,4.683735220E-1,-9.404784447E-1,-8.913283579E-1,1.377802490E0
1.425843725E1,4.417349231E-1,-2.357626587E-1,-9.145126411E-1,1.042615530E0
1.426848625E1,3.858418272E-1,5.293092567E-1,-8.615905154E-1,1.082303294E0
1.427853525E1,2.710156681E-1,1.314673349E0,-6.448823977E-1,1.489190658E0
1.428858425E1,-1.539133340E-2,1.978052829E0,-2.338957889E-1,1.991892850E0
1.429863325E1,-1.347047921E-1,2.630425510E0,1.169479676E-1,2.636467442E0
1.430868225E1,-2.380783023E-1,3.232968804E0,1.862510678E-1,3.247069144E0
1.431873125E1,-4.397366372E-1,3.659897407E0,8.302578449E-1,3.778563938E0
1.432878025E1,-1.154641927E0,3.778930930E0,1.193089271E0,4.127587548E0
1.433882925E1,-2.596639128E0,3.223016258E0,5.237339365E-1,4.171889955E0
1.434887825E1,-3.670752763E0,2.492059922E0,2.379938977E0,5.034768916E0
1.435892725E1,-4.645004141E0,1.641371906E0,4.382888373E0,6.593927183E0
1.436897625E1,-5.259907279E0,1.340849580E0,3.777018014E0,6.612894015E0
1.437902525E1,-3.642175666E0,1.315604226E0,2.646576104E0,4.690482186E0
1.438907425E1,-2.169111331E0,9.800418752E-1,1.650755517E0,2.896639402E0
1.439912325E1,-2.031282372E0,4.216894984E-1,1.527231333E0,2.576114448E0
1.440917225E1,-1.862764447E0,1.822635591E-1,1.769118657E0,2.575440198E0
1.441922125E1,-1.483043632E0,2.105494648E-1,1.466179969E0,2.096051811E0
1.442927025E1,-1.127599286E0,2.982682246E-1,8.503515092E-1,1.443447877E0
1.443931925E1,-9.255247754E-1,7.044971001E-1,4.190646833E-1,1.236336315E0
1.444936825E1,-8.190224200E-1,9.686900908E-1,3.385748363E-1,1.312932266E0
1.445941725E1,-7.329920438E-1,7.809640628E-1,1.995932445E-1,1.089504322E0
1.446946625E1,-6.508936277E-1,3.512287956E-1,-3.546114099E-1,8.202276718E-1
1.447951525E1,-7.177948380E-1,-3.866401184E-1,-7.555544025E-1,1.111567571E0
1.448956425E1,-7.467759776E-1,-8.042669713E-1,-6.632303756E-1,1.282339367E0
1.449961325E1,-6.814500073E-1,-1.055789630E0,-4.921002075E-1,1.349528981E0
1.450966225E1,-3.789150694E-1,-1.430307301E0,-6.141298440E-1,1.602033418E0
1.451971125E1,-2.750562403E-1,-1.804713875E0,-8.430034594E-1,2.010796593E0
1.452976025E1,-1.976981619E-1,-2.122603601E0,-1.046930222E0,2.374993368E0
1.453980925E1,-2.819653103E-1,-2.350408199E0,-1.198783582E0,2.653489253E0
1.454985825E1,-3.950545540E-1,-2.469773260E0,-1.330899080E0,2.833220856E0
1.455990725E1,-6.413997960E-1,-2.635375178E0,-1.456106679E0,3.078448097E0
1.456995625E1,-1.009154577E0,-2.654579773E0,-1.679354249E0,3.299305598E0
1.458000525E1,-1.254392649E0,-2.549300655E0,-1.810458326E0,3.369004912E0
1.459005425E1,-1.670765567E0,-2.475460846E0,-1.708126059E0,3.440502669E0
1.460010325E1,-1.934770862E0,-2.298826987E0,-1.471120867E0,3.345465648E0
1.461015225E1,-2.114405513E0,-2.339182715E0,-1.177817513E0,3.365967994E0
1.462020125E1,-2.319934850E0,-2.280485440E0,-9.696447949E-1,3.394543059E0
1.463025025E1,-2.506502545E0,-2.328295199E0,-8.063006330E-1,3.514773713E0
1.464029925E1,-2.565862309E0,-2.471036258E0,-6.133435397E-1,3.614672859E0
1.465034825E1,-2.309903952E0,-2.582677147E0,-2.058607288E-1,3.471059802E0
1.466039725E1,-1.856445069E0,-2.760731880E0,2.956821473E-1,3.339978554E0
1.467044625E1,-1.670421166E0,-3.173585651E0,4.876320577E-1,3.619355989E0
1.468049525E1,-1.721508289E0,-3.610043462E0,4.592837329E-1,4.025785157E0
1.469054425E1,-1.814364997E0,-3.834694657E0,8.529815868E-2,4.243121402E0
1.470059325E1,-2.194310638E0,-3.989026651E0,-4.536724524E-1,4.575276111E0
1.471064225E1,-2.828826215E0,-3.547350200E0,-7.581032038E-1,4.600073006E0
1.472069125E1,-2.958005826E0,-2.736438453E0,-5.751837333E-1,4.070470514E0
1.473074025E1,-3.374868448E0,-1.797319486E0,9.972192407E-2,3.824923377E0
1.474078925E1,-4.044427266E0,-7.439301378E-1,5.211611617E-1,4.145169829E0
1.475083825E1,-4.269305917E0,7.437950671E-2,4.676416699E-1,4.295485311E0
1.476088725E1,-4.811558570E0,3.264219832E-1,5.207705677E-1,4.850654509E0
1.477093625E1,-4.823106236E0,1.335135680E-1,1.122257197E0,4.953750181E0
1.478098525E1,-4.611927319E0,-2.386967915E-1,1.780293564E0,4.949373185E0
1.479103425E1,-4.216363472E0,-3.210478073E-1,2.132292438E0,4.735764317E0
1.480108325E1,-3.316684267E0,-4.721919000E-2,1.836699314E0,3.791581273E0
1.481113225E1,-3.104260770E0,2.341418105E-1,1.016509059E0,3.274835566E0
1.482118125E1,-2.971407352E0,6.152077782E-1,2.838798349E-1,3.047676168E0
1.483123025E1,-3.391670715E0,-8.466768265E-4,-4.007858486E-1,3.415268694E0
1.484127925E1,-4.325189804E0,5.992571586E-1,-3.079589613E-1,4.377352476E0
1.485132825E1,-4.530841641E0,1.613650256E0,-1.347093236E-1,4.811500777E0
1.486137725E1,-3.927622409E0,3.225743399E0,6.512393443E-1,5.124036587E0
1.487142625E1,-3.596907984E0,4.388373939E0,1.659156943E0,5.911715033E0
1.488147525E1,-3.175711991E0,4.665816720E0,1.229095255E0,5.776302231E0
1.489152425E1,-2.685027102E0,3.890576497E0,3.702130969E-1,4.741625644E0
1.490157325E1,-1.902812612E0,3.100039372E0,-4.246117906E-1,3.662135322E0
1.491162225E1,-9.488542888E-1,-1.583075166E-2,-8.594192250E-1,1.280303276E0
1.492167125E1,-4.175502545E-1,-2.099581359E0,2.821889663E-1,2.159217615E0
1.493172025E1,-1.005112982E0,-3.431023938E0,6.629773374E-1,3.636167807E0
1.494176925E1,-9.485706988E-1,-3.622119716E0,7.565745954E-1,3.819940147E0
1.495181825E1,-9.678992549E-1,-3.304869091E0,7.034084947E-1,3.514793335E0
1.496186725E1,-6.521402541E-1,-2.875126807E0,5.224231370E-1,2.994088676E0
1.497191625E1,4.183662334E-1,-1.969036422E0,5.972473244E-1,2.099723578E0
1.498196525E1,1.243974080E0,-1.329480838E0,6.916003351E-1,1.947640068E0
1.499201425E1,1.222004629E0,-4.187354851E-1,6.415038764E-1,1.442276653E0
1.500206325E1,1.068205316E0,1.181677260E0,4.917192614E-1,1.667096750E0
1.501211225E1,1.099351095E0,2.762122348E0,3.675396037E-1,2.995492957E0
1.502216125E1,1.124663399E0,3.232548974E0,3.119758523E-1,3.436796409E0
1.503221025E1,9.834104562E-1,2.627774382E0,5.184094620E-1,2.853251251E0
1.504225925E1,5.295472383E-1,1.577009264E0,9.307176876E-1,1.906204058E0
1.505230825E1,8.524892512E-1,1.044536079E0,9.242262550E-1,1.634621581E0
1.506235725E1,1.095619986E0,-1.111420625E0,8.707742254E-1,1.787144849E0
1.507240625E1,1.841094081E0,-7.276532435E-1,1.284047388E0,2.359636488E0
1.508245525E1,2.634576448E0,3.972995925E-1,1.305183903E0,2.966874626E0
1.509250425E1,3.534574327E0,1.194258714E-1,9.320029056E-1,3.657336138E0
1.510255325E1,4.153992392E0,6.136886716E-2,-1.531034946E-1,4.157265882E0
1.511260225E1,5.020696517E0,8.406623805E-1,-2.410569763E0,5.632490864E0
1.512265125E1,5.202003472E0,1.996810697E0,-3.330486327E0,6.491550836E0
1.513269971E1,3.911724122E0,1.714196638E0,-2.169359107E0,4.790216556E0
1.514274871E1,2.925937357E0,1.203769210E0,-8.537999046E-1,3.277063320E0
1.515279771E1,2.681364406E0,9.910323018E-1,-5.511807668E-1,2.911298737E0
1.516284671E1,2.651224348E0,1.051342823E0,-4.262175091E-1,2.883742992E0
1.517289571E1,2.220438921E0,5.751572746E-1,-4.655765064E-1,2.340494900E0
1.518294471E1,1.715288898E0,-1.334334612E-2,-8.084337703E-1,1.896301455E0
1.519299371E1,1.262451574E0,5.070290262E-1,-7.540534222E-1,1.555461016E0
1.520304271E1,8.558227488E-1,5.387010545E-1,-5.379648900E-1,1.145442110E0
1.521309171E1,5.232652822E-1,1.277371037E-1,-4.983277845E-1,7.337941837E-1
1.522314071E1,7.143923432E-2,-3.482630879E-1,-5.472900295E-1,6.526232596E-1
1.523318971E1,-3.796313533E-1,-7.042029852E-1,-6.512219489E-1,1.031557965E0
1.524323871E1,-5.572282496E-1,-7.304248238E-1,-7.445224607E-1,1.182513188E0
1.525328771E1,-5.831808239E-1,-6.461892503E-1,-7.100882077E-1,1.123336852E0
1.526333671E1,-7.923064917E-1,-6.541075498E-1,-5.944384682E-1,1.186997623E0
1.527338571E1,-1.289099090E0,-7.205459529E-1,-6.760737848E-1,1.624204019E0
1.528343471E1,-1.517442509E0,-5.730370742E-1,-4.824993718E-1,1.692279203E0
1.529348371E1,-1.379608433E0,-5.642212272E-1,-6.167526126E-1,1.613086733E0
1.530353271E1,-1.403004313E0,-8.148428303E-1,-1.234471770E0,2.038703139E0
1.531358171E1,-1.402710198E0,-8.310144746E-1,-1.455308241E0,2.185429713E0
1.532363071E1,-1.044119465E0,-6.500870043E-1,-1.708475722E0,2.105157444E0
1.533367971E1,-1.156903484E0,-7.729065996E-1,-1.848323579E0,2.313462845E0
1.534372871E1,-9.508142754E-1,-1.076089409E0,-1.648093865E0,2.185916190E0
1.535377771E1,-6.136620668E-1,-1.273289680E0,-1.355025569E0,1.958045463E0
1.536382671E1,-4.644493094E-1,-1.457534861E0,-1.167580208E0,1.924412787E0
1.537387571E1,-8.313857728E-1,-1.474881211E0,-1.254110228E0,2.106957369E0
1.538392471E1,-1.390387775E0,-1.302269066E0,-1.263387421E0,2.285876344E0
1.539397371E1,-1.912148277E0,-1.225394552E0,-1.041309001E0,2.498444972E0
1.540402271E1,-2.305121514E0,-1.057449655E0,-7.868633187E-1,2.655360399E0
1.541407171E1,-2.480623938E0,-7.350148880E-1,-6.621901560E-1,2.670624985E0
1.542412071E1,-2.411410739E0,-2.668704307E-1,-7.652952790E-1,2.543972964E0
1.543416971E1,-2.175916175E0,8.110672832E-2,-8.894854617E-1,2.352099889E0
1.544421871E1,-1.864043818E0,7.419824302E-2,-8.745171744E-1,2.060326436E0
1.545426771E1,-1.222990762E0,-4.103014612E-1,-1.174837187E0,1.744791136E0
1.546431671E1,-6.921170828E-1,-8.475422144E-1,-1.449141768E0,1.815865007E0
1.547436571E1,-3.761385190E-1,-9.973186433E-1,-1.514432947E0,1.851926514E0
1.548441471E1,-1.827164260E-1,-7.553035569E-1,-1.084502968E0,1.334172194E0
1.549446371E1,1.656282306E-2,-6.445029134E-1,-1.514213092E0,1.645751992E0
1.550451271E1,-2.598417851E-1,-5.741860521E-1,-1.902168249E0,2.003859132E0
1.551456171E1,2.430298707E-1,-3.464609760E-1,-2.298027672E0,2.336670689E0
1.552461071E1,6.127645192E-1,-1.133827740E-1,-1.710225209E0,1.820221491E0
1.553465971E1,2.248535085E-1,2.652004659E-2,-9.368480547E-1,9.638188059E-1
1.554470871E1,4.067995638E-2,1.167396605E-2,-8.515353511E-1,8.525864146E-1
1.555475771E1,-5.222528368E-1,-2.641976684E-1,-1.585950242E0,1.690498921E0
1.556480671E1,-9.980320036E-1,-2.935185313E-1,-1.811002555E0,2.088528493E0
1.557485571E1,-8.752562624E-1,-3.910477495E-1,-1.910845517E0,2.137831251E0
1.558490471E1,-9.104693645E-1,-2.557958043E-1,-2.082565377E0,2.287239495E0
1.559495371E1,-1.103871577E0,7.295161664E-2,-2.720525841E0,2.936854652E0
1.560500271E1,-1.362668465E0,4.070667815E-1,-3.061717306E0,3.375897150E0
1.561505171E1,-1.626927237E0,4.509822947E-1,-3.227423889E0,3.642326485E0
1.562510071E1,-2.060266728E0,2.374799860E-1,-3.266907797E0,3.869597174E0
1.563514971E1,-2.135405495E0,-1.896497619E-1,-3.215377455E0,3.864527894E0
1.564519871E1,-2.407751843E0,-3.650972217E-1,-3.233921900E0,4.048310237E0
1.565524771E1,-2.759307498E0,-3.216787219E-1,-3.461873848E0,4.438673857E0
1.566529671E1,-2.465856502E0,-6.974190456E-1,-3.501193449E0,4.338801354E0
1.567534571E1,-1.882466348E0,-1.231219549E0,-3.381628999E0,4.061403183E0
1.568539471E1,-2.014423680E0,-1.221309687E0,-3.191985084E0,3.967148711E0
1.569544371E1,-2.512461150E0,-7.425221282E-1,-2.769667010E0,3.812460556E0
1.570549271E1,-2.402404272E0,-1.216770494E-1,-2.249458945E0,3.293389916E0
1.571554171E1,-1.459529639E0,3.023115742E-1,-2.012170748E0,2.504086694E0
1.572559071E1,-9.769144920E-1,4.166725874E-1,-1.773600402E0,2.067277523E0
1.573563971E1,-5.951395494E-1,4.222923464E-1,-1.600839007E0,1.759320163E0
1.574568871E1,-3.873797911E-1,4.552244496E-1,-8.923429960E-1,1.074043027E0
1.575573771E1,5.253772965E-1,5.917382240E-3,2.163861555E-1,5.682246804E-1
1.576578671E1,1.761452081E0,-1.291446455E0,9.357451236E-1,2.376166306E0
1.577583571E1,2.180574651E0,-1.956339194E0,1.802096661E0,3.439436179E0
1.578588471E1,2.927419334E0,-1.882779467E0,2.337924979E0,4.192914938E0
1.579593371E1,3.032526543E0,-7.599731433E-1,1.949517832E0,3.684344744E0
1.580598271E1,2.266037555E0,4.404643232E-1,5.342589247E-1,2.369465683E0
1.581603171E1,3.040534598E-1,1.449156970E0,-2.469581763E-1,1.501163806E0
1.582608071E1,-1.548407609E0,2.668303188E0,4.382900360E-1,3.116008052E0
1.583612971E1,-2.704668192E0,4.265354369E0,2.439291286E0,5.608798436E0
1.584617871E1,-3.678054766E0,4.992804714E0,4.851259410E0,7.873430233E0
1.585622771E1,-4.378735096E0,4.789887035E0,5.500188081E0,8.506962312E0
1.586627671E1,-5.141547940E0,4.731734721E0,4.981094495E0,8.581149751E0
1.587632571E1,-4.784780077E0,3.158197533E0,3.813509610E0,6.885578232E0
1.588637471E1,-4.424971369E0,1.311954979E0,2.703696677E0,5.348978707E0
1.589642371E1,-4.978398344E0,1.858578426E-1,1.699224257E0,5.263682768E0
1.590647271E1,-5.071589513E0,-5.376468015E-1,1.565149941E0,5.334770718E0
1.591652171E1,-3.630386218E0,-8.332627290E-1,1.766026650E0,4.122242229E0
1.592657071E1,-1.516313704E0,-1.429597449E-1,1.853300144E0,2.398825997E0
1.593661971E1,-7.187815556E-1,2.991686958E-1,8.953364781E-1,1.186497468E0
1.594666871E1,9.844635397E-2,5.299705768E-1,-1.305706644E-1,5.546252746E-1
1.595671771E1,7.020316216E-1,9.092823797E-1,-3.220193222E-1,1.193037840E0
1.596676671E1,9.490267816E-1,1.542925259E0,-2.132257354E-1,1.823934046E0
1.597681571E1,1.260575787E0,1.557101834E0,-1.013613372E-1,2.005963997E0
1.598686471E1,1.215610991E0,1.378434312E0,2.954532288E-1,1.861473568E0
1.599691371E1,1.031495034E0,1.092360456E0,3.199839064E-1,1.536106465E0
1.600696271E1,6.553164616E-1,9.174754983E-1,2.233123286E-1,1.149377810E0
1.601701171E1,7.112892258E-1,9.451953936E-1,1.270772454E-1,1.189737501E0
1.602706071E1,8.312764299E-1,8.243422168E-1,2.273970473E-1,1.192589624E0
1.603710971E1,8.297000206E-1,8.074390858E-1,1.243702769E-2,1.157805977E0
1.604715871E1,8.266755483E-1,5.715852106E-1,-3.527635436E-1,1.065149864E0
1.605720771E1,5.961008316E-1,4.590555453E-1,-4.987359202E-1,9.026658924E-1
1.606725671E1,8.753965956E-1,5.775984871E-1,-4.230764580E-1,1.130899156E0
1.607730571E1,8.160187054E-1,8.677659792E-1,-7.683694527E-2,1.193653316E0
1.608735471E1,1.345064253E0,1.058051918E0,-2.352824561E-1,1.727434381E0
1.609740371E1,1.757544386E0,4.713914162E-1,-2.070931756E-1,1.831409217E0
1.610745271E1,1.225689252E0,-1.205793516E0,-6.271972016E-2,1.720519081E0
1.611750171E1,9.932343632E-1,-2.946041839E0,-3.645490453E-2,3.109180917E0
1.612755075E1,1.317913584E0,-4.880907133E0,-3.001036656E-1,5.064603920E0
1.613759975E1,2.032878954E0,-7.321799825E0,-2.757406569E-1,7.603774223E0
1.614764875E1,3.005658588E0,-1.158810320E1,4.849129562E-1,1.198137137E1
1.615769775E1,2.369063156E0,-1.123421567E1,1.069836981E0,1.153102828E1
1.616774675E1,1.567750198E0,-5.103408891E0,2.278345360E0,5.804608563E0
1.617779575E1,2.649276641E0,-3.938279836E0,2.247142424E0,5.251510627E0
1.618784475E1,1.414486198E0,-2.035857233E0,1.386563112E0,2.840430098E0
1.619789375E1,-1.184990585E0,-1.615362906E0,2.410181361E0,3.134098626E0
1.620794275E1,-1.210473043E-1,-3.345774457E0,2.057988360E0,3.929907793E0
1.621799175E1,3.496354294E-1,-3.667867162E0,1.560473485E0,4.001321275E0
1.622804075E1,2.488262156E-1,-2.097352985E0,6.582176308E-1,2.212250998E0
1.623808975E1,-6.465266347E-2,-8.008445960E-1,-6.003115578E-1,1.002948653E0
1.624813875E1,-9.654109722E-1,5.640972662E-1,-1.936677346E0,2.236278877E0
1.625818775E1,-2.700634198E0,1.652178730E0,-2.775335301E0,4.210178815E0
1.626823675E1,-4.050761554E0,2.332226282E0,-3.125047037E0,5.622621060E0
1.627828575E1,-4.267071696E0,2.627460387E0,-2.511505423E0,5.605275054E0
1.628833475E1,-3.548759964E0,2.487035995E0,-1.926168730E0,4.742274908E0
1.629838375E1,-3.186886020E0,2.243581908E0,-1.784113842E0,4.286369616E0
1.630843375E1,-2.769891836E0,2.080518267E0,-1.964440072E0,3.982446715E0
1.631848175E1,-3.086938393E0,2.025373760E0,-1.676907774E0,4.055039728E0
1.632853175E1,-3.229842590E0,1.693189931E0,-7.393121530E-1,3.720935065E0
1.633858075E1,-2.870414244E0,1.012230213E0,4.742001262E-1,3.080382069E0
1.634862975E1,-2.274152029E0,6.944077295E-1,1.095916440E0,2.618205949E0
1.635867875E1,-1.635465633E0,3.381533689E0,1.059814123E0,3.902912234E0
1.636872775E1,-2.093483883E0,5.816801945E0,6.062860966E-1,6.211718157E0
1.637877675E1,-1.433077127E0,6.871130941E0,1.522748565E0,7.182263825E0
1.638882575E1,2.245593935E-1,8.336066623E0,2.782358684E0,8.791015499E0
1.639887475E1,3.250610438E-1,9.019667528E0,2.191190271E0,9.287700566E0
1.640892375E1,-9.130213818E-1,6.558127733E0,-9.516179752E-1,6.689411347E0
1.641897275E1,-1.837661181E0,2.846657884E0,-1.909358278E0,3.889229841E0
1.642902175E1,-1.164426512E0,1.460756677E0,7.424238950E-2,1.869548369E0
1.643907075E1,-5.641115919E-1,-2.747249955E-1,1.207933889E0,1.361175959E0
1.644911975E1,-2.398413840E-1,-1.340625631E0,1.776071874E0,2.238131425E0
1.645916875E1,8.384468704E-2,-1.569962785E0,2.011575501E0,2.553086186E0
1.646921775E1,4.343569064E-1,-2.276653175E0,2.037899666E0,3.086235677E0
1.647926675E1,8.920500505E-1,-2.181821278E0,1.930344958E0,3.046691490E0
1.648931575E1,1.538550957E0,-1.419182389E0,1.723204566E0,2.711208527E0
