"Time (s)","Linear Acceleration x (m/s^2)","Linear Acceleration y (m/s^2)","Linear Acceleration z (m/s^2)","Absolute acceleration (m/s^2)"
3.742541667E-3,-1.064982623E-2,1.030813833E0,3.990711527E-1,1.105417732E0
1.379254166E-2,-3.143226323E-1,1.049660579E0,6.402293296E-1,1.269046746E0
2.384154167E-2,-5.906655523E-1,7.502714431E-1,1.068956244E0,1.433338929E0
3.389054167E-2,-5.225872976E-1,2.136952668E-1,1.115418220E0,1.250168371E0
4.393954166E-2,-1.984121069E-1,-8.518574595E-2,4.702130561E-1,5.174208090E-1
5.398854167E-2,-3.764020823E-1,1.942708164E-1,-1.133397970E-1,4.384809999E-1
6.403754167E-2,-5.247431660E-1,9.931840771E-1,-1.498210140E-1,1.133232693E0
7.408654167E-2,-2.799952371E-1,1.960790679E0,3.706949075E-1,2.015071248E0
8.413554166E-2,8.440046489E-2,2.794238180E0,8.138048033E-1,2.911557779E0
9.418454167E-2,3.745599170E-1,2.997073998E0,8.289654641E-1,3.132081005E0
1.042335417E-1,1.210655183E0,2.356276465E0,1.050163293E0,2.849660979E0
1.142825417E-1,2.126154177E0,1.598953865E0,1.316165997E0,2.968076478E0
1.243325417E-1,2.584559658E0,8.596436119E-1,1.060803033E0,2.923053000E0
1.343815417E-1,3.149224396E0,1.600885785E-1,6.369557659E-1,3.216979220E0
1.444305417E-1,3.435599677E0,-3.624291372E-1,1.334836011E-1,3.457241370E0
1.544795417E-1,2.848406201E0,-7.388483226E-1,-7.763628888E-1,3.043362296E0
1.645285417E-1,2.311149701E0,-8.711947864E-1,-1.821800755E0,3.069096168E0
1.745775417E-1,2.116376317E0,-7.005543226E-1,-2.354492480E0,3.242446593E0
1.846265417E-1,1.821219103E0,-6.954929727E-1,-2.625176464E0,3.269877821E0
1.946755417E-1,1.383143075E0,-7.753331941E-1,-3.137799522E0,3.515680897E0
2.047245417E-1,1.064739525E0,-7.054946351E-1,-3.631987478E0,3.850029347E0
2.147735417E-1,1.014549949E0,-6.298655784E-1,-3.740592492E0,3.926585595E0
2.248235417E-1,9.688823180E-1,-3.339906192E-1,-3.679006108E0,3.819079552E0
2.348725417E-1,8.192029528E-1,1.133833587E-1,-3.868522553E0,3.955934278E0
2.449215417E-1,5.068380415E-1,4.416495538E-1,-4.209788278E0,4.263127546E0
2.549705417E-1,3.213796368E-1,7.600678682E-1,-4.375049304E0,4.452195464E0
2.650195417E-1,8.689786186E-1,8.072969985E-1,-3.626549567E0,3.815588296E0
2.750685417E-1,1.111215899E0,4.446421587E-1,-2.335934587E0,2.624709092E0
2.851175417E-1,6.138581678E-1,2.835449356E-1,-1.408386090E0,1.562296694E0
2.951665417E-1,1.013810715E-1,1.077331942E-1,-1.246581938E0,1.255329077E0
3.052155417E-1,-2.195405822E-1,-2.992400318E-1,-1.356085085E0,1.405954985E0
3.152645417E-1,-6.075187627E-1,-7.373029035E-1,-1.293844982E0,1.608331265E0
3.253145417E-1,-1.059896349E0,-9.249950176E-1,-1.013232425E0,1.733677018E0
3.353635417E-1,-1.337023015E0,-7.900974137E-1,-6.615481317E-1,1.688055212E0
3.454125417E-1,-1.310842692E0,-5.498066711E-1,-4.823835969E-1,1.501096224E0
3.554615417E-1,-1.322456432E0,-4.138308406E-1,-4.528492375E-1,1.457813229E0
3.655105417E-1,-1.365043019E0,-3.746983498E-1,-2.813983862E-1,1.443234683E0
3.755595417E-1,-1.367401201E0,-3.462931609E-1,5.530767996E-2,1.411652910E0
3.856085417E-1,-1.147974055E0,-3.297964114E-1,4.753820678E-1,1.285534214E0
3.956575417E-1,-5.734788314E-1,-2.860545605E-1,8.676542243E-1,1.078670030E0
4.057065417E-1,1.428480631E-1,-3.741329241E-1,9.668861517E-1,1.046541850E0
4.157555417E-1,5.435239476E-1,-4.812387121E-1,7.149343070E-1,1.018891576E0
4.258055417E-1,8.833122638E-1,-5.347091603E-1,1.277383462E-1,1.040418919E0
4.358545417E-1,1.393109654E0,-6.090056366E-1,-5.273042464E-1,1.609252044E0
4.459035417E-1,1.897723926E0,-6.460465783E-1,-4.918420529E-1,2.064131994E0
4.559525417E-1,1.919313747E0,-6.749055111E-1,-2.644287065E-1,2.051629901E0
4.660015417E-1,1.354387784E0,-7.700239223E-1,-4.566055620E-1,1.623512165E0
4.760505417E-1,4.812056022E-1,-8.015608799E-1,-5.239771076E-1,1.071732562E0
4.860995417E-1,-3.847830427E-1,-6.344807857E-1,-3.758695471E-1,8.318063319E-1
4.961485417E-1,-1.131135828E0,-1.923160923E-1,-2.573278479E-1,1.175870470E0
5.061975417E-1,-1.479912594E0,5.546721393E-1,-3.317585908E-2,1.580791923E0
5.162465417E-1,-1.748743596E0,1.390607631E0,3.230553026E-1,2.257489419E0
5.262965417E-1,-2.163730577E0,2.003381213E0,6.065528027E-1,3.010510355E0
5.363455417E-1,-2.419350380E0,2.333747143E0,7.370205561E-1,3.441341496E0
5.463945417E-1,-2.397806899E0,2.368683672E0,6.643712405E-1,3.435335414E0
5.564435417E-1,-1.733023210E0,2.018036090E0,3.637927079E-1,2.684806183E0
5.664925417E-1,-1.447673970E0,1.530594651E0,2.277386709E-1,2.119043372E0
5.765415417E-1,-1.247315179E0,9.328893435E-1,3.311627595E-1,1.592402731E0
5.865905417E-1,-8.969962102E-1,1.224167222E-1,3.263320092E-1,9.623308346E-1
5.966395417E-1,-6.018171793E-1,-6.615148026E-1,2.397826195E-1,9.258949486E-1
6.066885417E-1,-2.285478524E-1,-1.334776077E0,-8.919488937E-3,1.354230724E0
6.167375417E-1,2.632897055E-1,-1.921982124E0,-4.268139251E-1,1.986330003E0
6.267875417E-1,6.608118211E-1,-2.227555860E0,-7.490072751E-1,2.441247482E0
6.368365417E-1,9.605631919E-1,-2.124461262E0,-7.760985216E-1,2.457304664E0
6.468855417E-1,1.363757947E0,-1.575989510E0,-6.008386843E-1,2.169005717E0
6.569345417E-1,1.717853487E0,-1.018989594E0,-4.861771973E-1,2.055657720E0
6.669835417E-1,1.924249089E0,-8.179178810E-1,-6.101488403E-1,2.178073880E0
6.770325417E-1,1.934078405E0,-7.354446584E-1,-6.659743278E-1,2.173720297E0
6.870815417E-1,1.392954411E0,-8.448045480E-1,-6.460530102E-1,1.752541357E0
6.971305417E-1,7.807939088E-1,-1.228486560E0,-4.044144114E-1,1.510751261E0
7.071795417E-1,1.269911452E-1,-1.868814561E0,-1.573801482E-1,1.879724216E0
7.172285417E-1,-1.874534746E-1,-2.511342870E0,-2.672287188E-2,2.518470950E0
7.272785417E-1,-4.117887005E-1,-3.144020959E0,1.373488299E-1,3.173846629E0
7.373275417E-1,-6.420311491E-1,-3.746353168E0,4.112288296E-1,3.823149907E0
7.473765417E-1,-1.102184948E0,-4.414740788E0,8.296332892E-1,4.625260996E0
7.574255417E-1,-9.901506148E-1,-5.261021174E0,1.292591193E0,5.507225619E0
7.674745417E-1,-5.751129819E-1,-5.740666519E0,1.331664919E0,5.921092677E0
7.775235417E-1,-3.956861995E-1,-6.106383546E0,1.080782823E0,6.213902082E0
7.875725417E-1,-5.562625819E-1,-6.321647621E0,1.008858562E0,6.425764725E0
7.976215417E-1,-7.121384608E-1,-6.283183467E0,1.141613746E0,6.425637526E0
8.076705417E-1,-8.442280126E-1,-6.013899890E0,1.297995336E0,6.210032586E0
8.177205417E-1,-8.875094683E-1,-5.490017434E0,1.295770909E0,5.710252773E0
8.277695417E-1,-6.696816087E-1,-4.910051410E0,9.005214965E-1,5.036667278E0
8.378185417E-1,2.292108536E-2,-3.970372864E0,3.192547587E-1,3.983253652E0
8.478675417E-1,9.683047593E-1,-3.021334680E0,-8.033211842E-2,3.173725036E0
8.579165417E-1,1.316678798E0,-2.055022652E0,-3.466080335E-1,2.465136566E0
8.679655417E-1,8.358349192E-1,-6.810257918E-1,-5.841114083E-1,1.226214614E0
8.780145417E-1,3.948203731E-1,1.121574900E0,-1.010713006E0,1.560562131E0
8.880635417E-1,2.694940764E-1,3.190751322E0,-1.361603979E0,3.479581362E0
8.981125417E-1,2.021927704E-1,4.988091273E0,-1.553001474E0,5.228168900E0
9.081625417E-1,-8.889887407E-2,6.194398760E0,-1.795128242E0,6.449880961E0
9.182115417E-1,-1.186965043E0,6.856892386E0,-1.476249752E0,7.113731267E0
9.282605417E-1,-1.608559817E0,7.218912803E0,-1.498941334E0,7.546323069E0
9.383095417E-1,-9.606025144E-1,8.463750517E0,-1.510611499E0,8.650998619E0
9.483585417E-1,-7.690275568E-1,1.088526086E1,-1.826595325E0,1.106421067E1
9.584075417E-1,-1.177072797E0,1.466996708E1,-2.638900757E0,1.495183038E1
9.684565417E-1,-1.740929377E0,1.930852935E1,-3.943823289E0,1.978392991E1
9.785055417E-1,-1.949667667E0,2.307467300E1,-4.990019685E0,2.368843673E1
9.885545417E-1,-2.308260592E0,2.420260792E1,-5.307372052E0,2.488498533E1
9.986035417E-1,-3.604730682E0,2.316007977E1,-5.278327178E0,2.402590511E1
1.008653708E0,-5.121072160E0,2.152079649E1,-6.356119881E0,2.301674003E1
1.018702708E0,-6.256214354E0,2.038972513E1,-7.266368805E0,2.253178254E1
1.028751708E0,-6.902896525E0,1.983171131E1,-6.446169341E0,2.196587929E1
1.038800708E0,-6.554003107E0,1.806070429E1,-4.479060745E0,1.972830407E1
1.048849708E0,-6.080961607E0,1.503026316E1,-2.478191496E0,1.640208333E1
1.058898708E0,-6.281344517E0,1.194200242E1,-8.656874402E-1,1.352095135E1
1.068947708E0,-5.455919396E0,9.498349838E0,9.491419718E-2,1.095420991E1
1.078996708E0,-2.377462535E0,7.317911426E0,1.070163475E0,7.768487988E0
1.089045708E0,-1.241262141E0,3.583239825E0,2.244169407E0,4.406431173E0
1.099095708E0,5.255411647E-2,-5.424058503E-1,2.909443531E0,2.960038463E0
1.109144708E0,1.495987028E0,-3.711128372E0,3.295811169E0,5.183900293E0
1.119193708E0,4.035015295E0,-6.125051951E0,3.590646493E0,8.166416110E0
1.129242708E0,5.795822135E0,-8.020163196E0,1.985588136E0,1.009242945E1
1.139291708E0,5.514744725E0,-1.057408023E1,1.116208910E0,1.197787562E1
1.149340708E0,3.993195424E0,-1.188033183E1,1.653416001E0,1.264205990E1
1.159389708E0,2.938268842E0,-1.197814639E1,2.301616401E0,1.254618878E1
1.169438708E0,2.084532672E0,-1.153020641E1,3.271076277E0,1.216515007E1
1.179487708E0,1.959033006E0,-1.138181577E1,4.688575838E0,1.246460123E1
1.189537708E0,1.996956585E0,-1.155136397E1,5.341606915E0,1.288233712E1
1.199586708E0,1.917642613E0,-1.169082708E1,5.056521238E0,1.288104026E1
1.209635708E0,1.691343965E0,-1.160180439E1,3.518108275E0,1.224089847E1
1.219684708E0,1.715844529E0,-1.175885593E1,1.187598881E0,1.194257955E1
1.229733708E0,1.686037617E0,-1.201305193E1,-3.498623013E-2,1.213084348E1
1.239782708E0,8.830027999E-1,-1.181667203E1,-1.630073770E0,1.196121115E1
1.249831708E0,-3.542572148E-2,-1.147845036E1,-2.965875009E0,1.185548364E1
1.259880708E0,-5.931725460E-1,-1.126951882E1,-3.227960079E0,1.173770141E1
1.269929708E0,-4.278759988E-1,-1.101620925E1,-2.666718885E0,1.134245713E1
1.279979708E0,-2.091687179E-1,-1.087146143E1,-1.459295458E0,1.097096023E1
1.290028708E0,-1.896051769E-1,-1.078675866E1,1.516312388E-1,1.078949047E1
1.300077708E0,-3.103568313E-1,-1.084943614E1,1.710250937E0,1.098779068E1
1.310126708E0,-2.175624691E-1,-1.089922635E1,3.098167094E0,1.133309789E1
1.320175708E0,-2.669473947E-1,-1.101791547E1,4.469493531E0,1.189294306E1
1.330224708E0,-4.244387861E-1,-1.117070088E1,4.694372767E0,1.212443162E1
1.340273708E0,1.715187887E-1,-1.094756879E1,3.539106796E0,1.150669188E1
1.350322708E0,6.768679098E-1,-9.749512893E0,2.315904365E0,1.004363305E1
1.360371708E0,1.163619011E0,-9.095590700E0,1.589176151E0,9.306409631E0
1.370421708E0,1.837026173E0,-9.152840788E0,9.499702299E-1,9.383581571E0
1.380470708E0,2.157230520E0,-9.492068759E0,-1.389918244E-1,9.735108195E0
1.390519708E0,2.244504307E0,-1.008741062E1,-1.424366676E0,1.043180105E1
1.400568708E0,2.152531551E0,-1.086771687E1,-1.972613310E0,1.125308248E1
1.410617708E0,1.741800466E0,-1.137792152E1,-1.447895726E0,1.160117964E1
1.420666708E0,1.564102413E0,-1.107594207E1,-4.487155484E-1,1.119483161E1
1.430715708E0,1.520481307E0,-1.079861097E1,6.881857073E-1,1.092682304E1
1.440764708E0,1.553174551E0,-1.080185267E1,1.606301476E0,1.103052930E1
1.450813708E0,1.529801038E0,-1.077973382E1,2.225404669E0,1.111284745E1
1.460863708E0,1.580647402E0,-1.086253858E1,2.518167740E0,1.126207616E1
1.470912708E0,1.628305864E0,-1.104066816E1,2.377743348E0,1.141058266E1
1.480961708E0,1.733533234E0,-1.129615640E1,2.048073821E0,1.161046481E1
1.491010708E0,1.590449528E0,-1.170402074E1,1.935571053E0,1.196912973E1
1.501059708E0,1.927705379E0,-1.216344583E1,2.598164667E0,1.258633871E1
1.511108708E0,1.970903146E0,-1.078166223E1,2.401307627E0,1.122029313E1
1.521157708E0,1.906503813E0,-6.484434105E0,3.416544478E0,7.573336029E0
1.531206708E0,1.538677988E0,-6.289090324E0,8.608059214E0,1.077120562E1
1.541255708E0,2.127663635E-1,-4.683775274E0,9.016310642E0,1.016252321E1
1.551305708E0,-2.143700501E0,-4.137486287E0,-1.901760259E0,5.032984870E0
1.561354708E0,-4.581124187E0,-1.462764611E0,-1.057493626E1,1.161704162E1
1.571403708E0,-4.420296228E0,6.500118091E0,-1.210067948E1,1.442972618E1
1.581452708E0,4.733528647E0,5.580296339E1,-5.915788289E0,5.631494977E1
1.591501708E0,-7.263837546E0,6.639064307E1,-1.791678443E1,6.914833323E1
1.601550708E0,-1.284615386E1,3.747233291E1,-2.633121193E1,4.756608166E1
1.611599708E0,-3.998603806E0,2.334014829E1,-1.116651544E1,2.618095532E1
1.621648708E0,-1.317429434E0,1.206575523E1,-1.755618606E0,1.226377863E1
1.631698708E0,-3.196262907E0,7.064320607E0,3.912267036E0,8.684846318E0
1.641747708E0,-6.607353687E0,7.646451271E0,6.500025705E0,1.201564289E1
1.651796708E0,-8.559248412E0,1.031741670E1,-2.796661851E-1,1.340850603E1
1.661845708E0,-9.857567099E0,1.129787665E1,-5.767336839E0,1.606473841E1
1.671894708E0,-5.511703588E0,1.073209188E1,-4.037629585E0,1.272238677E1
1.681943708E0,-1.915917538E0,1.082859432E1,-5.671107750E-1,1.101139454E1
1.691992708E0,-9.832075578E-1,9.310202810E0,-7.033440292E-1,9.388358019E0
1.702041708E0,-9.264600375E-1,6.954305245E0,-2.958355198E0,7.613971048E0
1.712090708E0,-1.557049501E0,5.336352607E0,-3.841888486E0,6.757304894E0
1.722140708E0,-8.905470237E-1,4.133593211E0,-3.565321618E0,5.530929856E0
1.732189708E0,-7.543897833E-1,3.226922198E0,-2.676285807E0,4.259652161E0
1.742238708E0,-8.116752474E-1,2.559314597E0,-1.402295484E0,3.029082458E0
1.752287708E0,-8.728255749E-2,2.047337657E0,-7.827739222E-1,2.193614537E0
1.762336708E0,9.968986671E-1,1.491566826E0,-1.279308950E0,2.203454093E0
1.772385708E0,1.758709590E0,9.192741019E-1,-1.815251873E0,2.689472748E0
1.782434708E0,2.172513534E0,1.695669150E-1,-1.849006534E0,2.857865139E0
1.792483708E0,2.735844376E0,-7.581686926E-1,-1.480472903E0,3.201790785E0
1.802533708E0,2.791833805E0,-2.036547790E0,-7.524034110E-1,3.536661390E0
1.812582708E0,2.925370762E0,-3.467140435E0,2.626113188E-1,4.543987411E0
1.822631708E0,3.097839942E0,-4.842423683E0,1.097488391E0,5.852363642E0
1.832680708E0,3.212146284E0,-6.139269456E0,1.606929467E0,7.112716465E0
1.842729708E0,3.407232202E0,-7.162778948E0,1.254478018E0,8.030463787E0
1.852778708E0,3.249126122E0,-7.877932599E0,7.897366405E-1,8.558173085E0
1.862827708E0,2.840255767E0,-8.217858726E0,6.695073617E-1,8.720578821E0
1.872876708E0,2.845959141E0,-8.129759898E0,5.696485762E-1,8.632321758E0
1.882925708E0,2.532779932E0,-7.540479258E0,6.128852642E-1,7.978059286E0
1.892975708E0,2.317124386E0,-6.534548836E0,6.107615920E-1,6.960059169E0
1.903024708E0,2.059237033E0,-5.400165610E0,5.393647134E-1,5.804580956E0
1.913073708E0,2.097529863E0,-4.439303772E0,4.848300719E-1,4.933772361E0
1.923122708E0,1.772293403E0,-3.463384184E0,2.115405679E-1,3.896255038E0
1.933171708E0,1.041661223E0,-2.447331061E0,-2.906101080E-1,2.675619865E0
1.943220708E0,1.286268307E-1,-1.514748697E0,-1.119306765E0,1.887817817E0
1.953269708E0,-4.933745351E-1,-6.749587208E-1,-1.382785810E0,1.615884991E0
1.963318708E0,-9.135641496E-1,-2.192910522E-1,-1.188660589E0,1.515124423E0
1.973368708E0,-1.164105280E0,-7.047707498E-2,-4.826782600E-1,1.262175275E0
1.983417708E0,-1.303110773E0,-1.683167803E-1,4.654079604E-1,1.393927112E0
1.993466708E0,-1.621713274E0,-3.911711258E-1,7.712032326E-1,1.837858324E0
2.003515708E0,-1.829764224E0,-5.857851738E-1,8.466721487E-1,2.099532118E0
2.013564292E0,-1.735527719E0,-6.557114410E-1,9.949997838E-1,2.105240729E0
2.023613292E0,-1.119217668E0,-7.635533935E-1,1.301865023E0,1.878966341E0
2.033662292E0,-3.739794347E-1,-1.001979459E0,2.047851773E0,2.310307412E0
2.043711292E0,4.600954726E-2,-1.362360901E0,2.963971156E0,3.262402354E0
2.053761292E0,-4.658725217E-2,-1.763662328E0,3.049308929E0,3.522919262E0
2.063810292E0,-3.095377826E-1,-2.238528160E0,2.405916256E0,3.300796115E0
2.073859292E0,-3.387406048E-1,-3.197438198E0,7.956342883E-1,3.312308885E0
2.083908292E0,4.093139396E-1,-3.996406422E0,4.259030020E-1,4.039826179E0
2.093957292E0,1.411253272E0,-4.694683254E0,1.652235886E0,5.173158617E0
2.104006292E0,2.153939999E0,-5.457618012E0,2.917817913E0,6.552763788E0
2.114055292E0,1.962658426E0,-6.400491477E0,3.037078893E0,7.351337799E0
2.124104292E0,1.589120602E0,-7.559287997E0,1.539105273E0,7.876356032E0
2.134154292E0,1.800662339E0,-8.588467534E0,-3.176979375E-1,8.780950485E0
2.144203292E0,3.114485503E0,-9.246312624E0,-1.179874709E0,9.827839102E0
2.154252292E0,3.152954335E0,-9.458248463E0,-1.217290750E0,1.004397241E1
2.164301292E0,1.193368767E0,-8.781943713E0,-1.089382908E0,8.929357173E0
2.174350292E0,-8.537693529E-1,-7.705323377E0,-1.888242520E0,7.979122149E0
2.184399292E0,-2.645844033E0,-6.171056090E0,-4.193984424E0,7.916560444E0
2.194448292E0,-2.676872283E0,-3.345618922E0,-5.209787285E0,6.745420279E0
2.204497292E0,-1.272815910E0,-2.094782549E-1,-2.971393611E0,3.239308796E0
2.214546292E0,-1.494166790E-1,4.177100004E0,-4.161219259E-1,4.200434173E0
2.224596292E0,-4.788318519E-1,9.067513540E0,6.579465392E-1,9.103953833E0
2.234645292E0,-2.192376379E0,1.160632780E1,2.060840924E-1,1.181337504E1
2.244694292E0,-1.917141214E-1,8.911420949E0,-5.761271815E-1,8.932082633E0
2.254743292E0,2.433814784E0,3.983490508E0,-2.623831312E-1,4.675520926E0
2.264792292E0,2.407882821E0,2.142850755E0,1.896924466E-2,3.223362975E0
2.274841292E0,2.301394207E0,3.794102116E0,-3.155411920E-1,4.448729302E0
2.284890292E0,9.752196765E-1,8.121074443E0,-1.456615094E0,8.308106347E0
2.294939292E0,-6.145651692E-1,1.388948542E1,-2.711103637E0,1.416494188E1
2.304989292E0,-6.269155119E-1,1.983807308E1,-3.287271895E0,2.011835786E1
2.315038292E0,-7.315771638E-1,2.284562821E1,-3.670388774E0,2.315015523E1
2.325087292E0,-2.572060065E0,2.120266118E1,-4.387203326E0,2.180403374E1
2.335136292E0,-4.145432069E0,1.981778558E1,-4.866237638E0,2.082329227E1
2.345185292E0,-4.977605461E0,2.028750411E1,-5.643605078E0,2.163815281E1
2.355234292E0,-5.298971942E0,2.063894983E1,-6.882825372E0,2.239237904E1
2.365283292E0,-5.464016621E0,2.041604228E1,-7.917673784E0,2.256900126E1
2.375332292E0,-5.653940032E0,1.925616987E1,-8.467515539E0,2.178223899E1
2.385382292E0,-5.982154187E0,1.800094341E1,-8.493259660E0,2.078354137E1
2.395431292E0,-5.713759972E0,1.665632705E1,-7.346976181E0,1.908031297E1
2.405480292E0,-4.374012300E0,1.476184789E1,-4.913860871E0,1.616137882E1
2.415529292E0,-3.233621938E0,1.308255796E1,-2.418370825E0,1.369153575E1
2.425578292E0,-3.045916375E0,1.093172868E1,-1.116724634E-1,1.134869020E1
2.435627292E0,-2.553805350E0,7.493323803E0,1.974407090E0,8.159050603E0
2.445676292E0,-1.221706567E0,2.911525140E0,3.596452779E0,4.785814264E0
2.455725292E0,8.078400587E-1,-1.099140887E0,5.419862541E0,5.588884165E0
2.465775292E0,2.484780723E0,-3.777645128E0,5.894475188E0,7.428968683E0
2.475824292E0,3.441801526E0,-6.891182213E0,6.578438036E0,1.012967112E1
2.485873292E0,4.284483242E0,-1.023289169E1,6.060978162E0,1.264137355E1
2.495922292E0,4.513343848E0,-1.363820249E1,3.687027318E0,1.483121743E1
2.505971292E0,3.722519333E0,-1.480034362E1,2.873697163E0,1.552950279E1
2.516020292E0,2.434625646E0,-1.438562166E1,3.252126621E0,1.494823870E1
2.526069292E0,1.583235526E0,-1.330746877E1,3.852892946E0,1.394417957E1
2.536119292E0,1.365695861E0,-1.247704253E1,4.076239042E0,1.319687236E1
2.546168292E0,1.451188732E0,-1.193590260E1,3.773466707E0,1.260201455E1
2.556217292E0,1.519889276E0,-1.164741150E1,2.724544047E0,1.205800143E1
2.566266292E0,1.324068071E0,-1.138992586E1,6.214655415E-1,1.148345709E1
2.576315292E0,1.387372659E0,-1.096948181E1,-1.234505099E0,1.112557131E1
2.586364292E0,8.278558818E-1,-1.082609873E1,-2.030246830E0,1.104588889E1
2.596413292E0,2.903951680E-1,-1.088543160E1,-2.423836949E0,1.115580279E1
2.606462292E0,2.149903520E-1,-1.096271542E1,-1.580238097E0,1.107810916E1
2.616512292E0,2.990519708E-1,-1.087485866E1,-5.315119028E-3,1.087897106E1
2.626561292E0,4.508134563E-1,-1.060115868E1,9.005074632E-1,1.064888313E1
2.636610292E0,5.150815923E-1,-1.048555689E1,1.369932461E0,1.058720583E1
2.646659292E0,1.113633650E-1,-1.057669510E1,1.493687611E0,1.068222747E1
2.656708292E0,-2.425548575E-1,-1.060120897E1,1.353608204E0,1.069002898E1
2.666757292E0,-6.438209818E-1,-1.060679306E1,1.127192320E0,1.068593127E1
2.676806292E0,-1.513132380E0,-1.067534932E1,4.461436872E-1,1.079127875E1
2.686855292E0,-2.876511720E0,-1.086859746E1,-5.113624342E-1,1.125443122E1
2.696905292E0,-3.854148928E0,-1.108334114E1,-1.073473949E0,1.178334677E1
2.706954292E0,-4.060084355E0,-1.136115171E1,-1.297894764E-1,1.206552520E1
2.717003292E0,-3.076624490E0,-1.139271498E1,1.252222162E0,1.186708191E1
2.727052292E0,-1.518415778E0,-1.103962034E1,1.357117703E0,1.122588848E1
2.737101292E0,5.198745915E-1,-1.060414544E1,4.717533588E-2,1.061698618E1
2.747150292E0,2.747513664E0,-1.036437685E1,-1.395303530E0,1.081277073E1
2.757199292E0,4.620664521E0,-1.043579709E1,-2.232033073E0,1.162920346E1
2.767248292E0,5.381284366E0,-1.122846435E1,-2.126005511E0,1.263156889E1
2.777298292E0,4.858294780E0,-1.181993594E1,-1.238578269E0,1.283931423E1
2.787347292E0,4.524906717E0,-1.155171714E1,-2.042783260E-1,1.240800868E1
2.797396292E0,3.568643421E0,-1.133304297E1,3.130248427E-1,1.188575044E1
2.807445292E0,2.504610386E0,-1.122943148E1,6.891692090E-1,1.152597756E1
2.817494292E0,1.600053141E0,-1.105426410E1,1.281554720E0,1.124274466E1
2.827543292E0,1.231666861E0,-1.077057123E1,1.511513432E0,1.094563295E1
2.837592292E0,1.141128208E0,-1.052358133E1,1.257493427E0,1.065970109E1
2.847642292E0,1.126521790E0,-1.062965801E1,4.863117564E-1,1.070024205E1
2.857691292E0,3.526756892E-1,-1.047153527E1,-3.626677950E-2,1.047753532E1
2.867740292E0,2.039880849E-1,-9.199693358E0,-3.017701221E-1,9.206901445E0
2.877789292E0,9.447867463E-1,-8.149598331E0,-3.211244059E-1,8.210462583E0
2.887838292E0,4.832166059E-1,-7.954025924E0,-1.287080923E0,8.071964073E0
2.897887292E0,-3.184689660E-1,-7.025512052E0,-2.031834934E0,7.320354860E0
2.907936292E0,-1.560110226E0,-5.341286488E0,-3.937996831E0,6.816971784E0
2.917985292E0,-5.050819618E0,8.894504369E0,1.269089333E0,1.030696728E1
2.928035292E0,-1.414708684E1,6.574327678E1,5.512760764E0,6.747376556E1
2.938084292E0,1.022544935E1,6.250590268E1,-1.918935140E1,6.617989794E1
2.948133292E0,-5.660211463E-1,3.771435385E1,-2.428577637E1,4.486080472E1
2.958182292E0,-5.504344867E0,1.767758069E1,-4.721859359E0,1.910734485E1
2.968231292E0,-3.117983893E0,8.831324619E0,1.901183870E0,9.556600765E0
2.978280292E0,-6.307987940E0,6.688561572E0,5.607809594E0,1.076917342E1
2.988329292E0,-9.759222779E0,7.128544670E0,2.564702221E0,1.235460545E1
2.998379292E0,-9.087681171E0,1.071790185E1,-3.304421779E0,1.443532377E1
3.008428458E0,-3.935678702E0,1.520790040E1,-2.826113399E0,1.596110016E1
3.018477458E0,-1.959175239E0,1.517951217E1,-1.654566440E0,1.539459474E1
3.028526458E0,-8.013359083E-1,1.204830129E1,-2.069306231E0,1.225094819E1
3.038575458E0,-1.698246311E-1,8.690000925E0,-2.628921898E0,9.080538906E0
3.048624458E0,-1.662462813E-1,6.224821823E0,-1.897610929E0,6.509759733E0
3.058673458E0,2.249140272E-1,4.240887864E0,-1.174458580E-1,4.248471458E0
3.068722458E0,7.383026312E-1,2.196194903E0,-1.855694287E-1,2.324392144E0
3.078772458E0,7.505383685E-1,3.189474875E-1,-1.247454343E0,1.490361594E0
3.088821458E0,7.008664177E-1,-1.174355376E0,-1.765337555E0,2.233101200E0
3.098870458E0,4.385364962E-1,-2.407586367E0,-1.325949705E0,2.783330558E0
3.108919458E0,3.333509338E-1,-3.548358260E0,-5.963796707E-1,3.613535374E0
3.118968458E0,4.360251901E-1,-4.510918715E0,7.119533233E-3,4.531948401E0
3.129017458E0,6.687149177E-1,-5.011947913E0,5.943940294E-1,5.091179214E0
3.139066458E0,1.095626638E0,-5.602774556E0,5.894940627E-1,5.739249403E0
3.149116458E0,8.855666578E-1,-6.375094095E0,1.444430666E0,6.596395454E0
3.159165458E0,1.520341997E0,-7.525398704E0,2.496129584E-1,7.681495432E0
3.169214458E0,3.133297458E0,-7.518924083E0,-1.278732269E0,8.245418639E0
3.179263458E0,4.043692271E0,-7.671207798E0,-1.389366851E0,8.782324094E0
3.189312458E0,3.913718899E0,-7.615813031E0,-8.164391202E-1,8.601417126E0
3.199361458E0,2.795474866E0,-7.879731787E0,3.951829004E-1,8.370246250E0
3.209410458E0,1.758390186E0,-8.183073640E0,4.538340183E-1,8.382159362E0
3.219459458E0,2.548334987E-1,-8.024075568E0,1.283861812E-1,8.029147641E0
3.229509458E0,-5.472599895E-1,-6.998298526E0,-4.578503976E-1,7.034579073E0
3.239558458E0,-2.603121205E-1,-5.893149624E0,-4.118240762E-1,5.913254093E0
3.249607458E0,3.726019038E-1,-3.810035194E0,1.232879573E-1,3.830195854E0
3.259656458E0,6.840762111E-1,-1.811373269E0,3.663111037E-1,1.970588036E0
3.269705458E0,5.556174148E-2,-5.751748163E-1,8.416248322E-2,5.839490560E-1
3.279754458E0,-6.710212058E-1,1.373224443E0,-2.918765966E-1,1.556022743E0
3.289803458E0,-2.186484432E0,3.906438239E0,-1.796089232E-1,4.480316200E0
3.299853458E0,-3.951106288E0,5.798914728E0,-3.323428373E-1,7.024891791E0
3.309902458E0,-5.676970460E0,5.801381083E0,-1.050790334E-1,8.117577082E0
3.319951458E0,-5.210062689E0,3.994465147E0,4.861959815E-1,6.583076148E0
3.330000458E0,-1.721844942E0,1.708819538E0,2.092051899E0,3.203356891E0
3.340049458E0,-1.076712649E0,1.707270026E-1,2.237997233E0,2.489395399E0
3.350098458E0,-7.091473907E-1,-6.011744606E-1,9.843622367E-1,1.353982927E0
3.360147458E0,-6.460579073E-1,-1.033233996E0,2.843943898E-1,1.251336677E0
3.370197458E0,-1.263501734E0,-1.154316968E0,6.020866994E-1,1.814219581E0
3.380246458E0,-1.658071554E0,-9.307100862E-1,1.463486742E0,2.399419927E0
3.390295458E0,-1.470187212E0,-6.577246374E-1,1.805534970E0,2.419505873E0
3.400344458E0,-7.825344057E-1,-2.674381953E-1,1.485919000E0,1.700540667E0
3.410393458E0,2.023881770E-1,1.163233387E-1,1.227653186E0,1.249649726E0
3.420442458E0,1.446857553E0,3.075740683E-1,1.188363551E0,1.897421017E0
3.430491458E0,2.248012636E0,2.500216788E-1,1.305956905E0,2.611818349E0
3.440541458E0,2.771733124E0,-6.752306163E-2,1.481567502E0,3.143581737E0
3.450590458E0,2.981892872E0,-5.503077775E-1,1.295855255E0,3.297539172E0
3.460639458E0,2.835967712E0,-1.286374580E0,1.057076164E0,3.288598856E0
3.470688458E0,2.622123925E0,-2.404394957E0,1.253707355E0,3.772059268E0
3.480737458E0,1.733562178E0,-3.691533183E0,9.719114681E-1,4.192525130E0
3.490786458E0,3.175030059E-1,-5.091626751E0,-3.496751904E-2,5.101636391E0
3.500835458E0,2.101182692E-1,-6.343307462E0,-1.093984812E0,6.440380580E0
3.510885458E0,1.720522740E-1,-7.118245384E0,-1.448680422E0,7.266202192E0
3.520934458E0,-1.515439691E0,-7.238648325E0,-1.620328946E0,7.571000788E0
3.530983458E0,-3.425461189E0,-8.590240409E0,-3.919737146E0,1.004441904E1
3.541032458E0,-4.892937486E0,-1.124020556E1,-6.227018037E0,1.374986589E1
3.551081458E0,-3.664659087E0,-1.123711238E1,-4.327948812E0,1.258703944E1
3.561130458E0,1.091620345E-1,-8.244882218E0,-1.153531687E0,8.325901422E0
3.571179458E0,1.079399956E0,-6.191865746E0,9.947319813E-1,6.363473689E0
3.581228458E0,1.500947806E0,-3.940377817E0,1.533304836E0,4.486696488E0
3.591278458E0,1.465956167E0,-1.383241893E0,8.731132579E-1,2.196522793E0
3.601327458E0,1.083417578E0,1.069175076E0,5.092341574E-1,1.605069600E0
3.611376458E0,8.368124275E-1,3.525994999E0,3.882893255E-1,3.644676169E0
3.621425458E0,1.573281080E-1,5.991623753E0,-1.118712687E-1,5.994732897E0
3.631474458E0,-5.660951136E-1,8.133834822E0,-1.050422179E0,8.220895289E0
3.641523458E0,-9.427046259E-1,7.747621551E0,-2.200060498E0,8.108920884E0
3.651573458E0,-1.125615326E0,4.530123895E0,-2.037793100E0,5.093292951E0
3.661622458E0,-3.705740163E-1,3.481944416E0,-1.222202411E0,3.708778876E0
3.671671458E0,3.284318174E-1,4.968116015E0,-1.744394291E0,5.275694802E0
3.681720458E0,6.618817154E-1,8.063789272E0,-3.409771063E0,8.780052593E0
3.691769458E0,8.249300082E-1,1.254523393E1,-5.186696631E0,1.360019212E1
3.701818458E0,1.008831665E0,1.796446146E1,-5.708748908E0,1.887669015E1
3.711867458E0,2.681479304E0,2.284355596E1,-5.440517246E0,2.363509272E1
3.721916458E0,3.455063596E0,2.389897370E1,-5.829890352E0,2.484121636E1
3.731966458E0,1.634808406E-1,2.159965204E1,-6.296672409E0,2.249932838E1
3.742015458E0,-1.892229736E0,1.979384474E1,-6.077502394E0,2.079213453E1
3.752064458E0,-3.016497279E0,1.899428010E1,-5.478058709E0,1.999727630E1
3.762113458E0,-3.812769352E0,1.898211906E1,-4.687218114E0,1.992054386E1
3.772162458E0,-3.798345441E0,1.935931943E1,-3.774281809E0,2.008621119E1
3.782211458E0,-2.548328848E0,1.909165261E1,-2.802966903E0,1.946385889E1
3.792260458E0,-9.549273531E-1,1.728669900E1,-2.279282084E0,1.746244471E1
3.802310458E0,7.090450644E-1,1.440227337E1,-2.350471934E0,1.461002879E1
3.812359458E0,1.557004478E0,1.066743336E1,-1.981294087E0,1.096101837E1
3.822408458E0,2.754741700E0,6.591729342E0,-1.401983389E0,7.280457058E0
3.832457458E0,3.372379581E0,2.114843177E0,-5.925135648E-1,4.024497239E0
3.842506458E0,1.971181766E0,-1.678881794E0,4.745144141E-1,2.632368812E0
3.852555458E0,8.847634696E-1,-2.994698859E0,2.998760920E0,4.329387336E0
3.862605458E0,-3.324849612E-1,-5.771775461E0,7.802811080E0,9.711220262E0
3.872654458E0,-2.402578519E0,-9.226032141E0,7.410937704E0,1.207534887E1
3.882703458E0,-5.396673653E0,-1.245789641E1,3.393729812E0,1.399430854E1
3.892752458E0,-3.500291809E0,-1.437789632E1,2.915365591E0,1.508228437E1
3.902801458E0,-1.524846400E-1,-1.447383276E1,3.240632164E0,1.483296272E1
3.912850458E0,4.042536861E-1,-1.390927473E1,3.773870165E0,1.441781678E1
3.922899458E0,1.305443227E0,-1.294280015E1,3.547511584E0,1.348351201E1
3.932949458E0,1.674721354E0,-1.252652751E1,3.004260811E0,1.299015651E1
3.942998458E0,1.457744045E0,-1.219642412E1,2.068488790E0,1.245618019E1
3.953047458E0,1.380048144E0,-1.207080488E1,4.628001022E-1,1.215825017E1
3.963096458E0,1.017414208E0,-1.198664240E1,-7.600340275E-1,1.205372886E1
3.973145458E0,6.137247051E-1,-1.171393762E1,-1.150309871E0,1.178627190E1
3.983194458E0,1.303322442E-2,-1.155091958E1,-1.501383716E0,1.164809281E1
3.993243458E0,-3.015171569E-1,-1.130778651E1,-1.596110948E0,1.142385743E1
4.003293458E0,-2.384274176E-1,-1.109316212E1,-1.299264182E0,1.117153440E1
4.013343083E0,-3.188268521E-1,-1.091023782E1,-9.902259707E-1,1.095972114E1
4.023392083E0,-5.027739708E-1,-1.085542369E1,-1.013573903E0,1.091422636E1
4.033441083E0,-9.801064139E-1,-1.094249808E1,-1.449316599E0,1.108148869E1
4.043490083E0,-1.210940820E0,-1.105290989E1,-1.684116222E0,1.124586333E1
4.053539083E0,-1.295330468E0,-1.135463791E1,-2.015569734E0,1.160466305E1
4.063588083E0,-5.295975975E-1,-1.105296368E1,-2.115926666E0,1.126612735E1
4.073638083E0,3.811367921E-1,-9.777797629E0,-1.484443163E0,9.897179560E0
4.083687083E0,1.360070255E0,-8.982849365E0,-1.004935226E0,9.140638305E0
4.093736083E0,2.002176248E0,-8.572354361E0,-4.974770147E-1,8.817111341E0
4.103785083E0,2.214200088E0,-8.453865799E0,1.197623786E0,8.820704717E0
4.113834083E0,2.103285278E0,-8.738798279E0,2.258695207E0,9.267799542E0
4.123883083E0,2.011906600E0,-9.424555053E0,1.478736280E0,9.749700872E0
4.133932083E0,2.601570962E0,-9.954770043E0,3.511124361E-1,1.029509097E1
4.143982083E0,3.294482974E0,-1.013132555E1,1.774509352E-2,1.065352948E1
4.154031083E0,3.280902523E0,-1.018271088E1,4.234483409E-1,1.070659753E1
4.164080083E0,2.951517464E0,-1.029290751E1,9.902411735E-1,1.075341703E1
4.174129083E0,2.636791373E0,-1.037066963E1,1.325798846E0,1.078244870E1
4.184178083E0,2.235935797E0,-1.053884608E1,1.404407644E0,1.086457760E1
4.194227083E0,1.961930447E0,-1.065308430E1,1.205661954E0,1.089912826E1
4.204277083E0,1.927113494E0,-1.058338899E1,9.590147030E-1,1.080007399E1
4.214326083E0,1.721801819E0,-1.071534896E1,8.349063814E-1,1.088486901E1
4.224375083E0,1.737725687E0,-1.112760924E1,3.585395328E-1,1.126818213E1
4.234424083E0,2.286886095E0,-1.101440246E1,-4.467319536E-1,1.125817388E1
4.244473083E0,2.317256533E0,-9.939088980E0,-1.633381101E0,1.033552618E1
4.254522083E0,1.961707961E0,-9.109703540E0,-3.173078113E0,9.843953546E0
4.264571083E0,1.625807787E0,-7.392686205E0,-3.171582395E0,8.206947982E0
4.274621083E0,8.046116647E-1,-5.859627537E0,-1.872553271E0,6.203957653E0
4.284670083E0,4.885894661E-1,-5.357527714E0,-3.507345890E0,6.422094523E0
4.294719083E0,-7.165892152E-1,5.565323140E0,-3.560039828E0,6.645314540E0
4.304768083E0,-6.663370013E0,6.465548884E1,1.330381894E-1,6.499808025E1
4.314817083E0,-1.071667861E1,6.152088073E1,-1.887221596E1,6.523669598E1
4.324866083E0,-1.119401489E1,3.269922739E1,-1.630794059E1,3.821641490E1
4.334915083E0,-8.329572705E0,1.356251613E1,7.706888677E0,1.768388414E1
4.344965083E0,-1.258354021E1,4.912642896E0,1.478053208E1,2.002357793E1
4.355014083E0,-9.368431138E0,8.299074213E0,8.630004984E-1,1.254539376E1
4.365063083E0,-4.414051986E0,1.398403840E1,-6.758182615E-2,1.466430197E1
4.375112083E0,-4.439683841E0,1.531089910E1,-1.506498568E0,1.601261883E1
4.385161083E0,-4.010106741E0,1.504302646E1,-4.365844909E0,1.616892708E1
4.395210083E0,-2.885666998E0,1.418206138E1,-2.384497174E0,1.466777985E1
4.405260083E0,-2.154737560E0,1.229981342E1,1.640354490E-1,1.248820290E1
4.415309083E0,-9.065249059E-1,9.445444230E0,2.479291065E-1,9.492084753E0
4.425358083E0,-9.639847632E-2,7.870956870E0,-5.028006122E-1,7.887589187E0
4.435407083E0,7.725169558E-2,6.751814997E0,-1.451618063E0,6.906530865E0
4.445456083E0,1.935362234E-1,5.066317078E0,-1.910795523E0,5.418132939E0
4.455505083E0,9.582968842E-2,3.307722532E0,-1.208154183E0,3.522761447E0
4.465554083E0,-1.809587529E-1,1.518012028E0,3.727481572E-1,1.573546242E0
4.475604083E0,-6.667532500E-2,-2.273502696E-1,4.875890806E-2,2.418908331E-1
4.485653083E0,2.077427648E-1,-1.771600508E0,-5.043971213E-1,1.853683326E0
4.495702083E0,6.217875038E-1,-3.062930018E0,-5.402241810E-1,3.171750646E0
4.505751083E0,8.878046796E-1,-4.078313634E0,-6.199007535E-1,4.219610905E0
4.515800083E0,6.157673568E-1,-4.842027826E0,-7.045241435E-1,4.931607971E0
4.525849083E0,3.380196066E-1,-5.592709159E0,-5.940467413E-1,5.634318461E0
4.535899083E0,4.820607210E-1,-6.456635857E0,-5.681377288E-1,6.499485334E0
4.545948083E0,5.261598732E-1,-7.284785196E0,-4.308883381E-1,7.316461188E0
4.555997083E0,4.810080760E-1,-7.807042125E0,-2.850716436E-1,7.827039118E0
4.566046083E0,8.169664842E-2,-7.835403460E0,-1.356296754E-1,7.837003071E0
4.576095083E0,-5.372227322E-1,-7.534440254E0,1.558364832E-1,7.555175922E0
4.586144083E0,-7.862683645E-1,-7.142428883E0,3.773003608E-1,7.195475235E0
4.596193083E0,-6.461931241E-1,-6.668674023E0,4.189185029E-1,6.712992737E0
4.606243083E0,-2.229818330E-1,-6.187187973E0,-1.940796125E-1,6.194245944E0
4.616292083E0,1.706881917E-1,-5.687849205E0,-2.185360597E0,6.095618425E0
4.626341083E0,8.824800588E-1,-4.633334268E0,-3.674709574E0,5.979134381E0
4.636390083E0,9.356701331E-1,-3.532585396E0,-3.795481474E0,5.268806108E0
4.646439083E0,4.957935647E-1,-2.896160996E0,-2.873737509E0,4.109978959E0
4.656488083E0,6.279014713E-2,-2.749923302E0,-1.974687172E0,3.386061162E0
4.666537083E0,-3.303494849E-1,-2.671299301E0,-1.645970741E0,3.155026215E0
4.676587083E0,-5.909161786E-1,-2.367144100E0,-1.624170567E0,2.930952601E0
4.686636083E0,-7.506586750E-1,-1.882078970E0,-1.560828849E0,2.557713118E0
4.696685083E0,-1.024681712E0,-1.170964576E0,-1.236446959E0,1.987443517E0
4.706734083E0,-1.345385557E0,-2.903896862E-1,-8.306618875E-1,1.607603072E0
4.716783083E0,-1.622636550E0,5.063203436E-1,-5.288186753E-1,1.780156975E0
4.726832083E0,-1.950546503E0,1.019922225E0,-3.087201226E-1,2.222651822E0
4.736882083E0,-2.191977599E0,1.270226909E0,-2.836250196E-2,2.533583752E0
4.746931083E0,-2.216117244E0,1.413004805E0,2.292131925E-1,2.638237462E0
4.756980083E0,-2.164236361E0,1.525258482E0,3.884691274E-1,2.676049463E0
4.767029083E0,-2.046536734E0,1.756797112E0,4.647986805E-1,2.736911857E0
4.777078083E0,-1.628704936E0,2.105714504E0,3.447460242E-1,2.684318007E0
4.787127083E0,-1.174831998E0,2.420368965E0,-1.944078606E-2,2.690500714E0
4.797176083E0,-8.992203449E-1,2.697726962E0,-5.179802398E-1,2.890437946E0
4.807226083E0,-6.931726514E-1,2.838401030E0,-8.854907171E-1,3.053048074E0
4.817275083E0,-4.934041366E-1,2.732700913E0,-8.389538240E-1,2.900852537E0
4.827324083E0,-2.523417261E-1,2.403724866E0,-2.694093648E-1,2.431902750E0
4.837373083E0,1.318336995E-1,1.805022608E0,5.266237036E-1,1.884892375E0
4.847422083E0,6.995368340E-1,9.947154629E-1,1.035965230E0,1.597508871E0
4.857471083E0,7.947064814E-1,2.038877320E-1,9.472979792E-1,1.253196736E0
4.867521083E0,6.467049017E-1,-5.481022078E-1,8.595442092E-1,1.207252876E0
4.877570083E0,6.675334878E-1,-1.337068185E0,9.440423226E-1,1.767644816E0
4.887619083E0,6.652608213E-1,-2.028158205E0,1.161630081E0,2.430099197E0
4.897668083E0,6.564572534E-1,-2.581798310E0,1.310089717E0,2.968661939E0
4.907717083E0,6.321312283E-1,-3.023686430E0,1.294339657E0,3.349266288E0
4.917766083E0,6.408745699E-1,-3.348754199E0,1.224153188E0,3.622626937E0
4.927816083E0,6.770365289E-1,-3.536279082E0,1.140923921E0,3.776950569E0
4.937865083E0,7.159959421E-1,-3.649609231E0,1.054829591E0,3.865871596E0
4.947914083E0,7.312304239E-1,-3.683056474E0,9.952183235E-1,3.884592956E0
4.957963083E0,7.166315344E-1,-3.742546046E0,9.295576000E-1,3.922281096E0
4.968012083E0,7.399764698E-1,-3.817934198E0,9.430178905E-1,4.001683328E0
4.978061083E0,6.877515516E-1,-3.917470765E0,1.035175856E0,4.109886671E0
4.988110083E0,3.227808855E-1,-4.389524671E0,1.020661898E0,4.518170542E0
4.998160083E0,-5.759228213E-1,-5.179017482E0,8.942100120E-1,5.287108919E0
5.008209083E0,-7.465720560E-1,-5.767639725E0,7.637960529E-1,5.865698786E0
5.018257792E0,-3.734998168E-1,-6.539815423E0,9.024931777E-1,6.612350703E0
5.028306792E0,-1.512179138E0,-7.805764509E0,7.848671523E-1,7.989534515E0
5.038355792E0,-1.698301859E0,-9.491131450E0,-2.421332002E-2,9.641908094E0
5.048404792E0,-2.178354610E-1,-1.078587924E1,-6.820660114E-1,1.080961874E1
5.058454792E0,1.206525514E0,-1.065463381E1,-2.878012700E-1,1.072659102E1
5.068503792E0,2.012608412E0,-1.046295740E1,4.009333447E-2,1.065484292E1
5.078552792E0,2.187555350E0,-9.824370117E0,-5.139340031E-1,1.007808388E1
5.088601792E0,1.728936445E0,-8.346951799E0,-1.658514773E0,8.683979320E0
5.098650792E0,1.191602324E0,-5.821004924E0,-3.503284414E0,6.897609448E0
5.108699792E0,8.245426302E-1,-1.146304529E0,-5.823173656E0,5.991930911E0
5.118749792E0,-4.255036372E-1,4.681204253E0,-6.868221366E0,8.322691352E0
5.128798792E0,-3.137813555E0,9.557258781E0,-4.687086259E0,1.109756040E1
5.138847792E0,-5.093323613E0,1.044944683E1,-7.747876489E-1,1.165045837E1
5.148896792E0,-5.088996089E0,6.570864138E0,2.086449097E0,8.568979318E0
5.158945792E0,-4.582052432E0,4.976389825E0,2.670951100E0,7.272801383E0
5.168994792E0,-5.867837613E0,5.336632104E0,-2.258896351E-2,7.931687760E0
5.179043792E0,-7.016369931E0,6.209062992E0,-1.350456555E0,9.466025731E0
5.189093792E0,-7.163250818E0,7.991471493E0,-2.237626519E0,1.096278940E1
5.199142792E0,-6.410258666E0,1.084153304E1,-4.423263105E0,1.334898915E1
5.209191792E0,-5.064134898E0,1.324899311E1,-5.175956465E0,1.509873524E1
5.219240792E0,-3.817412334E0,1.462713272E1,-5.626374503E0,1.613014999E1
5.229289792E0,-3.159051812E0,1.484703364E1,-6.791273178E0,1.662935379E1
5.239338792E0,-3.475584399E0,1.495219815E1,-8.575163949E0,1.758355349E1
5.249388792E0,-3.749810919E0,1.496391246E1,-1.009593001E1,1.843658214E1
5.259437792E0,-3.785830645E0,1.309154864E1,-9.664435905E0,1.670695905E1
5.269486792E0,-3.840662325E0,1.068590589E1,-8.219819298E0,1.401801345E1
5.279535792E0,-4.680119302E0,9.171788691E0,-7.559293259E0,1.277372847E1
5.289584792E0,-5.583866415E0,8.382920946E0,-7.977051090E0,1.284859027E1
5.299633792E0,-5.590791273E0,9.394227299E0,-9.875522729E0,1.473208752E1
5.309683792E0,-5.171544741E0,1.191187054E1,-1.183172393E1,1.756778944E1
5.319732792E0,-6.766396784E0,1.423433782E1,-1.344247514E1,2.071474442E1
5.329781792E0,-1.079133586E1,1.500635506E1,-1.469317117E1,2.361213462E1
5.339830792E0,-1.358455078E1,1.481416176E1,-1.201681052E1,2.341800896E1
5.349879792E0,-1.367367404E1,1.099333845E1,-7.643914749E0,1.913771890E1
5.359928792E0,-1.187511495E1,6.372169903E0,-3.021763281E0,1.381137059E1
5.369978792E0,-1.015065878E1,2.648119184E0,1.043342662E0,1.054215219E1
5.380027792E0,-9.100827466E0,-2.160459060E0,5.676367028E0,1.094137955E1
5.390076792E0,-4.367056452E0,-6.488469268E0,1.201216082E1,1.433399536E1
5.400125792E0,5.022769355E0,-7.394948493E0,1.252758001E1,1.539005316E1
5.410174792E0,5.275597697E0,-7.765540343E0,8.952023429E0,1.297205733E1
5.420223792E0,4.203434401E0,-7.841822534E0,6.059109392E0,1.076456446E1
5.430273792E0,4.675448546E0,-7.659081257E0,6.700011005E0,1.119872726E1
5.440322792E0,7.306149752E0,-7.765705234E0,1.123977287E1,1.549253033E1
5.450371792E0,1.169426758E1,-9.371881580E0,1.620540264E1,2.207267844E1
5.460420792E0,1.704270989E1,-1.227108605E1,1.433049061E1,2.542432840E1
5.470469792E0,1.644222774E1,-1.429241939E1,6.043465751E0,2.260848476E1
5.480518792E0,1.257855019E1,-1.414238217E1,2.301174936E0,1.906626089E1
5.490567792E0,7.289517932E0,-1.469384711E1,2.850251875E0,1.664842787E1
5.500617792E0,3.672688776E0,-1.362052753E1,2.311401716E0,1.429510374E1
5.510666792E0,2.557606040E0,-1.225912148E1,1.570026081E0,1.262110890E1
5.520715792E0,2.656940002E0,-1.013419302E1,6.011728527E-1,1.049393192E1
5.530764792E0,3.290663280E0,-8.306410130E0,-2.909514575E-1,8.939215112E0
5.540813792E0,3.113622454E0,-6.826062357E0,-1.102362411E-1,7.503460809E0
5.550862792E0,2.856893727E0,-5.400051005E0,4.994831944E-1,6.129590205E0
5.560912792E0,3.118429743E0,-4.269335153E0,1.095195186E0,5.399192459E0
5.570961792E0,3.081246714E0,-2.745070113E0,1.306693800E0,4.328618708E0
5.581010792E0,3.295649494E0,-2.488008386E0,6.454916775E-1,4.179491694E0
5.591059792E0,4.152718284E0,-3.611881242E0,-3.661619997E-1,5.515870726E0
5.601108792E0,4.316122526E0,-5.382572508E0,-1.131333902E-2,6.899357104E0
5.611157792E0,4.025354233E0,-7.552925642E0,9.435369770E-1,8.610483405E0
5.621207792E0,4.015406950E0,-9.195826010E0,1.106317614E0,1.009508037E1
5.631256792E0,3.863290465E0,-1.007845035E1,1.028339292E0,1.084240086E1
5.641305792E0,3.381255070E0,-1.053819002E1,6.209659700E-1,1.108476132E1
5.651354792E0,2.500437228E0,-1.097482617E1,-2.929535441E-1,1.125987644E1
5.661403792E0,1.666398135E0,-1.128137814E1,-1.259510132E0,1.147313128E1
5.671452792E0,1.185503239E0,-1.145398444E1,-1.365702731E0,1.159587519E1
5.681502792E0,6.647901204E-1,-1.165273715E1,-5.861553025E-1,1.168639410E1
5.691551792E0,1.804161313E-1,-1.196039776E1,7.335215092E-1,1.198422790E1
5.701600792E0,-5.195363666E-1,-1.237956477E1,1.226934124E0,1.245106056E1
5.711649792E0,-4.824724746E-1,-1.234138128E1,3.810807319E-1,1.235668621E1
5.721698792E0,-1.117811047E0,-1.263014485E1,-6.618336220E-1,1.269677456E1
5.731747792E0,-2.271611267E0,-1.322038151E1,-2.358665053E0,1.361991211E1
5.741797792E0,-1.763159321E0,-1.320032556E1,-3.147378430E0,1.368441876E1
5.751846792E0,-1.357209797E0,-1.312145715E1,-3.598038543E0,1.367335136E1
5.761895792E0,-2.285923059E0,-1.331637876E1,-4.235782660E0,1.415956363E1
5.771944792E0,-2.512681882E0,-1.281877252E1,-3.768800629E0,1.359552711E1
5.781993792E0,-2.954075620E0,-8.877914064E0,-1.442294970E0,9.467002465E0
5.792042792E0,-1.113942237E0,-5.613687215E0,2.148918995E-1,5.727174694E0
5.802092792E0,-3.345518057E-1,-5.343475685E0,7.990992022E-1,5.413244576E0
5.812141792E0,-3.606308261E0,2.902945520E0,4.039003973E0,6.143785890E0
5.822190792E0,-2.371573366E1,5.787058562E1,1.706269334E1,6.482727981E1
5.832239792E0,1.798603096E0,6.698776073E1,3.432802661E0,6.709977046E1
5.842288792E0,2.516491460E1,2.651204994E1,-1.858368628E1,4.100628140E1
5.852337792E0,1.412793019E1,7.040852807E0,-4.914387120E0,1.653248985E1
5.862387792E0,7.046984782E0,9.170891728E0,2.471857500E0,1.182689009E1
5.872436792E0,2.919693992E0,9.743513650E0,4.592506084E0,1.116027703E1
5.882485792E0,-8.991504706E-1,9.808715367E0,1.615012658E0,9.981364366E0
5.892534792E0,1.196049424E-1,1.316522005E1,-4.395685297E0,1.388017916E1
5.902583792E0,2.596590012E0,1.773798126E1,-4.447708852E0,1.847052714E1
5.912632792E0,2.176918534E0,1.716555171E1,-2.198688741E0,1.744217222E1
5.922682792E0,-1.516248215E0,1.184968073E1,-1.676629447E0,1.206337549E1
5.932731792E0,-4.622896988E0,7.848440412E0,-4.116781589E0,9.995853346E0
5.942780792E0,-5.984561486E0,6.374694146E0,-8.558284206E0,1.223502882E1
5.952829792E0,-2.632013760E-1,7.290955762E0,-8.832118671E0,1.145572482E1
5.962878792E0,2.494005291E0,7.558258887E0,-4.958941734E0,9.377549942E0
5.972927792E0,1.763472586E0,5.448078865E0,-1.589218543E0,5.942811999E0
5.982977792E0,1.383134450E0,3.938923030E0,-7.926953316E-2,4.175459161E0
5.993026792E0,1.035084932E0,2.799213576E0,2.014965132E-1,2.991253634E0
6.003075792E0,6.727052039E-1,2.073703921E0,6.881631956E-2,2.181173063E0
6.013124792E0,3.188708159E-1,1.749833078E0,5.685964063E-2,1.779558209E0
6.023173792E0,1.666182373E-1,1.712924284E0,1.561829308E-1,1.728081117E0
6.033223792E0,6.382773098E-2,1.536341879E0,2.354172345E-1,1.555584014E0
6.043272792E0,-1.111675563E-1,9.633989453E-1,3.104020742E-1,1.018255960E0
6.053321792E0,-5.468551429E-1,-8.090675354E-2,3.021982844E-1,6.300160737E-1
6.063370792E0,-1.169941606E0,-1.185422401E0,2.234117313E-1,1.680447093E0
6.073419792E0,-1.478331945E0,-2.241392711E0,3.010368812E-1,2.701838231E0
6.083468792E0,-1.715853154E0,-3.251267080E0,5.188959503E-1,3.712700187E0
6.093518792E0,-1.700831365E0,-4.206104532E0,7.827936566E-1,4.604010054E0
6.103567792E0,-1.539431402E0,-4.850834318E0,1.079896677E0,5.202558933E0
6.113616792E0,-1.492301090E0,-5.260660985E0,1.291741300E0,5.618728693E0
6.123665792E0,-1.466634006E0,-5.580886089E0,1.351730078E0,5.926590846E0
6.133714792E0,-1.319908069E0,-5.838061252E0,1.400031588E0,6.146967133E0
6.143763792E0,-1.056907033E0,-6.031114093E0,1.339453118E0,6.267816553E0
6.153813792E0,-9.125734851E-1,-6.201823554E0,1.152985411E0,6.373757222E0
6.163862792E0,-9.044772841E-1,-6.296933779E0,9.672453900E-1,6.434673094E0
6.173911792E0,-9.161652835E-1,-6.149846485E0,8.653984416E-1,6.277649646E0
6.183960792E0,-9.893984435E-1,-5.480930861E0,8.508320041E-1,5.634130588E0
6.194009792E0,-1.266428265E0,-4.488336768E0,8.468171597E-1,4.739842487E0
6.204058792E0,-1.592153260E0,-3.501613280E0,7.656438462E-1,3.922047688E0
6.214108792E0,-1.826374155E0,-2.520062823E0,6.204118732E-1,3.173526442E0
6.224157792E0,-1.940250580E0,-1.592327215E0,4.392019093E-1,2.548131980E0
6.234206792E0,-2.130777570E0,-8.251561493E-1,-1.661872244E-1,2.291007184E0
6.244255792E0,-2.060987982E0,-1.399700636E-1,-7.837994508E-1,2.209435371E0
6.254304792E0,-1.501917274E0,4.046454495E-1,-6.093979847E-1,1.670586526E0
6.264353792E0,-1.174339004E0,4.173613894E-1,-3.259611496E-1,1.288220981E0
6.274403792E0,-8.088244374E-1,2.455017811E-1,-3.879627585E-2,8.461520230E-1
6.284452792E0,-1.128051422E-1,2.809791774E-1,9.193803750E-2,3.164283504E-1
6.294501792E0,7.778657694E-1,5.221417397E-1,-2.833209141E-1,9.787634505E-1
6.304550792E0,1.164878721E0,7.609373492E-1,-4.934769344E-1,1.476308765E0
6.314599792E0,1.306221199E0,9.668043637E-1,-3.301816698E-1,1.658295641E0
6.324648792E0,1.549019081E0,9.955843592E-1,-1.947624942E-1,1.851642719E0
6.334698792E0,1.902828400E0,7.004484880E-1,-3.971219102E-1,2.066177585E0
6.344747792E0,2.164128188E0,3.605972046E-1,-4.850674689E-1,2.246947175E0
6.354796792E0,1.788909728E0,1.050142390E-1,-1.674128739E-1,1.799792509E0
6.364845792E0,7.302054801E-1,-6.080870390E-2,1.583858693E-1,7.496558045E-1
6.374894792E0,6.209012121E-4,-8.980153799E-3,3.007830390E-1,3.009177050E-1
6.384943792E0,-6.071107002E-1,1.017392135E-1,4.192944058E-1,7.448100889E-1
6.394993792E0,-1.333260040E0,1.918898302E-1,4.682472952E-1,1.426064364E0
6.405042792E0,-1.919580965E0,1.863916934E-1,5.780919921E-1,2.013386027E0
6.415091792E0,-2.236589808E0,3.263974249E-2,9.413795006E-1,2.426848715E0
6.425140792E0,-2.359599876E0,-4.653857410E-1,1.272596201E0,2.720991833E0
6.435189792E0,-1.608129608E0,-8.557236385E-1,1.293456873E0,2.234138417E0
6.445239792E0,-9.081613954E-1,-1.081144327E0,1.376498884E0,1.971897399E0
6.455288792E0,-2.669272218E-1,-1.626003669E0,1.069960796E0,1.964676609E0
6.465337792E0,5.492224612E-1,-1.353169078E0,5.696510978E-1,1.567550395E0
6.475386792E0,1.830773453E-1,-2.534062226E0,9.131583528E-1,2.699786447E0
6.485435792E0,1.531754154E0,-2.874816320E0,6.366694716E-1,3.319064277E0
6.495484792E0,8.011059081E0,-2.714579807E0,-5.201016462E-1,8.474462629E0
6.505534792E0,2.715235572E0,-3.731639820E0,1.591851836E0,4.881765278E0
6.515583792E0,-1.236288061E0,-3.936486495E0,1.135269517E0,4.279389089E0
6.525632792E0,-3.161383389E-1,-4.654270223E0,1.718723552E0,4.971537530E0
6.535681792E0,8.642698558E-1,-4.318040705E0,9.384325039E-1,4.502565211E0
6.545730792E0,1.516950758E0,-3.555505312E0,5.512369001E-1,3.904692017E0
6.555779792E0,1.528449015E0,-3.225789008E0,7.875451040E-1,3.655420414E0
6.565829792E0,9.524717418E-1,-3.143474244E0,9.390221225E-1,3.416196026E0
6.575878792E0,3.654427191E-1,-3.535575078E0,1.071581790E0,3.712428726E0
6.585927792E0,5.607395757E-1,-4.059531208E0,1.221974516E0,4.276382142E0
6.595976792E0,1.060768461E0,-4.261656590E0,1.025910212E0,4.509926649E0
6.606025792E0,1.189123981E0,-4.685017222E0,-8.071394160E-2,4.834244197E0
6.616075792E0,1.128318640E0,-5.050284598E0,-1.605308619E0,5.418070988E0
6.626124792E0,7.485612787E-1,-5.728428297E0,-2.775343487E0,6.409193882E0
6.636173792E0,3.695702686E-1,-6.313165065E0,-3.101522226E0,7.043583991E0
6.646222792E0,-2.037202824E-2,-6.946721991E0,-2.757206594E0,7.473924647E0
6.656271792E0,-1.913689895E0,-7.140011644E0,-2.440757622E0,7.784553492E0
6.666320792E0,-3.922454347E0,-6.458378912E0,-3.126241915E0,8.177389240E0
6.676370792E0,-4.558155154E0,-4.374506097E0,-3.238630078E0,7.099422990E0
6.686419792E0,-3.495621053E0,-1.511287145E0,-1.420387061E0,4.064585438E0
6.696468792E0,-2.756189178E0,1.690852799E0,8.756756540E-1,3.349980571E0
6.706517792E0,-2.145614734E0,5.141984727E0,1.505445046E0,5.771484584E0
6.716566792E0,-4.188220239E-1,6.367957569E0,8.471884578E-2,6.382278023E0
6.726615792E0,7.762496721E-1,4.206637799E0,-1.478032275E0,4.525808715E0
6.736665792E0,8.421484503E-1,1.450215901E0,-1.600253408E0,2.318005855E0
6.746714792E0,1.082484436E0,4.700038719E-1,-7.971696210E-1,1.424133279E0
6.756763792E0,1.791176694E0,1.738236296E0,-5.375064683E-1,2.553173040E0
6.766812792E0,2.293513183E0,4.557469568E0,-1.381627623E0,5.285794782E0
6.776861792E0,2.338002016E0,9.069275891E0,-3.031717581E0,9.844253659E0
6.786911792E0,2.602788060E0,1.401803294E1,-4.583812152E0,1.497635093E1
6.796960792E0,3.200562073E0,1.774428806E1,-6.037415053E0,1.901456644E1
6.807009792E0,2.243426372E0,1.383966831E1,-7.844387122E0,1.606560892E1
6.817058792E0,3.134622876E-1,1.030135790E1,-8.602783856E0,1.342475785E1
6.827107792E0,-1.114689584E0,1.216864049E1,-9.730114170E0,1.562029021E1
6.837156792E0,-2.310724609E0,1.611670623E1,-1.130421386E1,1.982102215E1
6.847206792E0,-3.488352964E0,2.095341309E1,-1.341276777E1,2.512203148E1
6.857255792E0,-2.843668787E0,2.522707752E1,-1.341054817E1,2.871122942E1
6.867304792E0,-6.030784310E0,2.382100225E1,-1.265291625E1,2.763886389E1
6.877353792E0,-1.025918194E1,1.865229517E1,-1.129754803E1,2.409965810E1
6.887402792E0,-1.178408315E1,1.424569429E1,-1.044822476E1,2.123605006E1
6.897451792E0,-1.164475336E1,1.144100479E1,-8.546589775E0,1.842664018E1
6.907501792E0,-9.107855819E0,1.037632622E1,-5.684215161E0,1.493089031E1
6.917550792E0,-6.544093831E0,1.042820506E1,-4.345270604E0,1.305580336E1
6.927599792E0,-5.643824934E0,1.008569154E1,-4.004156907E0,1.223140246E1
6.937648792E0,-5.086308124E0,8.119208012E0,-2.585912411E0,9.923659208E0
6.947697792E0,-3.780574583E0,3.842697741E0,3.620935071E-1,5.402793889E0
6.957747792E0,-2.563431036E0,-3.905682778E-1,1.673111762E0,3.085939926E0
6.967796792E0,-1.622318900E0,-3.926713459E0,3.256599741E0,5.353170936E0
6.977845792E0,1.164297873E0,-6.378776087E0,8.598252264E0,1.076913719E1
6.987894792E0,3.145713728E0,-7.683944203E0,1.034107453E1,1.326183757E1
6.997943792E0,3.956040461E0,-8.818188264E0,9.316016697E0,1.342381717E1
7.007992792E0,4.789126897E0,-1.006320549E1,8.934534992E0,1.428389851E1
7.018042542E0,6.716546931E0,-1.182330160E1,8.270870168E0,1.591570786E1
7.028091542E0,8.541382830E0,-1.347940615E1,7.261455975E0,1.753220904E1
7.038140542E0,8.815254132E0,-1.730446752E1,9.027585828E0,2.141612961E1
7.048189542E0,5.049877047E0,-1.975976249E1,8.814272969E0,2.221803051E1
7.058238542E0,8.791937044E-1,-1.860654889E1,6.879595370E0,1.985712657E1
7.068288542E0,-1.069693140E0,-1.607440046E1,5.102825339E0,1.689879936E1
7.078337542E0,-1.423529940E0,-1.352009458E1,3.609070778E0,1.406573094E1
7.088386542E0,-4.225183412E-1,-1.171277519E1,2.457041825E0,1.197516927E1
7.098435542E0,7.337585407E-1,-1.034207207E1,1.216005240E0,1.043913430E1
7.108484542E0,7.406706805E-1,-8.923799504E0,9.957116823E-1,9.009674378E0
7.118533542E0,6.904022406E-1,-6.837568508E0,1.437836030E0,7.021137429E0
7.128583542E0,1.316709642E0,-4.976206223E0,1.846853735E0,5.468749525E0
7.138632542E0,2.454203002E0,-3.902361560E0,1.783883754E0,4.943053648E0
7.148681542E0,2.917183783E0,-3.848763058E0,9.983715807E-1,4.931499175E0
7.158730542E0,1.683639527E0,-4.130396538E0,1.065817459E0,4.585933327E0
7.168779542E0,3.634353700E-1,-4.405062477E0,1.039440962E0,4.540605489E0
7.178829542E0,-4.295461097E-1,-5.446724650E0,1.279840901E0,5.611533837E0
7.188878542E0,-5.422061313E-1,-6.623872656E0,1.577890147E0,6.830769632E0
7.198927542E0,-1.194440270E0,-7.818141310E0,1.527349593E0,8.054987144E0
7.208976542E0,-1.701179713E0,-9.072525773E0,1.295070559E0,9.321048443E0
7.219025542E0,-1.634727422E0,-9.984506643E0,1.013267655E0,1.016805871E1
7.229074542E0,-1.595811717E0,-1.059548922E1,1.206129877E0,1.078265998E1
7.239124542E0,-1.755938741E0,-1.068633040E1,1.862366106E0,1.098860254E1
7.249173542E0,-2.515445569E0,-1.112685378E1,1.682647401E0,1.153107296E1
7.259222542E0,-3.029839748E0,-1.138998550E1,1.932709280E0,1.194349462E1
7.269271542E0,-3.562934784E0,-1.124499794E1,1.803777005E0,1.193306727E1
7.279320542E0,-3.728592836E0,-1.157894412E1,1.599044058E0,1.226911950E1
7.289370542E0,-3.520485168E0,-1.217106592E1,1.654811146E0,1.277759998E1
7.299419542E0,-3.514551414E0,-1.298130407E1,1.860794667E0,1.357677737E1
7.309468542E0,-4.312408667E0,-1.391046990E1,1.796460092E0,1.467396710E1
7.319517542E0,-3.608010970E0,-1.424165854E1,1.923255794E0,1.481693268E1
7.329566542E0,-1.670914671E0,-1.410563125E1,1.660654561E0,1.430099865E1
7.339615542E0,1.263902707E-1,-1.294397661E1,6.349539717E-1,1.296015708E1
7.349665542E0,9.999640699E-1,-1.170279750E1,-1.007852841E0,1.178860318E1
7.359714542E0,7.934560543E-1,-1.049625730E1,-3.312543561E0,1.103512277E1
7.369763542E0,2.525815533E-1,-9.246174629E0,-3.898273771E0,1.003753362E1
7.379812542E0,1.679325744E0,-7.265398752E0,-1.295222440E0,7.568603250E0
7.389861542E0,4.618314013E-1,-5.405979497E0,-1.487440738E0,5.625867268E0
7.399911542E0,-3.132793720E0,3.163722568E1,2.174452324E0,3.186623115E1
7.409960542E0,9.809441591E0,7.105871857E1,2.920530729E0,7.179203388E1
7.420009542E0,2.673579949E1,4.384030393E1,-9.597939030E0,5.223883284E1
7.430058542E0,3.414026959E0,9.724226609E0,-1.570116859E0,1.042503862E1
7.440107542E0,-4.226062541E0,3.939133530E0,6.642466217E0,8.803336584E0
7.450156542E0,-7.368732501E0,1.407938193E0,6.423615460E0,9.876403405E0
7.460206542E0,-3.678772804E0,4.358460168E0,-4.256602841E0,7.116755731E0
7.470255542E0,1.396113954E0,1.075095850E1,-1.105942135E1,1.548686680E1
7.480304542E0,3.155328597E-1,1.439145251E1,-1.011334887E1,1.759242143E1
7.490353542E0,1.805824554E0,1.578580411E1,-4.285325241E0,1.645650711E1
7.500402542E0,1.300959619E-1,1.466819421E1,-1.604083335E0,1.475621664E1
7.510452542E0,-4.223699681E0,1.175031665E1,-1.950406024E0,1.263778715E1
7.520501542E0,-6.638318202E0,8.962873523E0,-3.818428288E0,1.178901035E1
7.530550542E0,-5.242681966E0,7.658854385E0,-3.883135915E0,1.006093978E1
7.540599542E0,-1.131014352E0,6.689179623E0,-2.802396215E0,7.340145914E0
7.550648542E0,5.667671049E-1,5.447302355E0,-2.189431721E0,5.898130141E0
7.560697542E0,8.922836468E-1,3.973601696E0,-1.785221597E0,4.446650054E0
7.570747542E0,9.186766626E-1,3.027539746E0,-1.777137090E0,3.628798694E0
7.580796542E0,7.662111723E-1,2.128692307E0,-1.474710765E0,2.700589257E0
7.590845542E0,1.183603625E0,1.153145186E0,-7.914311635E-1,1.832218505E0
7.600894542E0,1.765021806E0,4.793138087E-1,-2.767370224E-1,1.849764061E0
7.610943542E0,2.034455802E0,1.187563652E-1,2.716673402E-1,2.055946650E0
7.620993542E0,2.265475053E0,-4.385312337E-1,6.072168271E-1,2.386084478E0
7.631042542E0,2.703263106E0,-1.170740628E0,4.635274959E-1,2.982133930E0
7.641091542E0,2.809048592E0,-1.863528094E0,4.569460161E-1,3.401806963E0
7.651140542E0,2.549323752E0,-2.649488018E0,5.199100037E-1,3.713373770E0
7.661189542E0,2.676319721E0,-3.359995471E0,4.244398825E-1,4.316527079E0
7.671239542E0,2.877706306E0,-4.102743301E0,3.162324791E-1,5.021324443E0
7.681288542E0,2.079674221E0,-4.908554522E0,5.637758155E-1,5.360671183E0
7.691337542E0,9.854958656E-1,-5.289715800E0,8.992935082E-1,5.455366546E0
7.701386542E0,6.428862313E-1,-5.480279481E0,9.702752709E-1,5.602517292E0
7.711435542E0,7.193478584E-1,-5.458406802E0,8.966799489E-1,5.578144950E0
7.721484542E0,7.779189791E-1,-5.196828101E0,7.487616920E-1,5.307807864E0
7.731534542E0,6.762778527E-1,-5.003960617E0,5.451604005E-1,5.078796457E0
7.741583542E0,5.814154033E-1,-4.842088053E0,4.237314192E-1,4.895243497E0
7.751632542E0,7.101909725E-1,-4.631585950E0,4.142647040E-1,4.703995629E0
7.761681542E0,7.920889022E-1,-4.312608057E0,4.489865669E-1,4.407673085E0
7.771730542E0,8.895391830E-1,-3.757700860E0,6.266471978E-1,3.912068816E0
7.781780542E0,8.447740694E-1,-3.041038628E0,9.025937498E-1,3.282717569E0
7.791829542E0,7.732499043E-1,-2.277291691E0,1.216032502E0,2.694941170E0
7.801878542E0,7.539134545E-1,-1.460042147E0,1.416761642E0,2.169636402E0
7.811927542E0,7.161345211E-1,-6.258549732E-1,1.492993108E0,1.770189684E0
7.821976542E0,2.727283175E-1,2.576517105E-2,1.377920927E0,1.404888131E0
7.832026542E0,-4.166124342E-1,3.280007315E-1,1.178032544E0,1.291863412E0
7.842075542E0,-1.080476721E0,3.071893215E-1,1.067779785E0,1.549822213E0
7.852124542E0,-1.475943065E0,2.280472577E-2,1.300691926E0,1.967416446E0
7.862173542E0,-6.603477714E-1,-4.054751694E-1,1.553181860E0,1.735754356E0
7.872222542E0,-1.615660968E-1,-7.579312956E-1,1.489292990E0,1.678855879E0
7.882271542E0,-1.167427303E-1,-9.266983116E-1,1.403676742E0,1.686032925E0
7.892321542E0,-1.287009441E-1,-9.583071899E-1,1.481946402E0,1.769486293E0
7.902370542E0,-1.773883700E-1,-9.047537112E-1,1.621842206E0,1.865587857E0
7.912419542E0,-1.478985956E-1,-8.936241210E-1,1.762665232E0,1.981773646E0
7.922468542E0,3.044206649E-2,-9.145173919E-1,1.935201509E0,2.140624596E0
7.932517542E0,2.179035079E-1,-9.945593423E-1,1.957219638E0,2.206204645E0
7.942567542E0,4.545657608E-1,-1.192309252E0,1.844611766E0,2.242949833E0
7.952616542E0,6.425149331E-1,-1.601150079E0,1.777954824E0,2.477424140E0
7.962665542E0,7.659957024E-1,-2.282340762E0,1.808585755E0,3.011114611E0
7.972714542E0,8.922916867E-1,-3.067040026E0,1.861350006E0,3.696964000E0
7.982763542E0,9.788015346E-1,-3.657527531E0,1.813065015E0,4.197947693E0
7.992813542E0,7.540306181E-1,-4.063782134E0,1.482584918E0,4.391007338E0
8.002862542E0,3.057637703E-1,-4.795996791E0,1.301694138E0,4.978903928E0
8.012912167E0,-1.173316911E-1,-5.552266307E0,1.168910888E0,5.675189912E0
8.022961167E0,-3.655231914E-1,-5.925499930E0,1.860560632E-1,5.939677894E0
8.033010167E0,-2.427355365E0,-5.748675451E0,-3.818618468E-1,6.251811096E0
8.043059167E0,-5.046233647E0,-5.286323830E0,-1.449420680E0,7.450537830E0
8.053109167E0,-4.855928412E0,-7.040803106E0,-4.549316211E0,9.687581076E0
8.063158167E0,-2.004916984E0,-7.770093570E0,-5.361129599E0,9.650686855E0
8.073207167E0,-3.800893365E-1,-7.073859170E0,-3.459768265E0,7.883777515E0
8.083256167E0,-3.574550571E-1,-5.842801005E0,-1.854899504E0,6.140582209E0
8.093305167E0,-9.640436009E-1,-4.359454780E0,-6.194060791E-1,4.507537014E0
8.103355167E0,-2.177987258E0,-2.300864741E0,6.949167296E-2,3.168980301E0
8.113404167E0,-2.411593025E0,5.564608026E-1,-2.763133916E-1,2.490337053E0
8.123453167E0,-1.740773110E0,3.585260623E0,-1.344271370E0,4.206120573E0
8.133502167E0,-1.118576374E0,5.510564550E0,-3.020056479E0,6.382654299E0
8.143551167E0,-6.429447035E-1,6.601655576E0,-5.151926748E0,8.398665575E0
8.153601167E0,-3.708618455E-2,7.333688968E0,-6.244800589E0,9.632336356E0
8.163650167E0,9.268459538E-1,9.086768421E0,-6.389278271E0,1.114680585E1
8.173699167E0,2.228829383E0,1.219606861E1,-7.027451574E0,1.425120506E1
8.183748167E0,3.430812854E0,1.766589210E1,-7.648573226E0,1.955389713E1
8.193797167E0,4.523112499E0,2.349815409E1,-8.786892797E0,2.549178843E1
8.203847167E0,3.224489756E0,2.680462122E1,-9.876880453E0,2.874783158E1
8.213896167E0,1.321260530E0,2.586190973E1,-1.033221717E1,2.788079654E1
8.223945167E0,4.132901193E-1,2.307484608E1,-9.050482939E0,2.478972714E1
8.233994167E0,-2.137851970E0,2.003520377E1,-9.713312781E0,2.236801838E1
8.244043167E0,-4.489755887E0,1.742529906E1,-1.189820443E1,2.157234860E1
8.254092167E0,-6.161253233E0,1.585886741E1,-1.288351640E1,2.134126781E1
8.264142167E0,-7.160882111E0,1.530745392E1,-1.161391281E1,2.050559311E1
8.274191167E0,-7.881205870E0,1.561605827E1,-9.207768363E0,1.976759166E1
8.284240167E0,-9.081963179E0,1.566202674E1,-7.370056311E0,1.954734936E1
8.294289167E0,-8.706025804E0,1.355644439E1,-5.522575901E0,1.703146835E1
8.304338167E0,-7.608792863E0,8.339329369E0,-1.336050185E0,1.136763710E1
8.314388167E0,-5.106958736E0,2.659773270E0,2.064129691E0,6.116866253E0
8.324437167E0,-3.117979215E0,-1.458973276E0,2.491707335E0,4.249588550E0
8.334486167E0,-1.896354655E0,-4.415310307E0,2.441050567E0,5.389791643E0
8.344535167E0,-6.519882996E-1,-6.663187580E0,2.679171993E0,7.211180211E0
8.354584167E0,2.768736134E0,-8.938866609E0,9.288698505E0,1.318518699E1
8.364634167E0,6.210669222E0,-1.097510917E1,1.580404508E1,2.021863681E1
8.374683167E0,7.176060314E0,-1.298357162E1,1.476395055E1,2.092948182E1
8.384732167E0,8.012701564E0,-1.457485160E1,9.114980067E0,1.896608940E1
8.394781167E0,9.597899854E0,-1.583237251E1,7.389053915E0,1.993443800E1
8.404830167E0,7.669613847E0,-1.833926564E1,7.005365471E0,2.107668822E1
8.414880167E0,5.441564482E0,-1.801487381E1,1.015047752E1,2.138173277E1
8.424929167E0,5.863170365E0,-1.844024940E1,3.554335284E0,1.967365914E1
8.434978167E0,3.420647469E0,-1.801494632E1,9.019680977E-1,1.835899416E1
8.445027167E0,-6.131852263E-1,-1.634828638E1,1.923866097E0,1.647251421E1
8.455076167E0,-2.395077711E0,-1.409396255E1,1.781896870E0,1.440664201E1
8.465126167E0,-2.039072910E0,-1.125070950E1,1.067947161E0,1.148376217E1
8.475175167E0,-1.161997578E0,-9.110769487E0,3.014939873E-1,9.189518902E0
8.485224167E0,-9.068065225E-1,-7.851100895E0,1.346000830E0,8.017094335E0
8.495273167E0,-1.367054900E0,-5.852152457E0,3.782809389E0,7.101138947E0
8.505322167E0,-2.966070306E-1,-4.169635448E0,4.595340815E0,6.212164897E0
8.515372167E0,1.312064468E0,-3.758431762E0,2.878005391E0,4.912253812E0
8.525421167E0,2.650921462E0,-2.345688912E0,1.988072179E0,4.059811826E0
8.535470167E0,4.073518040E0,1.607655691E0,1.393993899E0,4.595794277E0
8.545519167E0,5.453327910E0,3.261234829E0,-1.705890083E-1,6.356377783E0
8.555568167E0,7.901522021E0,-3.619017184E-2,2.891822362E-1,7.906894861E0
8.565617167E0,6.518470162E0,-5.526457867E0,1.914806275E0,8.757777851E0
8.575667167E0,3.962898661E0,-8.627195397E0,2.745668868E0,9.882902597E0
8.585716167E0,2.566449369E0,-1.094254954E1,2.295227733E0,1.147144817E1
8.595765167E0,2.427005847E0,-1.230902045E1,1.438324857E0,1.262818752E1
8.605814167E0,2.541416854E0,-1.300777441E1,1.423808852E0,1.332997474E1
8.615863167E0,2.187498924E0,-1.345967647E1,1.966450345E0,1.377733535E1
8.625913167E0,1.563994824E0,-1.404502369E1,1.643626446E0,1.422709662E1
8.635962167E0,1.344557884E0,-1.424207603E1,1.482955777E0,1.438206256E1
8.646011167E0,9.399315839E-1,-1.405837172E1,1.922426512E0,1.422030275E1
8.656060167E0,4.399187779E-1,-1.367120418E1,2.362905307E0,1.388087439E1
8.666109167E0,1.176146781E-1,-1.338040577E1,2.444353659E0,1.360235114E1
8.676159167E0,-1.689393626E-1,-1.305525965E1,2.039811559E0,1.321473330E1
8.686208167E0,-4.716130257E-1,-1.244812571E1,1.021042113E0,1.249883112E1
8.696257167E0,-8.617810616E-1,-1.172138229E1,-4.470465338E-1,1.176151861E1
8.706306167E0,-1.150827935E0,-1.077128459E1,-2.279288077E0,1.106978459E1
8.716355167E0,-1.573831156E0,-9.727602791E0,-3.940150945E0,1.061263351E1
8.726405167E0,-1.655493078E0,-1.029136150E1,-4.505590732E0,1.135575303E1
8.736454167E0,-8.512765387E-1,-1.080529200E1,-4.681957959E0,1.180676659E1
8.746503167E0,-1.100375454E0,-9.994538126E0,-5.321727551E0,1.137639673E1
8.756552167E0,-1.384664082E0,-8.071307037E0,-6.257703055E0,1.030641254E1
8.766601167E0,1.908813025E0,-3.252126621E0,-3.225211887E0,4.962044583E0
8.776651167E0,3.420662672E0,7.882029158E-1,9.002498934E-1,3.623899395E0
8.786700167E0,1.015568856E1,3.115802296E1,2.549617574E0,3.287036591E1
8.796749167E0,7.216590289E0,7.051246701E1,-5.755414367E0,7.111407718E1
8.806798167E0,-9.672223227E0,4.180135644E1,-2.119083110E1,4.785349125E1
8.816847167E0,-1.148627277E1,5.754087049E0,1.875044770E0,1.298305714E1
8.826897167E0,-1.489786699E1,-7.834345114E-1,1.245869280E1,1.943654385E1
8.836946167E0,-8.855780014E0,3.114209515E0,2.590866757E0,9.738363882E0
8.846995167E0,1.116008643E0,1.551850332E1,-1.009425596E0,1.559129118E1
8.857044167E0,-3.306764174E0,2.261917490E1,-1.404224042E0,2.290269870E1
8.867093167E0,-3.193939224E0,2.300902748E1,-1.551473889E0,2.328140169E1
8.877143167E0,-3.863929566E0,1.393143568E1,-1.965003598E-1,1.445868127E1
8.887192167E0,-3.907031146E0,9.918514967E0,-7.511456019E-1,1.068672313E1
8.897241167E0,-3.173925959E0,9.288212602E0,-3.482541416E0,1.041502732E1
8.907290167E0,-2.292143619E0,8.121860309E0,-3.559476741E0,9.159061738E0
8.917339167E0,-5.315952256E-1,6.800553294E0,-2.611668227E0,7.304172062E0
8.927389167E0,5.863444600E-1,5.550187622E0,-2.052909761E0,5.946664692E0
8.937438167E0,1.266795032E0,5.355125093E0,-2.193224225E0,5.923881069E0
8.947487167E0,1.587215433E0,5.703634933E0,-2.643822066E0,6.483864542E0
8.957536167E0,1.855502059E0,5.724401320E0,-2.981213133E0,6.715600502E0
8.967585167E0,2.506841683E0,5.264976815E0,-3.064978298E0,6.587740740E0
8.977635167E0,2.531951966E0,4.465691671E0,-2.544517048E0,5.729550582E0
8.987684167E0,1.890688995E0,3.475368052E0,-1.913998043E0,4.395028610E0
8.997733167E0,1.731433937E0,2.600045716E0,-1.539149712E0,3.482396164E0
9.007782167E0,1.575695395E0,1.789632736E0,-9.953133407E-1,2.583844027E0
9.017830958E0,1.332564514E0,1.126045096E0,-1.753191134E-1,1.753408832E0
9.027880958E0,1.343394142E0,4.925735396E-1,3.004451430E-1,1.462054649E0
9.037929958E0,1.359251937E0,-1.161198556E-2,4.078367136E-1,1.419165759E0
9.047978958E0,1.114053918E0,-3.927054352E-1,2.806071483E-1,1.214114518E0
9.058027958E0,8.450377057E-1,-8.321359706E-1,4.197569937E-2,1.186718567E0
9.068076958E0,5.323689584E-1,-1.595722693E0,1.666310281E-2,1.682267898E0
9.078126958E0,2.858917156E-1,-2.657168335E0,1.974417615E-1,2.679787470E0
9.088175958E0,1.443515284E-1,-3.691281753E0,5.102714534E-1,3.729178904E0
9.098224958E0,8.390447482E-2,-4.522004451E0,8.624993920E-1,4.604288155E0
9.108273958E0,1.046729077E-1,-5.263278784E0,1.310109597E0,5.424891439E0
9.118322958E0,2.318749912E-1,-6.018186484E0,1.986742522E0,6.341883034E0
9.128372958E0,7.235563919E-1,-6.507898396E0,2.502787224E0,7.010008508E0
9.138421958E0,1.421571561E0,-6.554084968E0,2.524397364E0,7.165854975E0
9.148470958E0,1.844311658E0,-6.276055711E0,2.107069888E0,6.872416190E0
9.158519958E0,1.932878410E0,-5.763730277E0,1.590499083E0,6.283811979E0
9.168568958E0,1.950030048E0,-5.306343527E0,1.107882621E0,5.760842188E0
9.178618958E0,1.784354163E0,-4.955748569E0,5.830248494E-1,5.299366154E0
9.188667958E0,1.554952397E0,-4.605567595E0,-4.184837624E-2,4.861160470E0
9.198716958E0,1.506194220E0,-4.516289383E0,-6.683823574E-1,4.807517633E0
9.208765958E0,1.419190575E0,-4.593267392E0,-1.366094348E0,4.997841633E0
9.218814958E0,1.680029895E0,-4.589894133E0,-2.217148401E0,5.367063968E0
9.228864958E0,1.888649779E0,-4.447433156E0,-2.942150224E0,5.657111242E0
9.238913958E0,1.530731768E0,-3.972104809E0,-3.055066098E0,5.239674153E0
9.248962958E0,9.207367098E-1,-3.115809313E0,-2.799361510E0,4.288641816E0
9.259011958E0,3.013689300E-1,-1.691808819E0,-2.247890429E0,2.829496721E0
9.269060958E0,-1.547023427E-1,1.897655368E-2,-1.720235642E0,1.727282139E0
9.279110958E0,-4.540840233E-1,1.681933456E0,-1.160191666E0,2.093116612E0
9.289159958E0,-6.740692862E-1,2.973161809E0,-3.294297910E-1,3.066363406E0
9.299208958E0,-1.322403076E0,3.110188969E0,3.289104120E-1,3.395615906E0
9.309257958E0,-2.605086016E0,2.193914489E0,4.508193035E-1,3.435545369E0
9.319306958E0,-3.341314201E0,1.185584369E0,6.152615726E-1,3.598407661E0
9.329356958E0,-2.749770397E0,5.840924048E-1,9.350586605E-1,2.962555632E0
9.339405958E0,-1.381023459E0,6.974675775E-2,9.884682977E-1,1.699752918E0
9.349454958E0,-3.652342658E-1,-2.478085077E-1,7.219546933E-1,8.461818390E-1
9.359503958E0,6.128869452E-1,-2.826508963E-1,-2.378669254E-1,7.156134509E-1
9.369552958E0,1.203964872E0,3.529408604E-1,-1.453938239E0,1.920425751E0
9.379602958E0,1.258850859E0,1.301888412E0,-2.068774134E0,2.749444551E0
9.389651958E0,1.499300645E0,2.552154681E0,-2.299948483E0,3.748487557E0
9.399700958E0,1.890391372E0,4.143666794E0,-2.554882407E0,5.222162211E0
9.409749958E0,2.145888091E0,5.101510300E0,-2.442498922E0,6.049466425E0
9.419798958E0,2.153935906E0,5.240585155E0,-2.043258054E0,6.023128434E0
9.429848958E0,2.466942915E0,4.793476056E0,-2.168717083E0,5.810899571E0
9.439897958E0,2.987960820E0,4.371587752E0,-2.947531124E0,6.060249918E0
9.449946958E0,2.655445746E0,3.891856452E0,-3.327394320E0,5.767971195E0
9.459995958E0,2.148983461E0,3.320859472E0,-2.619724520E0,4.744385535E0
9.470044958E0,1.529520518E0,2.248714594E0,-2.007535221E0,3.380288154E0
9.480094958E0,9.260279283E-1,1.247437971E0,-2.030690049E0,2.556820543E0
9.490143958E0,-1.911440179E-2,3.315037984E-1,-2.156947807E0,2.182357434E0
9.500192958E0,-7.923974159E-1,-7.986945748E-1,-2.037233083E0,2.327257039E0
9.510241958E0,-1.229625451E0,-2.006214189E0,-1.807577841E0,2.967189204E0
9.520290958E0,-1.236689765E0,-3.211475608E0,-1.318452405E0,3.685280709E0
9.530340958E0,-1.013021780E0,-4.124687317E0,-5.990473167E-1,4.289302540E0
9.540389958E0,-7.145840587E-1,-4.921282741E0,-2.251213109E-1,4.977984914E0
9.550438958E0,-2.684198332E-1,-5.491566362E0,-2.723843551E-1,5.504865443E0
9.560487958E0,1.859717171E-1,-5.948083046E0,-3.815751871E-1,5.963210295E0
9.570536958E0,3.628842333E-1,-6.531840990E0,-1.789353240E-1,6.544360132E0
9.580586958E0,1.989596621E-1,-6.852749634E0,2.445316549E-1,6.859996955E0
9.590635958E0,-2.171037185E-1,-6.352726741E0,3.800269175E-1,6.367785450E0
9.600684958E0,-3.441617046E-1,-5.345043908E0,9.538913727E-2,5.356961895E0
9.610733958E0,-3.255928115E-1,-4.587178102E0,3.156911731E-2,4.598827049E0
9.620782958E0,-5.582786654E-1,-3.919551204E0,9.129594013E-2,3.960163085E0
9.630832958E0,-8.199704730E-1,-3.409755276E0,3.332785014E-1,3.522762719E0
9.640881958E0,-5.668805408E-1,-2.933111891E0,1.046527641E0,3.165393974E0
9.650930958E0,3.406101789E-1,-2.469258120E0,1.129388388E0,2.736561545E0
9.660979958E0,9.252533184E-1,-1.936894278E0,4.220988035E-2,2.146959436E0
9.671028958E0,9.800018218E-1,-1.220703331E0,-1.065188445E0,1.893448340E0
9.681078958E0,8.795473878E-1,-2.138654208E-1,-1.768378254E0,1.986580900E0
9.691127958E0,1.007115215E0,7.394710511E-1,-2.381872652E0,2.689686937E0
9.701176958E0,1.419948520E0,1.675790371E0,-3.047207440E0,3.756328041E0
9.711225958E0,1.150302562E0,3.547113973E0,-3.839501653E0,5.352287965E0
9.721274958E0,2.162775435E-1,6.292944224E0,-4.349571816E0,7.652888210E0
9.731324958E0,-3.490502327E-1,1.024629117E1,-4.405815014E0,1.115883169E1
9.741373958E0,-1.083874977E0,1.420381419E1,-4.189377987E0,1.484836726E1
9.751422958E0,-3.393814304E0,1.340577216E1,-3.638348079E0,1.429931046E1
9.761471958E0,-6.257408940E0,8.861679854E0,-3.057707870E0,1.127094113E1
9.771521958E0,-8.563790529E0,5.790581276E0,6.290186092E-2,1.033795417E1
9.781570958E0,-1.040286089E1,4.159950705E0,4.103408715E0,1.193158278E1
9.791619958E0,-8.670261894E0,2.551544816E0,3.422225633E0,9.664132167E0
9.801668958E0,-2.389867111E0,2.760871044E0,5.353453374E-1,3.690591871E0
9.811717958E0,-1.136370109E0,2.669945086E0,-5.516926906E-1,2.953694062E0
9.821767958E0,-1.605185973E0,1.423544996E0,6.535678518E-1,2.242822619E0
9.831816958E0,-1.517738817E0,-2.914626503E-1,1.220409509E0,1.969233597E0
9.841865958E0,-1.047973803E0,-2.043486096E0,8.138682456E-1,2.436486412E0
9.851914958E0,-4.168716851E-1,-3.544972723E0,7.120201278E-1,3.639723378E0
9.861963958E0,1.930905925E-2,-4.884692620E0,9.435839009E-1,4.975032202E0
9.872013958E0,6.078615557E-1,-6.415312999E0,1.279687850E0,6.569881090E0
9.882062958E0,8.614828536E-1,-7.619136588E0,1.341974730E0,7.784233503E0
9.892111958E0,8.537446484E-1,-8.412542356E0,1.019957016E0,8.517045329E0
9.902160958E0,3.114607856E-1,-8.875011506E0,4.081042238E-1,8.889847362E0
9.912209958E0,-1.993771899E-1,-9.300758972E0,-2.729643989E-1,9.306899499E0
9.922259958E0,-4.546369872E-1,-9.738447037E0,-1.078199961E0,9.808494311E0
9.932308958E0,-4.013751383E-1,-1.027321642E1,-2.143471144E0,1.050212104E1
9.942357958E0,-6.793368235E-4,-1.099167551E1,-3.016746955E0,1.139814428E1
9.952406958E0,5.410271499E-2,-1.119433064E1,-3.451508489E0,1.171447295E1
9.962455958E0,7.107525976E-1,-1.056245245E1,-3.323707066E0,1.109583705E1
9.972505958E0,1.407444688E0,-9.840053519E0,-3.119908211E0,1.041831949E1
9.982554958E0,1.254792891E0,-9.529893812E0,-2.663599688E0,9.974374395E0
9.992603958E0,4.365169775E-1,-8.973631230E0,-2.345823251E0,9.285445129E0
1.000265296E1,-9.149816608E-1,-7.893417195E0,-2.105612616E0,8.220512815E0
1.001270196E1,-2.778191374E0,-6.040845614E0,-1.867465024E0,6.906344088E0
1.002275104E1,-4.841098704E0,-3.224720137E0,-1.856555581E0,6.105886934E0
1.003280004E1,-6.622092764E0,4.793179017E-1,-2.210715294E0,6.997793962E0
1.004284904E1,-9.080613642E0,6.176390505E0,-2.079539150E0,1.117720121E1
1.005289804E1,-1.050239804E1,1.166147874E1,-1.616934053E0,1.577672104E1
1.006294704E1,-1.002496704E1,1.164293605E1,-1.610065913E0,1.544830852E1
1.007299704E1,-7.810736981E0,8.916965278E0,-1.915113692E0,1.200781172E1
1.008304604E1,-5.639151254E0,9.128153844E0,-3.178653140E0,1.119048950E1
1.009309504E1,-4.143804789E0,1.224602722E1,-4.169279645E0,1.358378422E1
1.010314404E1,-3.785683295E0,1.650171147E1,-4.802854990E0,1.759844582E1
1.011319404E1,-3.122982970E0,2.046914435E1,-5.644600275E0,2.146160305E1
1.012324304E1,-3.458604085E0,2.334130604E1,-7.351904215E0,2.471495509E1
1.013329204E1,-4.127166829E0,2.459296803E1,-9.996928468E0,2.686607827E1
1.014334104E1,-5.013498595E0,2.302837475E1,-1.291234318E1,2.687321748E1
1.015339004E1,-7.172904571E0,2.078078925E1,-1.427562618E1,2.621231132E1
1.016344004E1,-8.422267445E0,1.784798726E1,-1.446793760E1,2.447052220E1
1.017348904E1,-9.393963005E0,1.528592214E1,-1.296426177E1,2.213544759E1
1.018353804E1,-1.123804560E1,1.243555887E1,-1.125357229E1,2.018860279E1
1.019358704E1,-1.388398553E1,1.100494401E1,-1.113755886E1,2.092651581E1
1.020363604E1,-1.553252027E1,9.867869893E0,-1.011232093E1,2.099745405E1
1.021368604E1,-1.417006055E1,7.149215162E0,-5.417626566E0,1.677058649E1
1.022373504E1,-7.983264926E0,5.804563723E0,4.445522286E0,1.082534744E1
1.023378404E1,1.548690322E0,3.358217917E0,1.800422253E1,1.838010060E1
1.024383304E1,3.433795811E0,-2.596327472E-1,1.555073552E1,1.592745234E1
1.025388204E1,2.917447200E0,-2.273261790E0,9.070818386E0,9.795864613E0
1.026393204E1,4.742286314E0,-3.687958195E0,9.179784758E0,1.097081416E1
1.027398104E1,1.220028329E1,-4.793653226E0,1.683193414E1,2.133401112E1
1.028403004E1,2.068637543E1,-8.093306016E0,2.043270918E1,3.018150651E1
1.029407904E1,1.925522145E1,-1.030173680E1,1.284493180E1,2.533538251E1
1.030412904E1,1.454785734E1,-1.098939509E1,9.444655441E0,2.053310678E1
1.031417804E1,1.345973962E1,-1.295592130E1,6.537435021E0,1.979289126E1
1.032422704E1,8.599915212E0,-1.507055281E1,9.840576260E0,1.994785815E1
1.033427604E1,5.675763595E0,-1.473015364E1,1.121470001E1,1.936391528E1
1.034432504E1,7.667870207E0,-1.453152256E1,6.610144563E0,1.771031882E1
1.035437504E1,6.741864206E0,-1.564218246E1,8.785725108E-1,1.705586394E1
1.036442404E1,5.239161358E0,-1.614906823E1,-2.417188665E0,1.714887802E1
1.037447304E1,3.265787179E0,-1.471667230E1,-3.236031283E0,1.541809677E1
1.038452204E1,1.711353137E0,-1.283445826E1,-3.233564635E0,1.334571050E1
1.039457104E1,1.416066992E0,-1.064969408E1,-1.194536164E0,1.080963211E1
1.040462104E1,1.628011895E0,-8.791153078E0,1.415316356E0,9.051956449E0
1.041467004E1,1.581339712E0,-7.082400198E0,3.136703753E0,7.905690247E0
1.042471904E1,1.418554105E0,-3.499238141E0,4.484581686E0,5.862459912E0
1.043476804E1,1.427456784E0,1.900231066E0,3.796388962E0,4.478959715E0
1.044481704E1,2.599829954E-1,1.143116393E1,1.711645205E0,1.156152366E1
1.045486704E1,-1.486249075E0,1.381736586E1,-1.076225357E0,1.393867987E1
1.046491604E1,2.163230056E-1,4.061167259E0,-1.890576582E0,4.484880708E0
1.047496504E1,3.857479210E0,-4.131715670E0,3.564649773E-1,5.663769726E0
1.048501404E1,4.594541793E0,-7.817392867E0,2.579604143E0,9.427396409E0
1.049506404E1,3.914780461E0,-1.028758186E1,2.847392879E0,1.136958631E1
1.050511304E1,3.321269946E0,-1.202517321E1,1.777554874E0,1.260140175E1
1.051516204E1,2.902299403E0,-1.331551805E1,3.445498136E-1,1.363250077E1
1.052521104E1,2.495206017E0,-1.456627373E1,-4.082680920E-1,1.478408152E1
1.053526004E1,2.610183619E0,-1.532251635E1,-4.510062683E-1,1.554979011E1
1.054531004E1,2.084478001E0,-1.573851300E1,-5.766079688E-1,1.588641925E1
1.055535904E1,5.110317376E-1,-1.567667986E1,-5.301165379E-1,1.569396281E1
1.056540804E1,-2.267266640E-1,-1.552946101E1,5.378058457E-1,1.554042468E1
1.057545704E1,-1.582104382E0,-1.620980677E1,-7.560508311E-1,1.630437066E1
1.058550604E1,-2.699786936E0,-1.576110781E1,-1.482601290E0,1.605924891E1
1.059555604E1,-3.916338452E0,-1.536738671E1,-4.565331734E0,1.650262207E1
1.060560504E1,-5.060690888E0,-1.573034561E1,-8.557135813E0,1.860857164E1
1.061565404E1,-5.248968893E0,-1.608990727E1,-8.574831827E0,1.897273126E1
1.062570304E1,-5.024939257E0,-1.555576880E1,-7.375462646E0,1.793402929E1
1.063575304E1,-4.504434738E0,-1.459315455E1,-4.673182458E0,1.597149731E1
1.064580204E1,-4.563649490E0,-1.438756762E1,-2.217461519E0,1.525601961E1
1.065585104E1,-2.269477765E0,-9.337022819E0,3.699592985E0,1.029648060E1
1.066590004E1,1.605645418E-2,-3.838110600E0,7.716438349E0,8.618281243E0
1.067594904E1,-4.694171623E0,6.154469293E0,-8.595502903E0,1.156699657E1
1.068599904E1,-2.937083787E1,6.242163261E1,2.862403851E0,6.904563484E1
1.069604804E1,1.108851475E1,6.783374993E1,-3.257472730E0,6.881121941E1
1.070609704E1,3.037539654E1,3.059758605E1,-1.188058911E1,4.472164336E1
1.071614604E1,1.539111705E1,6.706600233E0,1.471656471E-2,1.678884116E1
1.072619504E1,7.156431795E0,8.124224339E0,3.192421871E0,1.128756371E1
1.073624504E1,3.235412940E0,1.533012124E1,6.626069455E0,1.701132889E1
1.074629404E1,-1.416224136E0,2.284999725E1,-3.781743441E0,2.320408689E1
1.075634304E1,-2.488598663E0,2.425513463E1,-6.083088824E0,2.512983583E1
1.076639204E1,-1.612037302E0,2.039935199E1,1.895167378E-1,2.046382521E1
1.077644204E1,-3.607752523E0,1.576940735E1,6.469707307E-1,1.618977015E1
1.078649104E1,-6.751217996E0,1.168692348E1,-2.106776650E0,1.366022082E1
1.079654004E1,-5.801074104E0,9.985453892E0,-2.727106589E0,1.186586957E1
1.080658904E1,-8.533395825E-1,9.651929880E0,-2.249800130E0,9.947338311E0
1.081663804E1,1.298316933E0,8.160196409E0,-3.026505081E0,8.799668477E0
1.082668804E1,1.265657602E0,6.513598847E0,-2.932666625E0,7.254611818E0
1.083673704E1,1.019057129E0,5.072263112E0,-2.033915227E0,5.559059422E0
1.084678604E1,6.101245013E-1,3.356104733E0,-9.069104567E-1,3.529614351E0
1.085683504E1,8.737833488E-1,1.285444288E0,8.703141958E-3,1.554329470E0
1.086688404E1,1.140890226E0,-6.075543576E-1,5.993514450E-1,1.424771898E0
1.087693404E1,1.377646985E0,-2.248568999E0,8.338161680E-1,2.765722900E0
1.088698304E1,1.377573895E0,-3.839349625E0,6.793224978E-1,4.135189770E0
1.089703204E1,6.823577875E-1,-5.383963560E0,4.151932418E-1,5.442890886E0
1.090708104E1,-1.649060081E-1,-6.654124981E0,5.431113169E-2,6.656389633E0
1.091713104E1,-6.717122736E-1,-7.658622251E0,-3.222751379E-1,7.694774423E0
1.092718004E1,-1.188275989E0,-8.233390685E0,-4.770018196E-1,8.332361774E0
1.093722904E1,-1.643829198E0,-8.470618656E0,-6.171022761E-1,8.650686104E0
1.094727804E1,-1.772326148E0,-8.713522519E0,-7.345927191E-1,8.922232968E0
1.095732704E1,-1.844190913E0,-9.156340347E0,-7.078498936E-1,9.366998460E0
1.096737704E1,-1.706035825E0,-9.559042182E0,-6.734249961E-1,9.733413939E0
1.097742604E1,-1.627862499E0,-9.751781028E0,-3.821657924E-1,9.894100274E0
1.098747504E1,-1.577762239E0,-9.542174134E0,-6.668743970E-2,9.671962991E0
1.099752404E1,-2.085455071E0,-8.881825851E0,1.731676304E-1,9.125017278E0
1.100757304E1,-2.362777984E0,-8.035751288E0,3.913167214E-1,8.385054999E0
1.101762358E1,-1.749692891E0,-6.870722805E0,6.807913184E-1,7.122621280E0
1.102767258E1,-1.456103901E0,-5.704040145E0,6.530088580E-1,5.923067881E0
1.103772158E1,-1.740722532E0,-4.380857343E0,4.712107372E-1,4.737516813E0
1.104777058E1,-8.989819977E-1,-2.514312671E0,4.852417159E-1,2.713926374E0
1.105782058E1,8.598157393E-1,-5.523051864E-1,6.004892035E-1,1.185289588E0
1.106786958E1,2.281249087E0,5.437302446E-1,2.115289100E-1,2.354672898E0
1.107791858E1,2.746534840E0,7.486681366E-1,-1.123741293E-1,2.848962189E0
1.108796758E1,2.873512391E0,7.818972784E-1,1.449104126E-1,2.981515695E0
1.109801658E1,3.352988752E0,7.869288075E-1,1.311025271E0,3.685183548E0
1.110806658E1,4.068827112E0,2.009489214E-1,2.626927121E0,4.847316849E0
1.111811558E1,3.967980768E0,-7.741310066E-1,3.413227937E0,5.290961646E0
1.112816458E1,1.548447955E0,-1.466028526E0,2.866747162E0,3.572837808E0
1.113821358E1,3.218672215E-1,-1.947960134E0,1.355646544E0,2.394979069E0
1.114826258E1,1.727172486E-2,-2.474912962E0,7.351715934E-1,2.581853938E0
1.115831258E1,-3.405304375E-1,-3.121123847E0,9.089929426E-1,3.268584284E0
1.116836158E1,-4.709457853E-1,-3.807179999E0,1.524210076E0,4.127908167E0
1.117841058E1,-1.049490352E0,-4.640901734E0,1.490525436E0,4.986087141E0
1.118845958E1,-1.535977305E0,-5.347517281E0,1.103096017E0,5.672035629E0
1.119850958E1,-1.759355561E0,-5.785038700E0,1.137523180E0,6.152720028E0
1.120855858E1,-1.787598636E0,-5.962744939E0,1.442718601E0,6.389935294E0
1.121860758E1,-1.777338966E0,-5.915640355E0,1.466320302E0,6.348529738E0
1.122865658E1,-1.600446659E0,-5.495015634E0,8.506190193E-1,5.786205928E0
1.123870558E1,-1.303824718E0,-5.073839521E0,-3.907121924E-1,5.253233519E0
1.124875558E1,-1.065794582E0,-5.331633319E0,-1.602924124E0,5.668474018E0
1.125880458E1,-1.647238856E0,-6.108237113E0,-3.132380322E0,7.059444947E0
1.126885358E1,-2.823027239E0,-6.523649041E0,-4.646774093E0,8.492348855E0
1.127890258E1,-3.971310465E0,-8.107927564E0,-6.164630585E0,1.093217574E1
1.128895258E1,-2.398181413E0,-9.076578478E0,-7.641067740E0,1.210460520E1
1.129900158E1,-1.489670866E0,-6.871279460E0,-5.493150373E0,8.922348442E0
1.130905058E1,-7.949859783E-1,-4.243947127E0,-1.586877025E0,4.600137891E0
1.131909958E1,-4.936311182E-1,-1.775066153E0,8.371365094E-1,2.023691939E0
1.132914858E1,-3.392030099E-1,1.039898652E0,1.620854026E0,1.955406777E0
1.133919858E1,5.861665219E-1,4.093291862E0,8.023408985E-1,4.212170507E0
1.134924758E1,-1.453383923E-1,6.816665297E0,-4.857912080E-1,6.835498673E0
1.135929658E1,-1.961443228E0,9.048341104E0,-1.364624358E0,9.358522101E0
1.136934558E1,-1.506971315E0,9.181567574E0,-1.195106560E0,9.380854191E0
1.137939558E1,1.185668332E-1,7.568955199E0,-2.043262732E0,7.840794825E0
1.138944458E1,2.073892787E0,8.011026337E0,-2.889711809E0,8.765158789E0
1.139949358E1,3.096986541E0,8.794690059E0,-3.645096935E0,1.001122523E1
1.140954258E1,2.760018227E0,1.079141773E1,-5.600008239E0,1.246725669E1
1.141959158E1,2.321822770E0,1.403129677E1,-8.414234540E0,1.652475394E1
1.142964158E1,2.793639133E0,1.800591705E1,-1.044802011E1,2.100425177E1
1.143969058E1,2.951274512E0,2.200077338E1,-1.096509991E1,2.475838174E1
1.144973958E1,2.420759852E0,2.415131380E1,-1.189860789E1,2.703188684E1
1.145978858E1,1.337924948E0,2.423389988E1,-1.304001128E1,2.755202063E1
1.146983758E1,-1.591647769E0,2.276979216E1,-1.201975284E1,2.579672917E1
1.147988758E1,-4.875425076E0,1.953092352E1,-1.095562976E1,2.291838927E1
1.148993658E1,-7.923984684E0,1.726022748E1,-1.115982038E1,2.202831308E1
1.149998558E1,-1.007781183E1,1.683006654E1,-1.109398892E1,2.253641545E1
1.151003458E1,-1.281141439E1,1.669179158E1,-1.105872787E1,2.377064801E1
1.152008458E1,-1.675072216E1,1.479727500E1,-1.144313201E1,2.510958603E1
1.153013358E1,-1.786161011E1,1.068798048E1,-6.656325288E0,2.185352852E1
1.154018258E1,-1.517061855E1,6.014923153E0,4.667421488E-1,1.632620029E1
1.155023158E1,-1.076985319E1,9.038473928E-1,5.291840678E0,1.203371330E1
1.156028058E1,-3.447437657E0,-4.026389775E0,9.920547459E0,1.124783992E1
1.157033058E1,3.077307737E0,-7.010318647E0,1.171922350E1,1.399837812E1
1.158037958E1,4.547280210E0,-8.745148939E0,1.013544316E1,1.413798413E1
1.159042858E1,4.144105628E0,-9.245491090E0,7.598307052E0,1.266439841E1
1.160047758E1,4.186054138E0,-9.494474888E0,6.504255581E0,1.224636449E1
1.161052758E1,6.900063549E0,-1.012708749E1,9.458051412E0,1.547977760E1
1.162057658E1,1.106844243E1,-1.046556877E1,1.351933211E1,2.036690669E1
1.163062558E1,1.412618304E1,-1.115547239E1,1.403755095E1,2.282644187E1
1.164067458E1,1.415679439E1,-1.358981561E1,1.193500096E1,2.296828604E1
1.165072358E1,8.474456184E0,-1.316841848E1,1.193198146E1,1.968745373E1
1.166077358E1,6.766652307E0,-1.418867224E1,1.109959523E1,1.924336295E1
1.167082258E1,6.739816511E0,-1.375670450E1,8.737127144E0,1.763545962E1
1.168087158E1,6.122266923E0,-1.345381756E1,5.433757864E0,1.574843116E1
1.169092058E1,4.768308178E0,-1.351836147E1,3.013664595E0,1.464803857E1
1.170097058E1,1.879856151E0,-1.164068955E1,3.861457363E-1,1.179782271E1
1.171101958E1,1.063823120E0,-8.756873192E0,-2.121138874E0,9.072694079E0
1.172106858E1,1.757770966E0,-7.345262947E0,-1.594290418E0,7.719093759E0
1.173111758E1,1.197183491E0,-5.155050330E0,1.691348935E0,5.555938574E0
1.174116658E1,3.107260099E-1,-1.592340664E0,3.259201752E0,3.640672397E0
1.175121658E1,-4.950653306E-1,3.756824947E0,2.666596678E0,4.633525786E0
1.176126558E1,6.303523591E-1,6.903381259E0,1.773674515E0,7.155413209E0
1.177131458E1,3.141835855E0,5.669159165E0,2.271505579E0,6.868059098E0
1.178136358E1,4.867625475E0,1.460499399E0,3.455159782E0,6.145320608E0
1.179141358E1,5.618259153E0,-2.638441458E0,3.416693582E0,7.085196135E0
1.180146258E1,5.635814833E0,-5.702014670E0,2.648304833E0,8.443275349E0
1.181151158E1,3.597065274E0,-7.669983975E0,2.466112903E0,8.823221952E0
1.182156058E1,2.122787204E0,-9.344337686E0,2.892785106E0,1.000954934E1
1.183160958E1,2.461495064E0,-1.173902919E1,1.351106911E0,1.207018037E1
1.184165958E1,2.607379879E0,-1.273479949E1,-2.498155645E-1,1.300138284E1
1.185170858E1,3.053132424E0,-1.366410566E1,-1.459820830E0,1.407694846E1
1.186175758E1,3.202181167E0,-1.432729218E1,-1.836009781E0,1.479514100E1
1.187180658E1,1.947381113E0,-1.469100420E1,-7.269970398E-1,1.483733204E1
1.188185658E1,3.786598384E-1,-1.437066215E1,7.197571635E-1,1.439365708E1
1.189190558E1,-8.586216648E-1,-1.404608321E1,2.046503259E0,1.422033263E1
1.190195458E1,-1.507307384E0,-1.381864289E1,2.223619953E0,1.407733471E1
1.191200358E1,-2.204432753E0,-1.442694511E1,6.995304751E-1,1.461114683E1
1.192205258E1,-1.762311621E0,-1.490604608E1,-7.482165854E-1,1.502849893E1
1.193210258E1,-1.186807168E0,-1.476880257E1,-9.620719197E-1,1.484761338E1
1.194215158E1,-9.481228021E-1,-1.491232833E1,-1.576114640E0,1.502533229E1
1.195220058E1,-2.744014983E-1,-1.518060677E1,-2.254434925E0,1.534954705E1
1.196224958E1,1.276207441E-1,-1.523060865E1,-2.852718230E0,1.549599071E1
1.197229958E1,-9.562328902E-1,-1.615111125E1,-1.039664179E0,1.621276280E1
1.198234858E1,-4.887000224E0,-1.499642883E1,6.489634618E-1,1.578596853E1
1.199239758E1,-5.517464849E-1,-1.941087316E0,2.089558354E0,2.904909339E0
1.200244658E1,3.604712848E0,1.468665036E0,-4.341911963E0,5.831220387E0
1.201249558E1,-1.684712345E0,3.169384426E0,-7.229319093E0,8.071326277E0
1.202254558E1,-2.385325082E1,4.848554255E1,-7.804285163E0,5.459608299E1
1.203259458E1,-8.622279058E0,7.063063222E1,-1.725148005E1,7.321641529E1
1.204264358E1,1.353002783E1,3.285651281E1,-1.241809441E1,3.764068485E1
1.205269258E1,-1.184783301E0,1.034746554E1,5.641493064E-1,1.043034127E1
1.206274258E1,7.907327136E-1,9.221849627E0,4.991161062E0,1.051567675E1
1.207279158E1,3.685348583E0,1.076043216E1,5.936022579E0,1.282985029E1
1.208284058E1,-7.042006463E-2,1.583084989E1,-2.822082621E-1,1.583352168E1
1.209288958E1,-2.439395805E0,1.840178875E1,-4.648542876E0,1.913597220E1
1.210293858E1,-4.511331236E0,1.365106754E1,-4.298832602E0,1.500612262E1
1.211298858E1,-2.858264607E0,9.312285004E0,-3.843298250E0,1.047183222E1
1.212303758E1,-2.132935631E-1,9.006083862E0,-5.402159511E0,1.050420716E1
1.213308658E1,1.679688710E0,9.546840797E0,-5.033045252E0,1.092222816E1
1.214313558E1,1.556952145E0,8.744646664E0,-4.505908236E0,9.959726617E0
1.215318558E1,9.581767970E-1,9.006392595E0,-3.700634374E0,9.784063834E0
1.216323458E1,2.506210184E-1,9.260883885E0,-2.670014668E0,9.641356728E0
1.217328358E1,-5.717831388E-1,8.756460378E0,-2.148817546E0,9.034376080E0
1.218333258E1,-7.708811241E-1,7.964869001E0,-1.697981724E0,8.180252921E0
1.219338258E1,-3.231675692E-1,7.192034907E0,-1.008572779E0,7.269595754E0
1.220343158E1,5.138474643E-2,6.669710149E0,-5.503066081E-1,6.692571347E0
1.221348058E1,2.687817393E-1,6.386518385E0,-3.606319955E-1,6.402336772E0
1.222352958E1,1.519594869E-1,6.306146067E0,-1.556938112E-1,6.309897818E0
1.223357858E1,-1.600453091E-1,6.165926328E0,4.639999509E-2,6.168177603E0
1.224362858E1,-4.803394103E-1,5.596940789E0,-1.364301592E-2,5.617531333E0
1.225367758E1,-9.076684020E-1,4.623933114E0,-2.629975274E-1,4.719511317E0
1.226372658E1,-1.172498154E0,3.331003806E0,-6.221188948E-1,3.585717529E0
1.227377558E1,-1.375387621E0,1.942137476E0,-7.306400013E-1,2.489462572E0
1.228382458E1,-1.589325693E0,5.662888026E-1,-6.890265369E-1,1.822469955E0
1.229387458E1,-1.351144918E0,-7.570442730E-1,-5.193739602E-1,1.633541531E0
1.230392358E1,-9.989918241E-1,-1.941006625E0,-2.843878117E-1,2.201446754E0
1.231397258E1,-8.597297122E-1,-3.049847458E0,-9.229245186E-2,3.170050882E0
1.232402158E1,-6.807876639E-1,-4.104094008E0,1.506209131E-1,4.162901168E0
1.233407158E1,-3.120789094E-1,-5.125858691E0,2.959183748E-1,5.143868996E0
1.234412058E1,7.409876727E-2,-5.748232816E0,2.546360090E-1,5.754347108E0
1.235416958E1,1.225144438E-1,-6.328597621E0,1.093287532E-1,6.330727479E0
1.236421858E1,1.130681207E-1,-6.931185939E0,7.568782121E-3,6.932112247E0
1.237426858E1,5.653300054E-2,-7.539108086E0,-8.170899153E-3,7.539324471E0
1.238431758E1,9.735307083E-2,-7.908365602E0,7.670384802E-2,7.909336735E0
1.239436658E1,1.823872277E-1,-8.171234198E0,4.694502868E-2,8.173404264E0
1.240441558E1,1.659525683E-1,-8.462024419E0,-6.346801758E-2,8.463889514E0
1.241446458E1,-1.782828478E-1,-8.470292966E0,-5.080610597E-1,8.487389101E0
1.242451458E1,-8.222500831E-1,-7.994666997E0,-1.095852413E0,8.111207561E0
1.243456358E1,-1.245621679E0,-7.575362577E0,-1.391722695E0,7.802216583E0
1.244461258E1,-1.034765236E0,-7.234038380E0,-1.416140667E0,7.443621751E0
1.245466158E1,-9.801972650E-2,-6.733319085E0,-8.482228303E-1,6.787243603E0
1.246471158E1,-1.328366797E-2,-6.429670252E0,-6.787617499E-1,6.465412092E0
1.247476058E1,-2.110887791E-1,-6.280055206E0,-1.081731387E0,6.376032831E0
1.248480958E1,-1.815695494E-1,-5.899461109E0,-1.379058210E0,6.061221859E0
1.249485858E1,-4.376257558E-1,-5.342889209E0,-1.154404092E0,5.483669411E0
1.250490758E1,-7.622181087E-1,-4.689246513E0,-6.309765494E-1,4.792508812E0
1.251495758E1,-9.049694004E-1,-4.316252627E0,-2.914281700E-1,4.419721341E0
1.252500658E1,-1.083871249E0,-3.990370926E0,-2.563421169E-2,4.135032542E0
1.253505558E1,-9.191223666E-1,-3.384578919E0,2.724310962E-1,3.517723566E0
1.254510458E1,-5.396707786E-1,-2.360274791E0,5.671337253E-1,2.486721195E0
1.255515458E1,3.567044573E-1,-1.636378384E0,7.460006368E-1,1.833436455E0
1.256520358E1,1.256199292E0,-1.436367940E0,1.053042608E0,2.179469719E0
1.257525258E1,2.787666202E0,-1.433572971E0,3.984290407E0,5.069594102E0
1.258530158E1,4.417076459E0,-1.627004128E0,8.033143430E0,9.310698160E0
1.259535158E1,3.845022886E0,-1.970786494E0,6.778032743E0,8.038030123E0
1.260540058E1,2.623012117E0,-2.007193013E0,3.897939895E0,5.109104793E0
1.261544958E1,2.397867564E0,-2.349097838E0,-5.440307915E-1,3.400588039E0
1.262549858E1,3.224203827E0,-2.924952686E0,-3.619254581E0,5.661258010E0
1.263554758E1,1.353471087E0,-4.588891336E0,-2.750871720E0,5.518795421E0
1.264559758E1,5.843175957E-1,-6.331277400E0,-1.138728730E0,6.459350098E0
1.265564658E1,2.163018825E-1,-7.367853080E0,1.074692802E0,7.448960339E0
1.266569558E1,-6.507510287E-1,-8.279750919E0,2.376400827E0,8.638578186E0
1.267574458E1,-1.030102812E0,-8.876681471E0,3.640301049E0,9.649268235E0
1.268579458E1,-1.800504611E0,-8.500491496E0,4.705800565E0,9.881534875E0
1.269584358E1,-2.838401030E0,-6.581696690E0,4.918711721E0,8.693041856E0
1.270589258E1,-4.482158892E0,-2.351253707E0,3.013566070E0,5.890647060E0
1.271594158E1,-4.330824181E0,3.854388079E0,-3.173480401E0,6.609336079E0
1.272599158E1,-7.163646090E-1,9.257998284E0,-7.370891293E0,1.185553664E1
1.273604058E1,2.604873177E0,1.161605289E1,-6.241071235E0,1.344131761E1
1.274608958E1,4.362768397E0,6.827148185E0,-3.645851226E0,8.884589556E0
1.275613858E1,8.312881974E-1,-2.354778993E-1,-3.854200383E0,3.949854491E0
1.276618758E1,-7.485901494E-1,-2.691016113E0,-3.258691582E0,4.291972246E0
1.277623758E1,-2.058873336E0,-3.270092191E0,-1.702704520E0,4.222755621E0
1.278628658E1,-4.165521640E0,-1.557149781E0,-1.088106314E0,4.578237797E0
1.279633558E1,-3.983404554E0,3.682301599E-1,-1.952607208E0,4.451491907E0
1.280638458E1,-1.726540987E0,2.118951430E0,-3.132438210E0,4.157290955E0
1.281643458E1,-1.820847805E0,4.270533832E0,-3.348543699E0,5.724132322E0
1.282648358E1,-2.014998753E0,6.871933764E0,-3.073100373E0,7.792794077E0
1.283653258E1,-1.940959701E0,9.481033309E0,-3.104994595E0,1.016357755E1
1.284658158E1,-1.011275216E0,1.018690684E1,-3.330384293E0,1.076509211E1
1.285663158E1,-1.071571704E0,9.726536844E0,-2.874682126E0,1.019890103E1
1.286668058E1,-1.798294802E0,1.008425663E1,-2.305907965E0,1.049968131E1
1.287672958E1,-2.250576786E0,1.021215278E1,-2.546270336E0,1.076274375E1
1.288677858E1,-1.992623944E0,9.247972648E0,-3.231569273E0,9.996928941E0
1.289682758E1,-1.461023310E0,9.131622412E0,-4.596649129E0,1.032716322E1
1.290687758E1,-1.314413733E0,1.023510193E1,-6.578583047E0,1.223775919E1
1.291692658E1,-1.366327360E0,1.189826992E1,-8.070926968E0,1.444214457E1
1.292697558E1,-1.352792225E0,1.363783997E1,-8.781347882E0,1.627675632E1
1.293702458E1,-1.251573414E0,1.501221046E1,-9.999938614E0,1.808125193E1
1.294707458E1,-1.619450548E0,1.492039397E1,-1.219080378E1,1.933536845E1
1.295712358E1,-1.598686647E0,1.336932530E1,-1.457945803E1,1.984578682E1
1.296717258E1,-2.030770741E0,1.145455864E1,-1.562644059E1,1.948118551E1
1.297722158E1,-2.311948577E0,9.662888732E0,-1.522066136E1,1.817649738E1
1.298727058E1,-2.966529020E0,7.975998006E0,-1.497564899E1,1.722460163E1
1.299732058E1,-3.552840151E0,6.967585441E0,-1.316979140E1,1.531709260E1
1.300736958E1,-3.819672867E0,7.548893986E0,-1.120007378E1,1.403628704E1
1.301741846E1,-5.873490701E0,8.461371869E0,-1.082698517E1,1.494377177E1
1.302746746E1,-7.461628386E0,7.677533900E0,-8.808312902E0,1.386386675E1
1.303751746E1,-7.065578928E0,5.842117465E0,-6.838175449E0,1.143736795E1
1.304756646E1,-5.961815232E0,3.380310452E0,-3.672411618E0,7.775367947E0
1.305761546E1,-5.070300202E0,8.759362936E-2,4.421446668E-1,5.090295540E0
1.306766446E1,-4.268741661E0,-3.568656870E0,3.905474617E0,6.797808412E0
1.307771446E1,4.606138283E-1,-7.202801970E0,1.269978402E1,1.460743083E1
1.308776346E1,6.110701715E0,-9.998193805E0,1.413250622E1,1.835843912E1
1.309781246E1,5.718282208E0,-1.054013714E1,1.053323041E1,1.596064489E1
1.310786146E1,5.091432624E0,-1.015240827E1,7.746726927E0,1.374794013E1
1.311791046E1,5.547690277E0,-1.010593577E1,7.388632915E0,1.369301652E1
1.312796046E1,6.443683689E0,-1.050324823E1,8.401639638E0,1.491398107E1
1.313800946E1,6.949547950E0,-1.123066407E1,1.024559886E1,1.671515265E1
1.314805846E1,7.891277114E0,-1.269082843E1,9.423344679E0,1.766716745E1
1.315810746E1,8.126666136E0,-1.560910242E1,6.590278648E0,1.879144895E1
1.316815746E1,5.008067701E0,-1.629386985E1,1.043123743E1,1.998453530E1
1.317820646E1,3.397087868E0,-1.251469275E1,9.703171370E0,1.619596478E1
1.318825546E1,3.550098976E-1,-8.616715432E0,6.858856466E0,1.101897132E1
1.319830446E1,2.875572950E-1,-7.358375328E0,3.828092858E0,8.299558518E0
1.320835446E1,2.321261584E0,-6.275391467E0,7.300041166E-1,6.730653714E0
1.321840346E1,3.166208219E0,-6.281133433E0,1.220568261E-1,7.035084190E0
1.322845246E1,2.722489043E0,-6.346036942E0,1.768538614E0,7.128243843E0
1.323850146E1,1.936332653E0,-4.909776590E0,2.944199381E0,6.043475846E0
1.324855046E1,1.407474217E0,-2.028828880E0,2.320683879E0,3.388613870E0
1.325860046E1,1.611775347E0,6.524323225E-2,1.306983676E0,2.076122052E0
1.326864946E1,3.028095816E0,-1.264387295E0,2.321404402E0,4.019571855E0
1.327869846E1,4.389040229E0,-4.775059665E0,3.600932623E0,7.418327621E0
1.328874746E1,4.986656367E0,-7.417958456E0,3.765482627E0,9.699057108E0
1.329879746E1,4.812288303E0,-8.641684213E0,3.791994195E0,1.059320748E1
1.330884646E1,4.619821937E0,-9.322598907E0,3.481065871E0,1.097139119E1
1.331889546E1,3.874724403E0,-1.038255117E1,3.094609648E0,1.150597527E1
1.332894446E1,3.796653549E0,-1.130388174E1,2.431236893E0,1.216976719E1
1.333899446E1,4.106818811E0,-1.180067404E1,1.952204189E0,1.264646076E1
1.334904346E1,4.180494897E0,-1.200181475E1,9.149552022E-1,1.274194797E1
1.335909246E1,4.111463254E0,-1.223876498E1,2.778105712E-1,1.291389473E1
1.336914146E1,3.801771617E0,-1.232897349E1,8.699408510E-1,1.293111951E1
1.337919046E1,3.114680216E0,-1.248184309E1,9.474535882E-1,1.289943054E1
1.338924046E1,2.257205482E0,-1.226733448E1,6.757203206E-1,1.249155994E1
1.339928946E1,1.347352122E0,-1.221037090E1,1.915770042E-1,1.228597644E1
1.340933846E1,4.137507337E-1,-1.251678371E1,-5.029681349E-1,1.253371618E1
1.341938746E1,3.075657360E-1,-1.241680919E1,-6.383607057E-1,1.243701136E1
1.342943746E1,-1.933329231E-1,-1.203750265E1,-4.751938605E-1,1.204842964E1
1.343948646E1,-1.124821712E0,-1.172328614E1,-4.397258198E-1,1.178533074E1
1.344953546E1,-8.901885894E-1,-1.235196357E1,-3.342633918E-1,1.238850967E1
1.345958446E1,3.665695506E-1,-1.153799490E1,-8.338272777E-1,1.157389163E1
1.346963446E1,1.092697256E0,-8.533946341E0,-2.246052357E0,8.891961461E0
1.347968346E1,4.455858994E-1,-7.656099177E0,-6.312799029E0,9.933067652E0
1.348973246E1,2.630296286E0,-5.197794646E0,-2.275613540E0,6.254114224E0
1.349978146E1,1.618579752E0,-3.919959340E0,4.405386705E0,6.115007250E0
1.350983146E1,-6.699471892E0,2.464430191E1,-1.027993137E-1,2.553889402E1
1.351988046E1,-1.475131004E1,7.067468748E1,-8.384448824E0,7.268295248E1
1.352992946E1,-1.011025102E1,4.657503266E1,-1.336951124E1,4.949944114E1
1.353997846E1,-4.057036786E0,8.786861222E0,-3.377145354E0,1.025054088E1
1.355002746E1,-1.873321888E0,1.241439312E0,6.369646245E0,6.754472573E0
1.356007746E1,-5.648982178E0,3.913151427E0,7.009542137E0,9.816182288E0
1.357012646E1,-1.189528609E0,1.360577384E1,4.786709073E-1,1.366605963E1
1.358017546E1,1.342257589E0,2.026111679E1,-5.413579708E0,2.101478894E1
1.359022446E1,7.168955362E-1,2.027101730E1,-4.877488850E0,2.086187860E1
1.360027446E1,-3.329232977E0,1.557974005E1,-2.571895466E0,1.613774267E1
1.361032346E1,-5.604595964E0,1.134256458E1,-2.355122809E0,1.286902757E1
1.362037246E1,-5.213751113E0,1.082632677E1,-2.259693911E0,1.222696891E1
1.363042146E1,-3.476890082E0,1.021926533E1,-3.292426801E0,1.128548727E1
1.364047146E1,-1.293464913E0,8.163639835E0,-4.123064422E0,9.236759554E0
1.365052046E1,-1.594415548E0,7.385022259E0,-3.370711663E0,8.272992918E0
1.366056946E1,-2.208329045E0,7.359421980E0,-1.963701423E0,7.930569483E0
1.367061846E1,-2.369107887E0,7.134899424E0,-1.147996713E0,7.605087667E0
1.368066846E1,-1.656963799E0,6.484577361E0,-5.603223038E-1,6.716340795E0
1.369071746E1,-7.816601738E-1,5.423413555E0,-7.551357418E-2,5.479973496E0
1.370076646E1,-7.990834147E-2,4.433702139E0,3.371504545E-2,4.434550339E0
1.371081546E1,4.019441821E-1,3.498155236E0,-2.609398922E-1,3.530826930E0
1.372086446E1,8.352086824E-1,2.507439854E0,-6.092889342E-1,2.712205960E0
1.373091446E1,1.473317665E0,1.431736361E0,-9.021169093E-1,2.243735472E0
1.374096346E1,1.948111723E0,3.953893071E-1,-8.165183499E-1,2.148993765E0
1.375101246E1,2.071090508E0,-3.080517858E-1,-3.652647445E-1,2.125495267E0
1.376106146E1,2.080916754E0,-8.558318120E-1,1.116748023E-1,2.252805782E0
1.377111146E1,2.510820129E0,-1.407887322E0,2.805950153E-1,2.892247914E0
1.378116046E1,2.748422614E0,-1.963814274E0,3.161215281E-1,3.392687163E0
1.379120946E1,2.657715050E0,-2.495649528E0,3.107865286E-1,3.659003159E0
1.380125846E1,2.556947059E0,-3.055765425E0,2.143191648E-1,3.990189632E0
1.381130846E1,2.475179303E0,-3.580907371E0,2.459689736E-1,4.360035656E0
1.382135746E1,2.452801716E0,-3.916508898E0,5.765049116E-1,4.656998617E0
1.383140646E1,2.914651646E0,-4.405774668E0,7.685040848E-1,5.338224721E0
1.384145546E1,2.953814542E0,-4.935598480E0,8.516120227E-1,5.814670733E0
1.385150546E1,3.378727611E0,-5.314369415E0,8.783747287E-1,6.358448294E0
1.386155446E1,3.470032468E0,-5.673300748E0,7.286567719E-1,6.690172449E0
1.387160346E1,2.981451992E0,-5.815637764E0,8.219347720E-1,6.586825894E0
1.388165246E1,2.195318113E0,-5.800461901E0,8.691030912E-1,6.262596911E0
1.389170146E1,1.728124121E0,-5.576274390E0,9.069415931E-1,5.907943137E0
1.390175146E1,1.229818117E0,-5.776793541E0,3.189445639E-1,5.914856030E0
1.391180046E1,6.216650046E-1,-5.377614069E0,-8.223709743E-1,5.475535999E0
1.392184946E1,5.741307959E-2,-3.732440888E0,-1.288286619E0,3.948935763E0
1.393189846E1,2.949921758E-1,-2.023114396E0,-1.672032073E0,2.641155713E0
1.394194846E1,1.605851825E0,-1.176998903E0,-2.551488683E0,3.236383939E0
1.395199746E1,2.679838575E0,-4.130689484E-1,-2.968510934E0,4.020474836E0
1.396204646E1,2.817905370E0,4.472839308E-1,-1.672215968E0,3.307107472E0
1.397209546E1,2.568026948E0,8.056328809E-1,2.570129022E-1,2.703675716E0
1.398214546E1,2.469562760E0,2.853476322E-1,1.331318618E0,2.820030631E0
1.399219446E1,2.007764286E0,-4.065703529E-1,1.816043440E0,2.737595780E0
1.400224346E1,1.237997641E0,-6.588385320E-1,2.229991371E0,2.634305959E0
1.401229246E1,9.954508965E-1,-3.773863149E-1,2.389698273E0,2.616104117E0
1.402234329E1,8.368105271E-1,-8.894199729E-3,2.502110116E0,2.638349105E0
1.403239229E1,7.841025558E-1,3.316768759E-1,2.865516616E0,2.989316284E0
1.404244129E1,5.521131054E-1,5.164605850E-1,3.032950759E0,3.125756024E0
1.405249029E1,3.440609863E-1,1.602119547E-1,2.587188566E0,2.614878680E0
1.406253929E1,1.316969697E0,-2.672914302E-1,2.187172065E0,2.567016855E0
1.407258929E1,2.380721042E0,-7.563431919E-1,2.124822327E0,3.279444713E0
1.408263829E1,3.244649786E0,-1.475127379E0,1.979496506E0,4.077028261E0
1.409268729E1,3.880462568E0,-2.440290429E0,1.686245778E0,4.884304653E0
1.410273629E1,4.217776744E0,-4.221320742E0,1.637701170E0,6.187992776E0
1.411278629E1,4.087080365E0,-4.321013430E0,5.956184363E-1,5.977469723E0
1.412283529E1,4.612379016E0,-3.876128027E0,2.102451172E-1,6.028483365E0
1.413288429E1,4.915792206E0,-5.426130171E0,1.118948038E0,7.406750054E0
1.414293329E1,5.025280734E0,-6.606865445E0,-1.293607585E0,8.401043867E0
1.415298329E1,5.040017472E0,-7.476894881E0,-2.517753757E0,9.361881070E0
1.416303229E1,3.877574043E0,-7.202669238E0,-2.063346456E0,8.436315737E0
1.417308129E1,1.481759437E0,-5.182462662E0,-9.256819193E-1,5.469041716E0
1.418313029E1,9.071325047E-1,-1.597695544E0,-2.478823288E-1,1.853905629E0
1.419318029E1,8.349648535E-1,-2.281033909E-1,-3.016216028E0,3.137954205E0
1.420322929E1,8.488778646E-1,-1.345548987E0,-9.343255366E0,9.477737944E0
1.421327829E1,9.107694729E-1,-1.041263977E0,-1.239446464E1,1.247142676E1
1.422332729E1,9.553474025E-1,2.177620053E-1,-8.654425296E0,8.709717914E0
1.423337729E1,2.034812044E0,1.456899269E0,-4.123952614E0,4.823898910E0
1.424342629E1,2.732289269E0,3.200331985E0,-2.022208955E0,4.668710584E0
1.425347529E1,2.777383873E0,3.555915787E0,-5.713293949E-1,4.548056237E0
1.426352429E1,2.333552869E0,3.511951157E0,8.808160874E-1,4.307563917E0
1.427357329E1,2.257462321E0,4.107746764E0,1.065726681E0,4.806817343E0
1.428362329E1,2.901012431E0,4.302113475E0,-1.379369867E-1,5.190672412E0
1.429367229E1,2.146060584E0,3.457624676E0,-1.871562168E0,4.479228659E0
1.430372129E1,-2.670530100E-1,2.071204821E0,-1.951070560E0,2.857950848E0
1.431377029E1,-1.685147086E0,8.412851089E-1,-1.392645093E0,2.342422184E0
1.432382029E1,-3.319022861E0,-7.776481068E-1,6.347541431E-1,3.467500851E0
1.433386929E1,-4.010866002E0,-3.327653351E0,2.023242450E0,5.590512760E0
1.434391829E1,-4.169669947E0,-6.169017166E0,1.495612514E0,7.594720341E0
1.435396729E1,-3.832639068E0,-8.728704815E0,8.198495087E-1,9.568258106E0
1.436401729E1,-3.605983448E0,-1.017623918E1,-3.791480809E-1,1.080290303E1
1.437406629E1,-4.320262647E0,-1.116034663E1,-3.542458127E0,1.248066568E1
1.438411529E1,-5.724124746E0,-1.195495985E1,-7.875154586E0,1.541767586E1
1.439416429E1,-3.908452604E0,-1.128989052E1,-8.526803967E0,1.467801130E1
1.440421429E1,-4.750573280E-1,-7.728561382E0,-6.214927164E0,9.928829747E0
1.441426329E1,3.860078882E-1,-3.738486909E0,-7.167203536E0,8.092842083E0
1.442431229E1,1.617055529E0,1.578178123E0,-9.824347898E0,1.008083957E1
1.443436129E1,1.050215772E0,7.492572436E0,-9.731743789E0,1.232673647E1
1.444441129E1,-1.795833270E0,1.055007156E1,-6.052323114E0,1.229469976E1
1.445446029E1,-4.893422221E0,7.738450193E0,-2.601429460E0,9.518226077E0
1.446450929E1,-7.205355449E0,4.388887909E0,-1.068432480E-2,8.436800245E0
1.447455829E1,-9.424500673E0,4.198420706E0,-6.113991943E-1,1.033546121E1
1.448460829E1,-1.141235811E1,4.741836371E0,-2.619380704E0,1.263281778E1
1.449465729E1,-1.162711465E1,6.165916387E0,-2.033281243E0,1.331700239E1
1.450470629E1,-1.035604808E1,8.641720465E0,-1.599770428E0,1.358257449E1
1.451475529E1,-1.003935820E1,1.171456912E1,-3.160901286E0,1.574836943E1
1.452480429E1,-9.896407814E0,1.287668218E1,-5.481859984E0,1.714055484E1
1.453485429E1,-1.103559043E1,1.170139885E1,-7.757927268E0,1.785755937E1
1.454490329E1,-1.318166827E1,1.139117833E1,-1.058042796E1,2.038285500E1
1.455495229E1,-1.022988388E1,1.158084095E1,-1.216546195E1,1.966633839E1
1.456500129E1,-7.180544543E0,1.022391855E1,-1.078046355E1,1.650173096E1
1.457505129E1,-8.260250455E0,9.448198854E0,-9.291986979E0,1.561541614E1
1.458510029E1,-8.830829945E0,9.438969024E0,-9.420999945E0,1.599477833E1
1.459514929E1,-7.490118359E0,1.022167673E1,-1.324917320E1,1.833371590E1
1.460519829E1,-5.993683727E0,1.214260635E1,-1.781057093E1,2.237372500E1
1.461524829E1,-7.051479537E0,1.371525242E1,-1.756629414E1,2.337533321E1
1.462529729E1,-9.703889993E0,1.295982607E1,-1.474959213E1,2.190143924E1
1.463534629E1,-1.146945150E1,1.076409252E1,-1.085637327E1,1.911216487E1
1.464539529E1,-1.163141937E1,8.447415735E0,-6.806695794E0,1.590534051E1
1.465544529E1,-1.077382930E1,5.535436267E0,-1.950600590E0,1.226871204E1
1.466549429E1,-1.046915662E1,2.671104004E0,4.712664320E0,1.178758847E1
1.467554329E1,-4.924355453E0,-4.739168286E-3,1.855486886E1,1.919719921E1
1.468559229E1,3.478788966E0,-6.938709551E-1,2.410900803E1,2.436858013E1
1.469564229E1,5.657729028E0,1.797002567E0,1.582752399E1,1.690413061E1
1.470569129E1,9.085924668E0,-2.568223999E0,1.608114580E1,1.864813803E1
1.471574029E1,1.222093331E1,-8.591549601E0,1.507868746E1,2.122575678E1
1.472578929E1,1.378142653E1,-1.184721203E1,9.286826227E0,2.040904926E1
1.473583829E1,1.077060398E1,-1.265899969E1,6.017231634E0,1.767663033E1
1.474588829E1,8.935786881E0,-1.347571539E1,5.221197542E0,1.699129472E1
1.475593729E1,7.855699146E0,-1.415434908E1,4.772306796E0,1.687698193E1
1.476598629E1,7.624716001E0,-1.530692417E1,4.465912696E0,1.767434858E1
1.477603529E1,6.744283783E0,-1.599593433E1,5.666796305E0,1.826110235E1
1.478608529E1,4.916354123E0,-1.450523582E1,7.118348880E0,1.688914725E1
1.479613429E1,4.970502849E0,-1.339385203E1,4.514738116E0,1.498279116E1
1.480618329E1,5.466487654E0,-1.315630655E1,1.903569242E0,1.437339435E1
1.481623229E1,5.633749012E0,-1.316677892E1,1.025657174E-1,1.432179160E1
1.482628229E1,7.319008949E0,-1.206356486E1,-8.705062768E-1,1.413701773E1
1.483633129E1,7.614470510E0,-7.422543842E0,-1.923141919E0,1.080614608E1
1.484638029E1,6.780065235E0,-3.581350590E0,-2.994222603E0,8.231690327E0
1.485642929E1,6.809228808E0,-1.890130001E-1,-2.349255713E0,7.205575985E0
1.486647929E1,7.758850543E0,2.792580494E0,-1.075474720E0,8.315943329E0
1.487652829E1,8.218277972E0,3.270613178E0,2.029495463E-2,8.845191647E0
1.488657729E1,7.741246916E0,2.729750408E0,3.295491911E0,8.845264724E0
1.489662629E1,7.137892613E0,1.936376215E0,5.176404362E0,9.027415240E0
1.490667629E1,6.656014216E0,7.767792106E-1,5.293458602E0,8.539708143E0
1.491672529E1,5.918293236E0,-3.854180503E-1,3.262457774E0,6.768926993E0
1.492677429E1,3.784350715E0,-5.466563668E0,1.297372900E0,6.774053816E0
1.493682329E1,1.516931462E0,-9.380060665E0,9.115306342E-1,9.545549080E0
1.494687329E1,1.528387912E0,-1.146991927E1,-4.387262383E-1,1.157961564E1
1.495692229E1,7.466107938E-1,-1.364357024E1,-1.671968046E0,1.376589676E1
1.496697129E1,3.296601713E-2,-1.393612281E1,-2.002916944E0,1.407935659E1
1.497702029E1,-4.471473983E-1,-1.405555570E1,-1.802591336E0,1.417772627E1
1.498707029E1,-2.202039195E0,-1.444366814E1,-7.705120187E-1,1.463086514E1
1.499711929E1,-4.664665988E0,-1.450081415E1,2.586591858E0,1.545066915E1
1.500716829E1,-5.034317021E0,-1.419047786E1,2.754195278E0,1.530684819E1
1.501721729E1,-3.574889417E0,-1.359194517E1,2.553702001E-1,1.405652951E1
1.502726642E1,-2.038379576E0,-1.381291379E1,-4.130678959E0,1.456070353E1
1.503731542E1,-5.645406313E-1,-1.507244731E1,-7.455722698E0,1.682513521E1
1.504736442E1,1.513062944E0,-1.584945105E1,-9.040881811E0,1.830934193E1
1.505741342E1,3.481867817E0,-1.547011177E1,-7.789272437E0,1.766693314E1
1.506746342E1,4.832198072E0,-1.455172352E1,-6.356324533E0,1.659836309E1
1.507751242E1,5.615867057E0,-1.461987048E1,-5.435536587E0,1.657780545E1
1.508756142E1,4.843154585E0,-1.624175712E1,-2.449681496E0,1.712459518E1
1.509761042E1,5.215641518E0,-1.695701895E1,5.868131143E0,1.868631508E1
1.510766042E1,2.208436049E0,-4.627382972E0,2.300673245E0,5.619871914E0
1.511770942E1,-9.898609875E0,2.322002426E0,-2.210550402E1,2.433161484E1
1.512775842E1,-9.460543495E0,9.792320359E0,-4.355661106E0,1.429556592E1
1.513780742E1,-2.439725705E1,6.362336173E1,-2.735716322E0,6.819561901E1
1.514785742E1,-1.438878969E1,5.944120388E1,-1.199335149E1,6.232282461E1
1.515790642E1,-1.017269577E1,1.356483631E1,4.421175064E0,1.752242313E1
1.516795542E1,-4.927989498E0,1.299907493E1,5.456895297E0,1.493448143E1
1.517800442E1,-2.915027914E0,1.360687545E1,2.586089289E0,1.415387951E1
1.518805342E1,-3.457452476E0,1.066004599E1,-5.761502488E0,1.260101064E1
1.519810342E1,-9.484710038E0,1.532378870E1,-8.559706834E0,1.995111039E1
1.520815242E1,-5.199780360E0,1.522795167E1,-3.153894275E0,1.639741678E1
1.521820142E1,7.257578686E-1,9.259251927E0,-4.090499524E0,1.014852980E1
1.522825042E1,3.901763974E0,7.198380305E0,-4.250937474E0,9.225557465E0
1.523830042E1,3.529724646E0,9.388363711E0,-2.813956745E0,1.041723005E1
1.524834942E1,2.023154450E0,9.776672625E0,-2.331827502E0,1.025250706E1
1.525839842E1,1.106744899E0,9.078318610E0,-2.459387435E0,9.470445586E0
1.526844742E1,2.525915301E-1,8.679197609E0,-3.481220530E0,9.354740510E0
1.527849742E1,-1.964813271E0,8.502792376E0,-4.484698338E0,9.811752573E0
1.528854642E1,-2.619530978E0,7.735878587E0,-4.070519004E0,9.125507384E0
1.529859542E1,-1.678939243E0,6.796460828E0,-2.629595498E0,7.478334657E0
1.530864442E1,-5.937524436E-1,5.586371362E0,-1.609542295E0,5.843861169E0
1.531869442E1,4.341117619E-1,4.153136945E0,-8.978712460E-1,4.271202674E0
1.532874342E1,8.284362911E-1,2.936209161E0,-5.826636377E-1,3.105982588E0
1.533879242E1,7.617549361E-1,1.895333439E0,-4.979953703E-1,2.102512500E0
1.534884142E1,4.908997741E-1,8.669514620E-1,-5.658672184E-1,1.145771851E0
1.535889142E1,-6.670357436E-3,5.589470387E-2,-6.377514258E-1,6.402308901E-1
1.536894042E1,-5.121599579E-1,-6.161649674E-1,-7.108389902E-1,1.071101844E0
1.537898942E1,-8.943972690E-1,-1.466287558E0,-6.990216212E-1,1.854340019E0
1.538903842E1,-1.211506246E0,-2.408152378E0,-5.898318855E-1,2.759501207E0
1.539908842E1,-1.239587207E0,-3.172899773E0,-1.974287514E-1,3.412161708E0
1.540913742E1,-1.079858817E0,-3.794479262E0,2.723690061E-1,3.954535726E0
1.541918642E1,-8.916949783E-1,-4.427824518E0,5.445384760E-1,4.549425464E0
1.542923542E1,-7.557467028E-1,-5.065071622E0,6.731304426E-1,5.165191981E0
1.543928542E1,-6.764925916E-1,-5.682507189E0,6.539011431E-1,5.759871256E0
1.544933442E1,-6.123743637E-1,-6.162208083E0,6.550940482E-1,6.227114824E0
1.545938342E1,-5.291896811E-1,-6.516705472E0,6.540426457E-1,6.570788668E0
1.546943242E1,-3.271192637E-1,-6.763732792E0,5.728061823E-1,6.795821894E0
1.547948242E1,-7.623300098E-2,-6.704424484E0,3.572520125E-1,6.714368781E0
1.548953142E1,1.756203912E-2,-6.420743893E0,2.323356056E-1,6.424970070E0
1.549958042E1,-8.919773988E-2,-6.241436686E0,1.851392198E-1,6.244819026E0
1.550962942E1,-1.483282929E-1,-5.965338764E0,1.063538361E-1,5.968130276E0
1.551967942E1,-1.656853140E-1,-5.496561638E0,5.288916193E-2,5.499312569E0
1.552972842E1,-1.064270724E-1,-4.928995219E0,-3.191446848E-3,4.930145107E0
1.553977742E1,2.258136578E-1,-4.213911735E0,1.236569166E-2,4.219975927E0
1.554982642E1,5.819382175E-1,-3.616440901E0,5.358739257E-2,3.663354813E0
1.555987642E1,8.857865131E-1,-3.004453769E0,1.555055674E-1,3.136166797E0
1.556992542E1,1.031366103E0,-2.452276636E0,2.423729726E-1,2.671351979E0
1.557997442E1,1.254872852E0,-1.962132615E0,2.483008432E-1,2.342290243E0
1.559002342E1,1.619779308E0,-1.427687749E0,1.927616135E-1,2.167748683E0
1.560007342E1,1.993621479E0,-7.621746200E-1,1.020713719E-1,2.136786213E0
1.561012242E1,2.219288628E0,-1.547728747E-1,1.307180508E-1,2.228516068E0
1.562017142E1,2.214943854E0,1.535361886E-2,3.925025733E-1,2.249504452E0
1.563022042E1,2.177969717E0,-2.599654537E-1,6.491708187E-1,2.287478279E0
1.564027042E1,2.088054450E0,-5.108887732E-1,9.495246720E-1,2.350016134E0
1.565031942E1,2.119486597E0,-6.156761402E-1,1.080769009E0,2.457507313E0
1.566036842E1,1.665887235E0,-7.236379606E-1,1.072399304E0,2.109235038E0
1.567041742E1,9.372431803E-1,-8.685910213E-1,1.089348117E0,1.679152900E0
1.568046742E1,4.238331973E-1,-1.049919026E0,1.419065591E0,1.815409510E0
1.569051642E1,-1.191591652E-1,-1.426511874E0,2.084894907E0,2.529015976E0
1.570056542E1,-6.473765275E-1,-1.558582934E0,2.569868821E0,3.074492297E0
1.571061442E1,-1.207313207E0,-1.619158334E0,2.808093742E0,3.458998317E0
1.572066442E1,-9.586995381E-1,-1.925873446E0,2.661072521E0,3.421900100E0
1.573071342E1,1.188577778E-1,-2.289103067E0,2.129850933E0,3.128959095E0
1.574076242E1,1.737729634E-1,-2.405929266E0,1.485028030E0,2.832666752E0
1.575081142E1,-9.717670418E-2,-2.398368816E0,6.398713338E-1,2.484160143E0
1.576086042E1,-3.398529645E-1,-2.533933003E0,1.037627155E0,2.759164115E0
1.577091042E1,-2.333752406E-1,-2.964769301E0,1.888952226E0,3.523132345E0
1.578095942E1,-3.627978042E-2,-3.522054561E0,1.903725947E0,4.003792831E0
1.579100842E1,5.943124607E-2,-4.013465089E0,1.316467860E0,4.224277657E0
1.580105742E1,9.485645592E-4,-4.290823671E0,5.098305003E-1,4.321006342E0
1.581110742E1,-2.830382743E-1,-4.995330711E0,-4.161217797E-1,5.020617184E0
1.582115642E1,-6.114308424E-1,-5.284384308E0,-6.772854741E-1,5.362581543E0
1.583120542E1,-7.912903187E-1,-6.184481297E0,-1.092224801E0,6.329842360E0
1.584125442E1,-1.713116219E0,-7.100835299E0,-2.903378799E0,7.860422227E0
1.585130442E1,-2.606091152E0,-6.951906717E0,-3.998984460E0,8.432828399E0
1.586135342E1,-2.385712372E0,-7.137104409E0,-3.318549821E0,8.224515535E0
1.587140242E1,-9.337090500E-1,-6.634886472E0,-2.841060344E0,7.277716329E0
1.588145142E1,3.782461479E-1,-5.475680646E0,-2.223135949E0,5.921864752E0
1.589150142E1,1.278713119E0,-4.415372872E0,-1.013859101E0,4.707285324E0
1.590155042E1,1.073687227E0,-3.438162804E0,3.091889231E-1,3.615157744E0
1.591159942E1,1.073222227E0,-2.384833682E0,5.000785871E-1,2.662576990E0
1.592164942E1,1.596839073E0,-3.239988971E-1,2.720515023E-1,1.651932907E0
1.593169842E1,2.069174522E0,1.931290891E0,-5.312063858E-2,2.830934388E0
1.594174742E1,1.777665533E0,2.935437328E0,-7.073246674E-1,3.503882880E0
1.595179642E1,2.122921105E0,1.905684180E0,-9.155204818E-1,2.996098123E0
1.596184542E1,3.614974711E0,1.578407333E0,-1.028167091E0,4.076338975E0
1.597189542E1,1.973719019E0,-3.027863681E-2,-1.243099190E0,2.332762131E0
1.598194442E1,-2.120585581E0,-1.547265648E0,-1.478308118E0,3.012691335E0
1.599199342E1,-2.856040326E0,2.822639276E0,-3.072299304E0,5.056014422E0
1.600204242E1,-3.860297860E0,6.732579412E0,-4.381771555E0,8.912319960E0
1.601209242E1,-3.826713207E0,9.735388359E0,-5.848020229E0,1.198419213E1
1.602214192E1,-3.463687069E0,1.190520472E1,-7.229706178E0,1.435268891E1
1.603219092E1,-4.046398362E0,1.246818166E1,-6.963412868E0,1.484311330E1
1.604223992E1,-3.778194474E0,1.186833685E1,-5.680791031E0,1.368954199E1
1.605228992E1,-3.020022273E0,1.181470034E1,-5.886044673E0,1.354079764E1
1.606233892E1,-2.741234339E0,1.194305024E1,-6.326818314E0,1.379055636E1
1.607238792E1,-2.207607353E0,1.159927606E1,-6.454505131E0,1.345649924E1
1.608243792E1,-2.928569773E0,1.192440230E1,-7.244825324E0,1.425676629E1
1.609248692E1,-4.187077108E0,1.369109173E1,-8.417921795E0,1.660840193E1
1.610253592E1,-5.020382522E0,1.587019347E1,-1.082333417E1,1.985476879E1
1.611258492E1,-6.261583852E0,1.734262879E1,-1.437370855E1,2.337900133E1
1.612263492E1,-9.217653081E0,1.724273145E1,-1.826019726E1,2.675278901E1
1.613268392E1,-1.245399631E1,1.540182798E1,-1.990354552E1,2.807969825E1
1.614273292E1,-1.470687822E1,1.340919512E1,-1.822134952E1,2.698363132E1
1.615278192E1,-1.462110190E1,1.182793259E1,-1.435732699E1,2.366029266E1
1.616283092E1,-1.326243703E1,1.075086612E1,-1.127505029E1,2.045971938E1
1.617288092E1,-1.218326906E1,9.097457131E0,-9.303542247E0,1.782559030E1
1.618292992E1,-1.058818488E1,6.285106031E0,-7.441724464E0,1.438719847E1
1.619297892E1,-9.087099373E0,3.368009664E0,-2.682997826E0,1.005571188E1
1.620302792E1,-5.366896123E0,-7.666284442E-2,2.410304153E0,5.883792764E0
1.621307792E1,2.198684940E0,-3.588560792E0,1.070142908E1,1.149924207E1
1.622312692E1,5.432173854E0,-6.323009437E0,1.314905250E1,1.556876818E1
1.623317592E1,5.048159720E0,-7.772935901E0,9.798425437E0,1.348746048E1
1.624322592E1,4.272204382E0,-8.039833229E0,7.144144456E0,1.157278915E1
1.625327492E1,5.490848324E0,-8.272419680E0,7.385904604E0,1.237472947E1
1.626332392E1,8.488202988E0,-8.833269988E0,1.043166077E1,1.609023912E1
1.627337292E1,1.225855313E1,-9.505183479E0,1.531721410E1,2.179994691E1
1.628342292E1,1.308269128E1,-1.109040457E1,1.297597375E1,2.150650551E1
1.629347192E1,6.761160017E0,-1.516514907E1,1.044592446E1,1.961663500E1
1.630352092E1,2.836730773E0,-1.465502160E1,1.325672430E1,1.996390339E1
1.631356992E1,5.382444454E0,-1.379297946E1,9.546741979E0,1.761695982E1
1.632361992E1,5.056676189E0,-1.331187874E1,6.149094533E0,1.551088177E1
1.633366892E1,4.313954379E0,-1.257809996E1,4.734327084E0,1.411497977E1
1.634371792E1,3.516403227E0,-1.110561084E1,2.010383254E0,1.182122348E1
1.635376692E1,2.983585348E0,-9.231181784E0,-1.987207814E0,9.902802308E0
1.636381692E1,3.042059844E0,-7.681152157E0,-2.362935567E0,8.592886072E0
1.637386592E1,2.274367499E0,-6.124301169E0,7.739680155E-1,6.578665428E0
1.638391492E1,1.612073262E0,-2.515327747E0,3.211993672E0,4.386633929E0
1.639396392E1,1.364597169E0,3.713594143E0,4.204946784E0,5.773602372E0
1.640401392E1,3.219988277E0,6.812437760E0,3.435314625E0,8.281245034E0
1.641406292E1,6.021764395E0,3.129037469E0,2.699738112E0,7.303499694E0
1.642411192E1,6.079755911E0,-1.631566125E0,3.760890516E0,7.332785107E0
1.643416092E1,5.081753143E0,-4.463371496E0,4.370503678E0,8.052776076E0
1.644421092E1,3.774817999E0,-6.004714499E0,3.976487590E0,8.131316049E0
1.645425992E1,3.356931237E0,-7.328429983E0,4.039199562E0,9.016097074E0
1.646430892E1,3.715293636E0,-8.969732891E0,4.604200223E0,1.074514656E1
1.647435792E1,4.462428925E0,-1.039170674E1,4.621278771E0,1.221708060E1
1.648440792E1,4.493300177E0,-1.172305810E1,4.060022082E0,1.319483297E1
1.649445692E1,4.432503752E0,-1.296781922E1,3.896289226E0,1.424754346E1
1.650450592E1,4.785210139E0,-1.345447128E1,4.396154244E0,1.494145929E1
1.651455492E1,5.027227272E0,-1.370933972E1,4.197514388E0,1.519335831E1
1.652460492E1,4.762192283E0,-1.363980229E1,3.267065380E0,1.481203558E1
1.653465392E1,4.187372100E0,-1.324773011E1,2.602773735E0,1.413544726E1
1.654470292E1,3.511944725E0,-1.315687140E1,2.093421025E0,1.377749731E1
1.655475192E1,2.285730685E0,-1.323026097E1,1.479214875E0,1.350749594E1
1.656480192E1,9.870623347E-1,-1.306931753E1,1.629305884E0,1.320742179E1
1.657485092E1,2.149527106E-1,-1.311500416E1,1.040625461E0,1.315798009E1
1.658489992E1,-5.283193231E-1,-1.320148565E1,3.904068947E-2,1.321211069E1
1.659494892E1,-9.710292694E-1,-1.270264097E1,-1.257827596E0,1.280164504E1
1.660499892E1,-9.685956582E-1,-1.086928627E1,-2.115434622E0,1.111551281E1
1.661504792E1,-1.959437926E0,-1.097231421E1,-4.965074294E0,1.220176376E1
