"Time (s)","Linear Acceleration x (m/s^2)","Linear Acceleration y (m/s^2)","Linear Acceleration z (m/s^2)","Absolute acceleration (m/s^2)"
-1.139250002E-3,9.238068634E-1,1.806465701E0,6.869308949E-2,2.030136988E0
8.909750002E-3,6.657151499E-1,1.653931725E0,-1.844761455E-1,1.792400140E0
1.895875001E-2,1.355378741E-1,1.574244701E0,-3.609662004E-1,1.620775583E0
2.900775000E-2,-3.063952696E-1,1.702197567E0,-5.184328874E-1,1.805582254E0
3.905737500E-2,-5.727093378E-1,1.726904976E0,-5.496839527E-1,1.900618118E0
4.910637501E-2,-6.145748171E-1,1.826478966E0,-7.012729454E-1,2.050734347E0
5.915537500E-2,-6.550799417E-1,1.838439445E0,-1.033343924E0,2.208345306E0
6.920337501E-2,-8.709456950E-1,1.570803030E0,-1.302235737E0,2.218509967E0
7.925237500E-2,-1.098818998E0,1.201830858E0,-1.335640880E0,2.106118981E0
8.930137500E-2,-1.213130602E0,9.230326921E-1,-1.191794770E0,1.934954775E0
9.935037501E-2,-1.175983241E0,6.706300271E-1,-1.065150438E0,1.722563982E0
1.093993750E-1,-1.022033362E0,4.675340080E-1,-7.631042542E-1,1.358480160E0
1.194483750E-1,-8.535701090E-1,2.496714306E-1,-3.716560435E-1,9.638703071E-1
1.294973750E-1,-7.270767081E-1,-1.878534973E-2,-7.739900887E-2,7.314260286E-1
1.395453750E-1,-3.617420894E-1,1.651990449E-1,2.108079118E-1,4.500978109E-1
1.495943750E-1,6.162877589E-2,4.053389293E-1,5.084769429E-1,6.531818699E-1
1.596433750E-1,1.106176257E-1,4.821502930E-1,1.055081533E0,1.165290609E0
1.696923750E-1,-2.104059157E-1,4.955749154E-1,1.630155777E0,1.716762361E0
1.797413750E-1,-3.524432623E-1,3.725518370E-1,1.737300741E0,1.811415190E0
1.897903750E-1,-3.489083281E-1,8.039278328E-2,1.391948397E0,1.437261410E0
1.998393750E-1,-3.902811795E-1,-1.347064000E-1,7.784170157E-1,8.811346456E-1
2.098883750E-1,-5.481273508E-1,-2.038105488E-1,4.535041988E-1,7.400326958E-1
2.199363750E-1,-6.391141194E-1,-1.487584287E-1,3.690715742E-1,7.528676873E-1
2.299853750E-1,-6.876524413E-1,-7.632487535E-2,3.213566865E-1,7.628640026E-1
2.400343750E-1,-7.407650399E-1,-5.731908560E-2,2.145652594E-1,7.733411747E-1
2.500833750E-1,-9.310296366E-1,-9.720528245E-2,8.813917458E-2,9.402305915E-1
2.601323750E-1,-1.179033734E0,-6.233190358E-2,1.829235636E-2,1.180821926E0
2.701813750E-1,-1.297617606E0,-4.212918878E-2,-3.018515445E-2,1.298652172E0
2.802303750E-1,-1.186566117E0,-1.038576597E-1,-9.163829461E-2,1.194622593E0
2.902793750E-1,-1.054578672E0,-1.132289922E-1,-5.414412059E-2,1.062020982E0
3.003273750E-1,-9.858382201E-1,2.706793070E-2,7.370298386E-2,9.889599582E-1
3.103763750E-1,-8.624344879E-1,2.219895422E-1,1.987029328E-1,9.124447700E-1
3.204253750E-1,-8.533604863E-1,4.207545286E-1,2.789336751E-1,9.914950772E-1
3.304743750E-1,-8.723425949E-1,5.637335694E-1,2.502163911E-1,1.068356393E0
3.405233750E-1,-7.984805667E-1,7.019646710E-1,1.231517172E-1,1.070276581E0
3.505723750E-1,-7.675964507E-1,7.973245722E-1,2.000390947E-2,1.106946675E0
3.606213750E-1,-7.874205583E-1,8.351314992E-1,-3.787767828E-2,1.148438277E0
3.706703750E-1,-7.957534254E-1,8.174734926E-1,-6.945264280E-2,1.142939235E0
3.807183750E-1,-8.162166336E-1,7.658975422E-1,-6.790064558E-2,1.121347018E0
3.907673750E-1,-8.471978134E-1,7.271246552E-1,7.271436587E-2,1.118812665E0
4.008163750E-1,-8.974148709E-1,7.368234318E-1,3.233252247E-1,1.205322123E0
4.108653750E-1,-9.565100482E-1,6.843417478E-1,6.082039102E-1,1.324064612E0
4.209143750E-1,-8.840712324E-1,6.944545072E-1,9.174458237E-1,1.451053357E0
4.309633750E-1,-8.268553501E-1,7.289074713E-1,1.066809366E0,1.533974607E0
4.410123750E-1,-1.075489192E0,5.732043046E-1,9.657173663E-1,1.554943796E0
4.510613750E-1,-1.333961560E0,3.818904251E-1,7.815950505E-1,1.592540286E0
4.611093750E-1,-1.493077454E0,2.593643600E-1,6.651944554E-1,1.655002664E0
4.711583750E-1,-1.575519101E0,1.366020674E-1,6.266613042E-1,1.701065829E0
4.812073750E-1,-1.519648663E0,1.721209788E-1,5.581529868E-1,1.628033307E0
4.912563750E-1,-1.353473426E0,2.954358333E-1,4.715269985E-1,1.463390022E0
5.013053750E-1,-1.183274427E0,3.491711605E-1,4.613640261E-1,1.317161962E0
5.113543750E-1,-1.028831627E0,3.906548166E-1,3.969551184E-1,1.169905581E0
5.214033750E-1,-8.958524948E-1,4.519792449E-1,3.107122689E-1,1.050418509E0
5.314513750E-1,-7.849454319E-1,4.087864476E-1,2.825917663E-1,9.290337977E-1
5.415003750E-1,-7.185567302E-1,2.645473319E-1,2.561647636E-1,8.074214831E-1
5.515493750E-1,-7.042295900E-1,1.519445765E-1,1.328563410E-1,7.325826077E-1
5.615983750E-1,-5.983715978E-1,7.741245747E-2,-2.011610292E-2,6.036935607E-1
5.716473750E-1,-3.540462765E-1,-7.764225304E-2,-1.109983525E-1,3.790748206E-1
5.816963750E-1,-2.187551549E-1,-2.466899353E-1,-1.710064995E-1,3.714201999E-1
5.917453750E-1,-1.625675055E-1,-4.674831372E-1,-2.386389041E-1,5.494699300E-1
6.017943750E-1,-1.044417965E-1,-7.818949395E-1,-3.353390602E-1,8.571581363E-1
6.118423750E-1,-2.757137597E-2,-1.126242732E0,-3.545494294E-1,1.181053839E0
6.218913750E-1,9.311106205E-3,-1.464159756E0,-3.069472468E-1,1.496017079E0
6.319403750E-1,-5.987841189E-3,-1.765311828E0,-2.622995891E-1,1.784702434E0
6.419893750E-1,4.745512515E-2,-2.180371168E0,-2.369391185E-1,2.193720713E0
6.520383750E-1,9.605133444E-2,-2.567089639E0,-1.793476257E-1,2.575138957E0
6.620873750E-1,1.139736351E-1,-2.794863247E0,-2.543141929E-1,2.808723245E0
6.721363750E-1,2.001352814E-1,-2.985701748E0,-4.416659625E-1,3.024820306E0
6.821853750E-1,3.089689216E-1,-3.246103404E0,-6.201505027E-1,3.319222161E0
6.922333750E-1,3.270888582E-1,-3.573826978E0,-7.116663712E-1,3.658646664E0
7.022823750E-1,2.267751959E-1,-3.928058318E0,-6.402051368E-1,3.986343156E0
7.123313750E-1,9.965497345E-2,-4.236994788E0,-5.741632479E-1,4.276881970E0
7.223803750E-1,5.266879499E-3,-4.493978747E0,-5.806764615E-1,4.531341729E0
7.324293750E-1,-2.406567782E-2,-4.702154242E0,-7.011641872E-1,4.754204969E0
7.424783750E-1,-1.505064538E-1,-4.858640351E0,-7.905423868E-1,4.924834567E0
7.525273750E-1,-3.150298530E-1,-4.919310476E0,-7.826188248E-1,4.991127286E0
7.625763750E-1,-5.337440774E-1,-4.910370083E0,-7.765891761E-1,4.999970784E0
7.726243750E-1,-8.684585819E-1,-4.737028205E0,-7.081135299E-1,4.867759371E0
7.826733750E-1,-1.037882532E0,-4.306813467E0,-6.085139588E-1,4.471703437E0
7.927223750E-1,-1.029414887E0,-3.683918354E0,-6.424487865E-1,3.878619586E0
8.027713750E-1,-9.638743240E-1,-2.967191802E0,-7.519735676E-1,3.209165803E0
8.128203750E-1,-8.961623973E-1,-1.969125300E0,-8.489267620E-1,2.324056397E0
8.228693750E-1,-9.845711285E-1,-4.958754623E-1,-1.034339120E0,1.511664710E0
8.329183750E-1,-9.128255001E-1,1.431995392E0,-1.310712445E0,2.145187244E0
8.429673750E-1,-2.202675372E-1,3.636007438E0,-1.579889603E0,3.970531329E0
8.530153750E-1,5.878232208E-1,5.985217543E0,-1.866434160E0,6.296978772E0
8.630643750E-1,1.023939554E0,8.606521981E0,-2.082647822E0,8.913927012E0
8.731133750E-1,1.528144960E0,1.070854631E1,-1.912971565E0,1.098488285E1
8.831623750E-1,2.358822635E0,1.240929084E1,-1.525732107E0,1.272330153E1
8.932113750E-1,3.046878827E0,1.426575491E1,-4.416261649E-1,1.459418609E1
9.032603750E-1,3.780067337E0,1.606666810E1,8.207005709E-1,1.652574604E1
9.133093750E-1,5.032723655E0,1.745388259E1,1.864563051E0,1.826041950E1
9.233573750E-1,6.145480369E0,1.851092703E1,2.613972614E0,1.967877540E1
9.334063750E-1,6.914482198E0,1.982707330E1,3.055013473E0,2.121923672E1
9.434553750E-1,7.629917099E0,2.100733611E1,3.101555555E0,2.256420733E1
9.535043750E-1,7.943430769E0,2.171523278E1,2.677486825E0,2.327699214E1
9.635533750E-1,8.424560723E0,2.162202817E1,1.684061258E0,2.326631444E1
9.736023750E-1,8.828735472E0,2.070136067E1,5.472350292E-1,2.251204944E1
9.836513750E-1,8.959157617E0,1.903478142E1,-1.715444799E-1,2.103850842E1
9.937003750E-1,9.031229228E0,1.622242272E1,-1.941497425E-1,1.856792380E1
1.003748375E0,8.813429800E0,1.210733361E1,-1.040921330E-1,1.497581073E1
1.013797375E0,7.660406236E0,7.370146358E0,1.517703295E-1,1.063127063E1
1.023846375E0,6.245608674E0,2.742566920E0,7.558543646E-1,6.862988915E0
1.033894750E0,5.073701527E0,-1.388664016E0,1.341065927E0,5.428562679E0
1.043943750E0,3.916517669E0,-4.714248038E0,1.743120475E0,6.371947442E0
1.053992750E0,2.695638629E0,-7.304438272E0,1.807663211E0,7.993055259E0
1.064041750E0,1.378009512E0,-9.117706039E0,1.258249472E0,9.306700025E0
1.074089750E0,-1.733678976E-1,-1.003162468E1,2.652940214E-1,1.003662946E1
1.084138750E0,-1.638825443E0,-1.057304527E1,-9.819755495E-1,1.074426876E1
1.094187750E0,-2.801012764E0,-1.092296604E1,-2.178246290E0,1.148484291E1
1.104236750E0,-3.416615229E0,-1.079961786E1,-2.938472033E0,1.170212047E1
1.114285750E0,-3.518854672E0,-1.050523979E1,-3.275621318E0,1.155301243E1
1.124334750E0,-3.577390563E0,-1.031678286E1,-3.419845816E0,1.144242445E1
1.134383750E0,-3.547269801E0,-1.003897696E1,-3.303589720E0,1.114799922E1
1.144432750E0,-3.464762665E0,-9.839215028E0,-3.105393083E0,1.088385037E1
1.154480750E0,-3.485952390E0,-9.901834030E0,-2.949218631E0,1.090394753E1
1.164529750E0,-3.362795117E0,-1.005995911E1,-2.708464204E0,1.094746303E1
1.174578750E0,-3.184666125E0,-1.019396326E1,-2.401095958E0,1.094642623E1
1.184627750E0,-3.176121588E0,-1.032417140E1,-2.121727688E0,1.100808756E1
1.194676750E0,-3.079725561E0,-1.042607200E1,-1.850061956E0,1.102771128E1
1.204725750E0,-2.911849953E0,-1.055548608E1,-1.736473945E0,1.108659092E1
1.214774750E0,-2.673287939E0,-1.067661466E1,-1.710677783E0,1.113835659E1
1.224823750E0,-2.417896178E0,-1.068828337E1,-1.632412071E0,1.107927761E1
1.234871750E0,-2.138639298E0,-1.064078176E1,-1.580017657E0,1.096797475E1
1.244920750E0,-1.863616971E0,-1.067495171E1,-1.603491158E0,1.095439849E1
1.254969750E0,-1.629706126E0,-1.080205264E1,-1.669306394E0,1.105110253E1
1.265018750E0,-1.447539046E0,-1.096804925E1,-1.777722543E0,1.120507791E1
1.275067750E0,-1.234259808E0,-1.104214867E1,-1.835626789E0,1.126152611E1
1.285116750E0,-9.903706893E-1,-1.106366526E1,-1.727264580E0,1.124139519E1
1.295165750E0,-8.924274883E-1,-1.120884343E1,-1.423759004E0,1.133409404E1
1.305214750E0,-8.740657693E-1,-1.133009013E1,-1.179812437E0,1.142483657E1
1.315262750E0,-8.662588593E-1,-1.140047072E1,-9.928757827E-1,1.147636438E1
1.325311750E0,-8.883560720E-1,-1.142538454E1,-7.517266689E-1,1.148449744E1
1.335360750E0,-9.958091846E-1,-1.132300681E1,-4.548266928E-1,1.137580707E1
1.345409750E0,-1.117820695E0,-1.112204386E1,-2.116247678E-1,1.118007906E1
1.355458750E0,-1.167096350E0,-1.090370298E1,3.056990124E-2,1.096602877E1
1.365507750E0,-1.281389828E0,-1.061173747E1,2.884272876E-1,1.069271351E1
1.375556750E0,-1.495918908E0,-1.020188273E1,5.489588249E-1,1.032557700E1
1.385604750E0,-1.681984912E0,-9.811174121E0,8.011374684E-1,9.986492483E0
1.395653750E0,-2.050024160E0,-9.432937621E0,9.455520006E-1,9.699328833E0
1.405702750E0,-2.463781618E0,-9.010117271E0,1.000170403E0,9.394294754E0
1.415751750E0,-2.725405342E0,-8.551345316E0,9.173556304E-1,9.021911235E0
1.425800750E0,-3.030735541E0,-8.074537039E0,8.389900037E-1,8.665299218E0
1.435849750E0,-3.516406735E0,-7.360082715E0,8.369599966E-1,8.199782676E0
1.445898750E0,-3.972921373E0,-6.071097938E0,1.169067081E0,7.349085130E0
1.455947750E0,-4.192355974E0,-3.972581942E0,1.951045709E0,6.096214831E0
1.465995750E0,-4.165916035E0,-1.010007686E0,2.902390035E0,5.176759589E0
1.476044750E0,-3.882471963E0,2.600035776E0,3.823159854E0,6.037410526E0
1.486093750E0,-2.942323302E0,6.941332027E0,4.065049226E0,8.565277692E0
1.496142750E0,-1.462245378E0,1.147516306E1,3.506752982E0,1.208779737E1
1.506191750E0,-3.565637952E-1,1.524199785E1,2.982761768E0,1.553520209E1
1.516240750E0,3.002846369E-1,1.773925010E1,2.071739257E0,1.786234219E1
1.526289750E0,5.143307367E-1,1.915703033E1,1.765751538E0,1.924510913E1
1.536338750E0,1.012202438E0,1.968052102E1,2.908499790E0,1.992001085E1
1.546386750E0,2.077884681E0,1.911471637E1,5.286475857E0,1.994083282E1
1.556435750E0,2.357488593E0,1.760795906E1,7.672268482E0,1.935101234E1
1.566484750E0,2.171234894E0,1.586505142E1,9.068967158E0,1.840272488E1
1.576533750E0,1.860406265E0,1.400962231E1,9.480057993E0,1.701770044E1
1.586582750E0,1.306292535E0,1.257549327E1,8.450619425E0,1.520731402E1
1.596631750E0,1.468643401E0,1.212241358E1,5.462450151E0,1.337715164E1
1.606680750E0,2.248741491E0,1.203349965E1,1.784039290E0,1.237112558E1
1.616728750E0,3.213556048E0,1.178861358E1,-1.540168297E0,1.231545659E1
1.626777750E0,3.844751868E0,1.112905701E1,-4.464601750E0,1.259248568E1
1.636826750E0,4.420694423E0,9.914681532E0,-6.263915137E0,1.253315930E1
1.646875750E0,4.945296671E0,8.924484798E0,-6.830667039E0,1.227845268E1
1.656924750E0,5.542468713E0,7.919099336E0,-6.315813854E0,1.154645393E1
1.666973750E0,5.263578746E0,6.680785945E0,-4.282137047E0,9.522334784E0
1.677022750E0,4.192820828E0,5.552028911E0,-1.891941469E0,7.210007908E0
1.687071750E0,3.263860813E0,4.776986908E0,-3.607661526E-1,5.796770096E0
1.697119750E0,2.710561016E0,4.246593577E0,6.527340388E-1,5.080035409E0
1.707168750E0,2.556816081E0,3.778919236E0,1.139203670E0,4.702693278E0
1.717217750E0,2.720926960E0,3.371662420E0,7.179433572E-1,4.391695989E0
1.727266750E0,2.964019688E0,2.921526802E0,-4.376184833E-1,4.184763016E0
1.737315750E0,2.901434015E0,2.290125160E0,-1.449361038E0,3.970345075E0
1.747364750E0,2.528548302E0,1.601685684E0,-1.885363351E0,3.537449436E0
1.757413750E0,2.109413452E0,8.405799347E-1,-2.009857589E0,3.032445757E0
1.767462750E0,1.837273803E0,-8.471679926E-2,-2.209923581E0,2.875154639E0
1.777510750E0,1.674121284E0,-1.001829770E0,-2.325435326E0,3.035456212E0
1.787559750E0,1.732617706E0,-1.857059904E0,-2.281687628E0,3.414195957E0
1.797608750E0,1.845129537E0,-2.803486136E0,-2.165656650E0,3.994259162E0
1.807657750E0,1.911670851E0,-3.730110773E0,-2.116079863E0,4.695317434E0
1.817706750E0,1.959112236E0,-4.488916227E0,-2.120024979E0,5.336946277E0
1.827755750E0,1.815711318E0,-5.202901019E0,-1.911181732E0,5.832632529E0
1.837804750E0,1.540328511E0,-5.832110540E0,-1.655374818E0,6.255109197E0
1.847852750E0,1.304425811E0,-6.259660703E0,-1.592373993E0,6.589425904E0
1.857901750E0,1.217151732E0,-6.513532773E0,-1.778202599E0,6.860726785E0
1.867950750E0,1.181801805E0,-6.675820490E0,-2.093861613E0,7.095596604E0
1.877999750E0,1.088133211E0,-6.883978443E0,-2.455262809E0,7.389283359E0
1.888048750E0,1.143876180E0,-6.857291166E0,-2.844825951E0,7.511586353E0
1.898097750E0,1.420312948E0,-6.680273144E0,-2.989628153E0,7.455280991E0
1.908146750E0,1.528531753E0,-6.522518774E0,-2.888944947E0,7.295592052E0
1.918195750E0,1.551563644E0,-6.273748400E0,-2.789661564E0,7.039139178E0
1.928243750E0,1.705573164E0,-5.976463092E0,-2.630859373E0,6.748963769E0
1.938292750E0,1.812469037E0,-5.625727217E0,-2.348482127E0,6.359970049E0
1.948341750E0,1.740765801E0,-5.286382887E0,-2.046791527E0,5.930047652E0
1.958390750E0,1.656481111E0,-4.976005663E0,-1.861347082E0,5.564995507E0
1.968439750E0,1.403548104E0,-4.671011971E0,-1.725893554E0,5.173684246E0
1.978488750E0,1.044638113E0,-4.242591158E0,-1.591606253E0,4.650167630E0
1.988537750E0,8.642140880E-1,-3.575398124E0,-1.356742312E0,3.920597842E0
1.998585750E0,9.474676216E-1,-2.661209346E0,-1.113185899E0,3.036266280E0
2.008634750E0,1.163587144E0,-1.691794785E0,-9.051502255E-1,2.243970046E0
2.018683750E0,1.342569538E0,-5.786065471E-1,-6.279914727E-1,1.591116523E0
2.028732750E0,1.635492530E0,7.392710763E-1,-1.796563222E-1,1.803783229E0
2.038781375E0,1.925797724E0,1.991881494E0,5.511720325E-1,2.824903427E0
2.048830375E0,2.089095255E0,3.111057281E0,1.461824378E0,4.022427986E0
2.058879375E0,1.922988430E0,3.861632195E0,2.226274735E0,4.854522314E0
2.068928375E0,1.514772670E0,4.186695285E0,2.626779771E0,5.169422174E0
2.078976375E0,1.072904723E0,4.289703344E0,2.619713995E0,5.139609007E0
2.089025375E0,5.841505846E-1,4.123220835E0,2.408818960E0,4.810882533E0
2.099074375E0,1.703176975E-1,3.770960006E0,2.177669170E0,4.357911254E0
2.109123375E0,-2.486306262E-1,3.292723839E0,1.947321618E0,3.833524351E0
2.119172375E0,-7.285548842E-1,2.728959864E0,1.703787425E0,3.298621795E0
2.129221375E0,-1.082226647E0,2.190795000E0,1.412603102E0,2.822453679E0
2.139270375E0,-1.174840111E0,1.776553684E0,1.033115298E0,2.367217670E0
2.149319375E0,-1.141592258E0,1.411938858E0,6.640542483E-1,1.933331908E0
2.159367375E0,-1.145206422E0,1.003652347E0,3.762999753E-1,1.568571788E0
2.169416375E0,-1.304728990E0,5.279357457E-1,1.208245619E-1,1.412668561E0
2.179465375E0,-1.411457632E0,-6.155363917E-2,-1.177067534E-1,1.417694035E0
2.189514375E0,-1.478688918E0,-6.201644629E-1,-3.551376228E-1,1.642329933E0
2.199563375E0,-1.318882175E0,-8.334165108E-1,-5.980157582E-1,1.670824982E0
2.209612375E0,-1.137467632E0,-7.713939250E-1,-6.442333567E-1,1.517866206E0
2.219661375E0,-9.873678517E-1,-7.527775598E-1,-5.413223612E-1,1.354473783E0
2.229709375E0,-8.461599326E-1,-7.319538707E-1,-3.893134288E-1,1.184613036E0
2.239758375E0,-9.788882196E-1,-6.294457483E-1,-7.435904145E-2,1.166170384E0
2.249807375E0,-1.309799110E0,-5.337396920E-1,2.527611359E-1,1.436781111E0
2.259856375E0,-1.647363548E0,-4.760919929E-1,4.713733264E-1,1.778387769E0
2.269905375E0,-1.784547998E0,-3.382748741E-1,5.324591883E-1,1.892763650E0
2.279954375E0,-1.664165522E0,-8.337544799E-2,5.471871185E-1,1.753799331E0
2.290003375E0,-1.402969229E0,2.293289673E-1,5.618987131E-1,1.528608713E0
2.300052375E0,-1.234936039E0,5.846572459E-1,5.164927447E-1,1.460703896E0
2.310100375E0,-1.131469558E0,9.097191668E-1,4.505887771E-1,1.520145575E0
2.320149375E0,-1.093022361E0,1.123213289E0,4.056271970E-1,1.618900676E0
2.330198375E0,-1.178954211E0,1.163119367E0,3.363774892E-1,1.689949558E0
2.340247375E0,-1.339585996E0,1.046257499E0,2.546252282E-1,1.718714462E0
2.350296375E0,-1.529740958E0,9.418677431E-1,1.622181709E-1,1.803756352E0
2.360345375E0,-1.632787609E0,8.356320208E-1,1.541466379E-1,1.840662227E0
2.370394375E0,-1.621501898E0,6.916490132E-1,1.555043614E-1,1.769697253E0
2.380442375E0,-1.622721042E0,5.818342102E-1,1.435385827E-1,1.729843332E0
2.390491375E0,-1.612698330E0,5.122096592E-1,9.241056561E-2,1.694607432E0
2.400540375E0,-1.584436398E0,4.812287718E-1,4.311857421E-2,1.656465828E0
2.410589375E0,-1.560092685E0,4.519558561E-1,5.994448543E-2,1.625345078E0
2.420638375E0,-1.546756355E0,3.440232718E-1,6.629105330E-2,1.585938756E0
2.430687375E0,-1.534155021E0,2.518167740E-1,3.493126631E-2,1.555076689E0
2.440736375E0,-1.524424669E0,2.382407087E-1,-1.512206912E-2,1.543002879E0
2.450785375E0,-1.529952627E0,1.382445502E-1,5.123096466E-2,1.537039755E0
2.460833375E0,-1.482528200E0,-8.619614482E-2,1.056288179E-1,1.488783760E0
2.470882375E0,-1.459365624E0,-3.514784718E-1,1.322062768E-2,1.501152866E0
2.480931375E0,-1.498114538E0,-6.308584356E-1,-1.748878813E-1,1.634905289E0
2.490980375E0,-1.647507389E0,-9.238442856E-1,-2.492984148E-1,1.905234516E0
2.501029375E0,-1.790487015E0,-1.305364582E0,-2.348534167E-1,2.228222738E0
2.511078375E0,-1.823001042E0,-1.727014904E0,-2.746928358E-1,2.526137255E0
2.521127375E0,-1.872725764E0,-2.175903311E0,-3.806338584E-1,2.895952199E0
2.531175375E0,-1.974393641E0,-2.726721550E0,-4.983944428E-1,3.403180525E0
2.541224375E0,-2.096120392E0,-3.336202565E0,-5.017086446E-1,3.971861002E0
2.551273375E0,-2.274921815E0,-4.011951245E0,-3.617461824E-1,4.626216851E0
2.561322375E0,-2.513943127E0,-4.767434896E0,-2.066195512E-1,5.393610773E0
2.571371375E0,-2.866814990E0,-5.712054924E0,-1.469989832E-1,6.392793469E0
2.581420375E0,-3.472836792E0,-6.813695496E0,-3.075191045E-1,7.653862404E0
2.591469375E0,-3.883672104E0,-7.520817411E0,-6.696979809E-1,8.490824396E0
2.601518375E0,-4.024419848E0,-7.561495321E0,-8.930265355E-1,8.612181082E0
2.611566375E0,-3.733158926E0,-7.225515479E0,-7.949979651E-1,8.171693293E0
2.621615375E0,-3.051931406E0,-6.774125633E0,-6.059586525E-1,7.454545545E0
2.631664375E0,-2.592221557E0,-6.055162522E0,-4.741705612E-1,6.603744656E0
2.641713375E0,-2.446404278E0,-4.932942674E0,-3.825190008E-1,5.519523358E0
2.651762375E0,-2.185772241E0,-3.431557789E0,-4.076701776E-1,4.088934351E0
2.661811375E0,-1.332391582E0,-1.411975695E0,-8.013690182E-1,2.100270220E0
2.671860375E0,3.165320027E-1,1.198740605E0,-1.721413271E0,2.121422918E0
2.681908375E0,2.332839655E0,3.857286544E0,-3.398764265E0,5.645564530E0
2.691957375E0,3.960668240E0,6.269837782E0,-5.225213410E0,9.071968579E0
2.702006375E0,4.998967094E0,8.655580121E0,-6.010864016E0,1.166358545E1
2.712055375E0,6.293190976E0,1.207898865E1,-4.617875984E0,1.438162014E1
2.722104375E0,8.661747764E0,1.609707596E1,-2.507565569E0,1.845073478E1
2.732153375E0,1.222212965E1,1.911814284E1,-8.128260525E-1,2.270560558E1
2.742202375E0,1.509748743E1,2.162804846E1,1.940911900E0,2.644756597E1
2.752251375E0,1.659256433E1,2.527845584E1,6.206819415E0,3.086807619E1
2.762299375E0,1.720839192E1,2.724461484E1,1.079007170E1,3.398269321E1
2.772348375E0,1.507225084E1,2.697221412E1,1.281613192E1,3.345035601E1
2.782397375E0,1.284753030E1,2.646658667E1,1.065607690E1,3.129043336E1
2.792446375E0,1.290848167E1,2.614146043E1,6.892997189E0,2.995860916E1
2.802495375E0,1.247434930E1,2.524207680E1,2.751309677E0,2.829030817E1
2.812544375E0,1.089225413E1,2.226967981E1,-1.450655027E0,2.483312785E1
2.822593375E0,9.385906711E0,1.764019710E1,-5.183715720E0,2.064322424E1
2.832641375E0,7.973314134E0,1.224251188E1,-7.647796715E0,1.649065281E1
2.842690375E0,6.482134979E0,5.747132370E0,-7.720675827E0,1.160415613E1
2.852739375E0,5.428951453E0,-1.323797929E-1,-4.844465531E0,7.277354228E0
2.862788375E0,5.036363547E0,-4.047990559E0,-8.571363989E-1,6.518118451E0
2.872837375E0,4.535018599E0,-6.872798567E0,1.968204217E0,8.466143259E0
2.882886375E0,3.410673289E0,-8.725891135E0,3.484960994E0,9.995940251E0
2.892935375E0,1.856628964E0,-9.568816388E0,2.901407703E0,1.016993042E1
2.902984375E0,-2.558624625E-2,-9.712342728E0,5.430999148E-1,9.727549200E0
2.913032375E0,-1.844798877E0,-9.314606348E0,-1.536491568E0,9.619042606E0
2.923081375E0,-3.494070956E0,-8.721593431E0,-3.404914366E0,9.993406109E0
2.933130375E0,-5.039110569E0,-8.492651550E0,-5.964026649E0,1.153635036E1
2.943179375E0,-6.626968172E0,-9.071591388E0,-7.956178284E0,1.376630852E1
2.953228375E0,-7.676016548E0,-1.014233352E1,-8.253848923E0,1.516292126E1
2.963277375E0,-7.893898421E0,-1.092828467E1,-7.240472656E0,1.530246655E1
2.973326375E0,-7.443239477E0,-1.127128468E1,-5.524613070E0,1.459332114E1
2.983375375E0,-7.075557786E0,-1.185927250E1,-4.010630067E0,1.438023003E1
2.993423375E0,-7.155960510E0,-1.259884003E1,-2.750781381E0,1.474806222E1
3.003472375E0,-7.875783162E0,-1.293202023E1,-1.711560713E0,1.523793121E1
3.013521375E0,-8.608663816E0,-1.283381858E1,-1.458928252E0,1.552238589E1
3.023570375E0,-9.178017145E0,-1.241113622E1,-2.094090824E0,1.557746826E1
3.033619375E0,-9.334004486E0,-1.178846623E1,-3.614566868E0,1.546469105E1
3.043668875E0,-8.860561282E0,-1.090363983E1,-5.285556090E0,1.501119618E1
3.053717875E0,-8.161613774E0,-9.873443459E0,-6.361535572E0,1.430265570E1
3.063765875E0,-7.715987529E0,-9.232568159E0,-6.670242246E0,1.375750377E1
3.073814875E0,-7.362646134E0,-9.138087679E0,-6.211388429E0,1.327759582E1
3.083863875E0,-6.885305176E0,-9.194907997E0,-5.214771452E0,1.261537164E1
3.093912875E0,-6.248226473E0,-9.264513252E0,-4.106347817E0,1.190519350E1
3.103961875E0,-5.909236484E0,-9.515952880E0,-2.749466634E0,1.153394997E1
3.114010875E0,-5.941424822E0,-9.814504695E0,-1.073174133E0,1.152287872E1
3.124059875E0,-5.989810531E0,-9.818002499E0,5.585669696E-1,1.151446917E1
3.134107875E0,-5.947305366E0,-9.526578441E0,1.744394583E0,1.136525628E1
3.144156875E0,-5.904221327E0,-9.133904580E0,2.505348305E0,1.116086074E1
3.154205875E0,-5.705691399E0,-8.724161528E0,2.952142239E0,1.083425367E1
3.164254875E0,-5.611742431E0,-8.278008449E0,3.159689158E0,1.048812245E1
3.174303875E0,-5.733074495E0,-7.813396295E0,3.139299917E0,1.018687925E1
3.184352875E0,-5.873022923E0,-7.523919944E0,2.916072519E0,9.980242909E0
3.194401875E0,-5.937983150E0,-7.389395392E0,2.520006689E0,9.808834888E0
3.204450875E0,-5.936541812E0,-7.258966230E0,1.967432531E0,9.581540073E0
3.214498875E0,-6.058168575E0,-7.118165862E0,1.338966776E0,9.442590945E0
3.224547875E0,-5.966029905E0,-7.042386532E0,6.161094189E-1,9.250314141E0
3.234596875E0,-5.753469583E0,-7.108519126E0,-1.113731591E-1,9.145811084E0
3.244645875E0,-5.638319780E0,-7.331006851E0,-7.458410809E-1,9.278501512E0
3.254694875E0,-5.643109819E0,-7.727318848E0,-1.233542063E0,9.647682159E0
3.264743875E0,-5.708061275E0,-8.249262952E0,-1.616025980E0,1.016089773E1
3.274792875E0,-5.529659802E0,-8.831339822E0,-1.925004550E0,1.059600600E1
3.284840875E0,-5.250092728E0,-8.926633649E0,-1.862011911E0,1.052213620E1
3.294889875E0,-5.085660253E0,-8.489580592E0,-1.205703542E0,9.969485436E0
3.304938875E0,-4.462911905E0,-7.601706038E0,-4.700255066E-1,8.827482163E0
3.314987875E0,-3.933790929E0,-6.229999532E0,8.102720618E-2,7.368457820E0
3.325036875E0,-3.969968237E0,-4.273735768E0,5.654368633E-1,5.860476436E0
3.335085875E0,-3.912890056E0,-1.321354378E0,1.135210606E0,4.283151772E0
3.345134875E0,-3.366177147E0,3.088983457E0,1.998468821E0,4.986666724E0
3.355182875E0,-1.996076871E0,8.804160209E0,2.567248684E0,9.385538113E0
3.365231875E0,1.425024927E0,1.469566443E1,2.434605766E0,1.496397522E1
3.375280875E0,5.600763114E0,1.958477871E1,3.130544881E0,2.060903724E1
3.385329875E0,9.447969058E0,2.408219036E1,4.619164710E0,2.627836933E1
3.395378875E0,1.257279770E1,2.655886743E1,6.769810973E0,3.015425379E1
3.405427875E0,1.557942430E1,2.645605700E1,8.680538961E0,3.190600524E1
3.415476875E0,1.671371163E1,2.360407523E1,9.424220007E0,3.041901456E1
3.425525875E0,1.472980047E1,1.895736429E1,9.519764680E0,2.582585143E1
3.435573875E0,1.272987613E1,1.527068663E1,9.455678027E0,2.201484643E1
3.445622875E0,1.168558564E1,1.290900792E1,8.673391909E0,1.945310064E1
3.455671875E0,1.125515689E1,1.164656366E1,5.600904032E0,1.713741893E1
3.465720875E0,1.085337482E1,1.098763391E1,1.628576444E0,1.552984563E1
3.475769875E0,1.074748642E1,1.038394515E1,-1.662627704E0,1.503659244E1
3.485818875E0,1.073968390E1,9.713629115E0,-3.832573287E0,1.497945322E1
3.495867875E0,1.035732979E1,8.749181764E0,-4.585590582E0,1.431258547E1
3.505915875E0,9.424680768E0,7.407835171E0,-4.104619088E0,1.267077454E1
3.515964875E0,7.934182228E0,5.731489899E0,-2.891839319E0,1.020607460E1
3.526013875E0,6.277660772E0,4.277473893E0,-1.501873566E0,7.743476730E0
3.536062875E0,5.112039966E0,3.244187856E0,-5.629653914E-1,6.080677388E0
3.546111875E0,4.507516805E0,2.546334947E0,-2.412334599E-1,5.182636683E0
3.556160875E0,3.969332644E0,2.085785438E0,-1.012761140E-1,4.485126463E0
3.566209875E0,3.526564518E0,1.656971692E0,-6.573381364E-2,3.896990303E0
3.576258875E0,3.031692438E0,1.235205011E0,-2.002143650E-1,3.279782958E0
3.586306875E0,2.362528893E0,8.470083636E-1,-6.418699121E-1,2.590552629E0
3.596355875E0,1.681635833E0,2.350206470E-1,-1.192639474E0,2.074975347E0
3.606404875E0,9.345932221E-1,-5.076546782E-1,-1.576622179E0,1.901818934E0
3.616453875E0,2.009518450E-1,-1.139211856E0,-1.822561916E0,2.158684144E0
3.626502875E0,-3.330258286E-1,-1.709280884E0,-2.110154294E0,2.735927354E0
3.636551875E0,-7.527208418E-1,-2.306479822E0,-2.518733751E0,3.497207106E0
3.646600875E0,-1.123225569E0,-2.909028963E0,-2.948291262E0,4.291445742E0
3.656648875E0,-1.448260592E0,-3.387135322E0,-3.243358721E0,4.908107601E0
3.666697875E0,-1.551949267E0,-3.812655916E0,-3.349702032E0,5.307108004E0
3.676746875E0,-1.388164664E0,-4.265099430E0,-3.181748949E0,5.499236370E0
3.686795875E0,-1.174032610E0,-4.690151078E0,-2.764446616E0,5.569383700E0
3.696844875E0,-9.721890646E-1,-5.114688170E0,-2.511427070E0,5.780350559E0
3.706893875E0,-8.798264462E-1,-5.574939471E0,-2.573143262E0,6.202830880E0
3.716942875E0,-8.442204112E-1,-6.084826616E0,-2.739754409E0,6.726371776E0
3.726991875E0,-6.516166359E-1,-6.521723553E0,-2.705684438E0,7.090712984E0
3.737039875E0,-5.069372249E-1,-6.929475628E0,-2.410759651E0,7.354344289E0
3.747088875E0,-6.836067528E-1,-7.327062319E0,-2.097419643E0,7.651949397E0
3.757137875E0,-8.268816626E-1,-7.563807310E0,-2.037493869E0,7.876947097E0
3.767186875E0,-8.535683548E-1,-7.652624177E0,-2.130449980E0,7.989371242E0
3.777235875E0,-8.353279656E-1,-7.615843436E0,-2.144191521E0,7.955903552E0
3.787284875E0,-8.074326539E-1,-7.411882029E0,-2.116743376E0,7.750390005E0
3.797333875E0,-7.346465135E-1,-7.064282600E0,-2.042865560E0,7.390337871E0
3.807381875E0,-6.004049671E-1,-6.501557091E0,-1.796266987E0,6.771802258E0
3.817430875E0,-4.233126855E-1,-5.724916459E0,-1.341034352E0,5.895102648E0
3.827479875E0,-1.567849016E-1,-4.677421104E0,-8.807035285E-1,4.762193654E0
3.837528875E0,1.376668453E-1,-3.556995183E0,-5.196356962E-1,3.597386294E0
3.847577875E0,2.940178835E-1,-2.620450745E0,-1.713111395E-1,2.642452673E0
3.857626875E0,2.824655396E-1,-1.714928125E0,2.090958470E-1,1.750567430E0
3.867675875E0,2.460596055E-1,-5.554363704E-1,6.316693714E-1,8.763909434E-1
3.877723875E0,5.443108732E-1,8.085360235E-1,9.859557492E-1,1.386403104E0
3.887772875E0,1.254728279E0,2.253387104E0,1.361594331E0,2.916510864E0
3.897821875E0,1.993139230E0,3.597918091E0,2.067274908E0,4.603394848E0
3.907870875E0,2.312376155E0,4.567849545E0,3.007179741E0,5.937631089E0
3.917919875E0,2.439672378E0,5.036272915E0,3.793164808E0,6.760484113E0
3.927968875E0,2.323054340E0,5.119936631E0,4.193495597E0,7.013967343E0
3.938017875E0,1.861931804E0,5.013819022E0,4.223372530E0,6.814840186E0
3.948066875E0,1.450745659E0,4.654279579E0,3.883637606E0,6.232946528E0
3.958114875E0,1.036661634E0,4.113332609E0,3.506767015E0,5.503779374E0
3.968163875E0,4.270625049E-1,3.610420023E0,3.246603341E0,4.874212590E0
3.978212875E0,-1.282680309E-1,3.157584745E0,2.935403999E0,4.313164818E0
3.988261875E0,-5.694755352E-1,2.785006011E0,2.512802335E0,3.794039594E0
3.998310875E0,-9.278806186E-1,2.430815601E0,2.030107666E0,3.300176369E0
4.008359875E0,-1.174085235E0,2.160698211E0,1.434594480E0,2.846955254E0
4.018408875E0,-1.359655395E0,1.900555587E0,7.285934758E-1,2.447779153E0
4.028456875E0,-1.620483313E0,1.481846414E0,6.376381360E-2,2.196793296E0
4.038505750E0,-2.044065555E0,1.022313736E0,-3.854999844E-1,2.317744508E0
4.048554750E0,-2.425015163E0,5.764769912E-1,-6.539222661E-1,2.576943653E0
4.058603750E0,-2.664718845E0,1.894223052E-1,-7.627283514E-1,2.778193994E0
4.068652750E0,-2.892057420E0,-1.438163620E-1,-7.849126875E-1,3.000127863E0
4.078701750E0,-3.076379784E0,-3.828680795E-1,-8.111397886E-1,3.204473170E0
4.088750750E0,-3.114509477E0,-5.667045397E-1,-8.428328669E-1,3.275925909E0
4.098798750E0,-3.065089980E0,-6.402864861E-1,-8.914325845E-1,3.255671270E0
4.108847750E0,-3.015837713E0,-6.101265478E-1,-8.646441507E-1,3.196113424E0
4.118896750E0,-3.005660634E0,-5.828112799E-1,-6.920834613E-1,3.138892217E0
4.128945750E0,-2.985790626E0,-5.739632732E-1,-5.174604589E-1,3.084176523E0
4.138994750E0,-2.866755933E0,-5.110326147E-1,-5.448909169E-1,2.962490511E0
4.149043750E0,-2.686072876E0,-3.650089288E-1,-6.642074454E-1,2.790947966E0
4.159092750E0,-2.546329685E0,-2.068475926E-1,-6.832383782E-1,2.644502878E0
4.169141750E0,-2.407216238E0,-1.067344898E-1,-5.123938465E-1,2.463458894E0
4.179189750E0,-2.230135067E0,2.960620701E-2,-3.135756505E-1,2.252267442E0
4.189238750E0,-2.042081010E0,2.388745469E-1,-1.727045310E-1,2.063245684E0
4.199287750E0,-1.937250373E0,4.097722882E-1,-3.524701595E-2,1.980427906E0
4.209336750E0,-1.805010329E0,5.775055164E-1,1.159467781E-1,1.898688643E0
4.219385750E0,-1.584313021E0,7.637849432E-1,3.514036274E-1,1.793571771E0
4.229434750E0,-1.311663787E0,1.021454780E0,6.581754577E-1,1.788023124E0
4.239483750E0,-1.173391755E0,1.203656359E0,9.398943079E-1,1.925886329E0
4.249531750E0,-1.195776066E0,1.152830021E0,1.155868235E0,2.023593051E0
4.259580750E0,-1.356371598E0,9.571400857E-1,1.255114195E0,2.081146967E0
4.269629750E0,-1.600128570E0,7.368573457E-1,1.245806597E0,2.157638586E0
4.279678750E0,-1.838031895E0,4.223326921E-1,1.103566060E0,2.185082195E0
4.289727750E0,-2.045702190E0,-1.071981740E-1,7.758307922E-1,2.190502755E0
4.299776750E0,-2.213826597E0,-6.711580306E-1,4.043080652E-1,2.348392283E0
4.309825750E0,-2.429995236E0,-1.157904820E0,5.453581552E-2,2.692321410E0
4.319874750E0,-2.629194671E0,-1.598725238E0,-2.407649517E-1,3.086511748E0
4.329922750E0,-2.699550709E0,-1.983918171E0,-4.724240345E-1,3.383295702E0
4.339971750E0,-2.685793964E0,-2.339000866E0,-6.760884029E-1,3.625122039E0
4.350020750E0,-2.669184948E0,-2.699526735E0,-8.576906419E-1,3.891995133E0
4.360069750E0,-2.638915667E0,-3.083549640E0,-1.002709776E0,4.180619712E0
4.370118750E0,-2.663264642E0,-3.424318351E0,-1.135455605E0,4.484216114E0
4.380167750E0,-2.663787383E0,-3.724605035E0,-1.176177953E0,4.727773310E0
4.390216750E0,-2.533844125E0,-3.942833648E0,-1.114260106E0,4.817455636E0
4.400264750E0,-2.446822354E0,-4.171287287E0,-1.012239568E0,4.940769799E0
4.410313750E0,-2.452946143E0,-4.360489152E0,-9.575657630E-1,5.093892678E0
4.420362750E0,-2.327728019E0,-4.278394829E0,-9.484768510E-1,4.962115313E0
4.430411750E0,-1.848774984E0,-3.882870451E0,-9.641139867E-1,4.407285748E0
4.440460750E0,-1.330828621E0,-3.343037376E0,-9.827315944E-1,3.729981917E0
4.450509750E0,-1.145732963E0,-2.694806278E0,-1.028003150E0,3.103461837E0
4.460558750E0,-8.167864448E-1,-1.707417376E0,-1.331570048E0,2.314193809E0
4.470606750E0,-2.141878948E-1,-1.391344965E-1,-1.773914251E0,1.792207196E0
4.480655750E0,5.683832753E-1,2.236120861E0,-1.951092487E0,3.021598575E0
4.490704750E0,1.672498389E0,5.118113469E0,-1.514511300E0,5.593396179E0
4.500753750E0,2.729822036E0,8.359571260E0,-5.891109969E-1,8.813705905E0
4.510802750E0,3.517188216E0,1.192088461E1,4.221344715E-1,1.243608863E1
4.520851750E0,4.323144740E0,1.583362147E1,1.082588589E0,1.644886462E1
4.530900750E0,5.113073169E0,1.935545091E1,1.860906202E0,2.010571981E1
4.540949750E0,6.418321391E0,2.202702503E1,2.742320752E0,2.310638450E1
4.550997750E0,7.682972395E0,2.368713376E1,3.764476613E0,2.518490926E1
4.561046750E0,8.056400730E0,2.494481839E1,4.909187776E0,2.666926474E1
4.571095750E0,8.150998739E0,2.556529217E1,5.454262295E0,2.738196343E1
4.581144750E0,8.537389766E0,2.595547453E1,4.665705038E0,2.771899143E1
4.591193750E0,9.382137596E0,2.684073596E1,3.182834192E0,2.861083792E1
4.601242750E0,1.058648685E1,2.652857885E1,1.533979604E0,2.860406078E1
4.611291750E0,1.147016252E1,2.481737014E1,-2.443721356E-1,2.734092549E1
4.621339750E0,1.253214903E1,2.144170238E1,-1.971327946E0,2.491360058E1
4.631388750E0,1.358293227E1,1.602632465E1,-3.766162950E0,2.134298747E1
4.641437750E0,1.404483424E1,9.694338566E0,-4.550201479E0,1.766187710E1
4.651486750E0,1.262780714E1,3.364169213E0,-3.422669436E0,1.350902712E1
4.661535750E0,9.894477063E0,-2.272354887E0,-1.978368579E0,1.034302738E1
4.671584750E0,8.261111750E0,-6.373213631E0,-1.947535626E0,1.061398673E1
4.681633750E0,8.170227892E0,-8.632378954E0,-2.668415455E0,1.218158574E1
4.691681750E0,7.491917548E0,-9.940442026E0,-2.884242616E0,1.277732647E1
4.701730750E0,5.867180970E0,-1.088713898E1,-2.745822065E0,1.266858897E1
4.711779750E0,3.968751431E0,-1.181207144E1,-2.592603380E0,1.272782824E1
4.721828750E0,2.279049949E0,-1.222580287E1,-2.714693828E0,1.272925321E1
4.731877750E0,1.044200449E0,-1.178094671E1,-3.263154762E0,1.226903578E1
4.741926750E0,-7.351908892E-2,-1.123685394E1,-3.943271019E0,1.190889070E1
4.751975750E0,-1.568805621E0,-1.117026350E1,-4.495499315E0,1.214271189E1
4.762024750E0,-2.944619503E0,-1.138524224E1,-4.726761079E0,1.267425718E1
4.772072750E0,-3.801817225E0,-1.134752769E1,-4.749525167E0,1.287548789E1
4.782121750E0,-4.537858884E0,-1.109765746E1,-4.483495566E0,1.280046471E1
4.792170750E0,-5.054387589E0,-1.081000135E1,-4.177323660E0,1.264329846E1
4.802219750E0,-5.187697089E0,-1.044756870E1,-3.791022972E0,1.226522515E1
4.812268750E0,-5.288647513E0,-1.045842698E1,-2.905197283E0,1.207429744E1
4.822317750E0,-5.591113454E0,-1.073827823E1,-1.929262492E0,1.225941364E1
4.832366750E0,-5.436910683E0,-1.083589165E1,-1.342800503E0,1.219752675E1
4.842414750E0,-4.895908457E0,-1.066114059E1,-9.198425974E-1,1.176758041E1
4.852463750E0,-4.417989501E0,-1.036387399E1,-5.410810174E-1,1.127924129E1
4.862512750E0,-3.992424761E0,-1.023481893E1,-3.017824012E-1,1.099008856E1
4.872561750E0,-3.626506005E0,-1.031950766E1,-2.527094977E-1,1.094109895E1
4.882610750E0,-3.393305304E0,-1.047625046E1,-9.794378579E-2,1.101253548E1
4.892659750E0,-3.386761977E0,-1.069160692E1,1.364020926E-1,1.121602518E1
4.902708750E0,-3.440778263E0,-1.085885015E1,3.631296337E-1,1.139672957E1
4.912756750E0,-3.403780006E0,-1.106911486E1,4.876880448E-1,1.159089564E1
4.922805750E0,-3.472878892E0,-1.133232961E1,6.883728182E-1,1.187250771E1
4.932854750E0,-3.816916782E0,-1.157466396E1,9.140776813E-1,1.222199809E1
4.942903750E0,-4.088814357E0,-1.158343361E1,1.052142137E0,1.232888235E1
4.952952750E0,-4.040568396E0,-1.138620469E1,1.132155875E0,1.213481055E1
4.963001750E0,-3.969434386E0,-1.116931509E1,1.342692037E0,1.192949415E1
4.973050750E0,-4.046559160E0,-1.098919044E1,1.590871258E0,1.181811402E1
4.983099750E0,-4.106700405E0,-1.085409286E1,1.610351257E0,1.171620891E1
4.993147750E0,-4.093564635E0,-1.067985753E1,1.393394414E0,1.152207343E1
5.003196750E0,-4.113963231E0,-1.045640735E1,1.230737738E0,1.130379863E1
5.013245750E0,-4.158390083E0,-1.034990149E1,1.213235267E0,1.121983105E1
5.023294750E0,-4.206811753E0,-1.037264014E1,1.129208951E0,1.125006851E1
5.033343750E0,-4.182311920E0,-1.033846433E1,1.016130817E0,1.119857579E1
5.043393125E0,-4.198838490E0,-1.024737641E1,1.002463608E0,1.111952792E1
5.053442125E0,-4.234627250E0,-1.022441322E1,9.327536150E-1,1.110588686E1
5.063490125E0,-4.118905298E0,-1.012854344E1,7.668815555E-1,1.096087955E1
5.073539125E0,-3.924410825E0,-9.792636108E0,5.572097578E-1,1.056443112E1
5.083588125E0,-3.766970743E0,-9.270386195E0,3.613245982E-1,1.001302573E1
5.093637125E0,-3.568372987E0,-8.473167458E0,3.792229253E-1,9.201720631E0
5.103686125E0,-3.334078857E0,-7.394538603E0,7.034796846E-1,8.141877341E0
5.113735125E0,-3.262220085E0,-5.989187218E0,1.176534634E0,6.920742529E0
5.123784125E0,-3.315801630E0,-3.736763735E0,1.849124063E0,5.327025761E0
5.133832125E0,-3.098016236E0,-3.415341121E-1,2.510023738E0,4.001820750E0
5.143881125E0,-2.069267347E0,4.576140897E0,2.603361672E0,5.656891802E0
5.153930125E0,-7.479644242E-1,9.982401645E0,2.777370717E0,1.038853125E1
5.163979125E0,7.024581760E-2,1.460519397E1,2.990502897E0,1.490837794E1
5.174028125E0,8.113830328E-2,1.762454878E1,3.070426149E0,1.789018781E1
5.184077125E0,1.533218881E-1,2.023232042E1,3.815979474E0,2.058960895E1
5.194126125E0,1.838813667E0,2.392549667E1,4.880889006E0,2.448741931E1
5.204174125E0,3.935967262E0,2.659659834E1,5.226235503E0,2.738949468E1
5.214223125E0,5.035546691E0,2.648734662E1,4.451657184E0,2.732679113E1
5.224272125E0,5.023032480E0,2.421258093E1,3.715689200E0,2.500572488E1
5.234321125E0,4.993818036E0,2.136837829E1,2.775283846E0,2.211895137E1
5.244370125E0,5.835316569E0,1.890985800E1,6.856761555E-1,1.980161106E1
5.254419125E0,6.827987260E0,1.716684277E1,-1.755769172E0,1.855814178E1
5.264468125E0,7.654033940E0,1.525086808E1,-3.776495565E0,1.747670253E1
5.274517125E0,8.161999691E0,1.269251593E1,-5.196946800E0,1.596015212E1
5.284565125E0,7.942263665E0,1.021632302E1,-5.561061105E0,1.408467993E1
5.294614125E0,7.171298926E0,8.173864276E0,-4.891904576E0,1.192351944E1
5.304663125E0,6.105635687E0,6.489957969E0,-3.882281052E0,9.719590925E0
5.314712125E0,5.110819652E0,5.169426879E0,-2.961442820E0,7.849432804E0
5.324761125E0,3.990570024E0,4.127802129E0,-2.173037590E0,6.138851024E0
5.334810125E0,2.963551326E0,3.205106821E0,-1.895858518E0,4.759162292E0
5.344859125E0,2.426313537E0,2.297063466E0,-2.245146623E0,4.025441753E0
5.354907125E0,2.098046173E0,1.576466058E0,-2.694238513E0,3.761112088E0
5.364956125E0,1.718591990E0,9.766107291E-1,-2.967439139E0,3.565532497E0
5.375005125E0,1.460885023E0,1.875728309E-1,-3.164767465E0,3.490719371E0
5.385054125E0,1.261915969E0,-7.538136864E-1,-3.268545018E0,3.583860142E0
5.395103125E0,1.060973187E0,-1.729994645E0,-3.188178547E0,3.779289354E0
5.405152125E0,8.344342187E-1,-2.647768936E0,-2.976014081E0,4.069842825E0
5.415201125E0,7.793937930E-1,-3.463290043E0,-2.759339658E0,4.496197055E0
5.425249125E0,7.905763006E-1,-4.176909385E0,-2.446124781E0,4.904600834E0
5.435298125E0,6.161193591E-1,-4.824171014E0,-2.048823434E0,5.277301063E0
5.445347125E0,4.876305959E-1,-5.301082787E0,-1.798043956E0,5.618916655E0
5.455396125E0,5.619054374E-1,-5.797375156E0,-1.725244367E0,6.074682259E0
5.465445125E0,4.955793008E-1,-6.332947950E0,-1.746523554E0,6.588032567E0
5.475494125E0,2.383971217E-1,-6.682098060E0,-1.720115190E0,6.904061409E0
5.485543125E0,2.922233731E-2,-6.889635040E0,-1.684487520E0,7.092631608E0
5.495591125E0,-4.659529209E-2,-6.948214200E0,-1.793110660E0,7.176008468E0
5.505640125E0,-3.402962565E-2,-6.888685452E0,-1.980659518E0,7.167855844E0
5.515689125E0,-6.024532467E-2,-6.794362847E0,-2.122128807E0,7.118316280E0
5.525738125E0,-3.533706307E-2,-6.598814998E0,-2.224417659E0,6.963737647E0
5.535787125E0,6.872875750E-2,-6.116384039E0,-2.216515878E0,6.505983399E0
5.545836125E0,1.244053602E-2,-5.443804550E0,-1.969729464E0,5.789213842E0
5.555885125E0,2.448433846E-2,-4.723352153E0,-1.698495987E0,5.019516277E0
5.565934125E0,1.319383281E-1,-3.913907472E0,-1.517121058E0,4.199730435E0
5.575982125E0,2.646400103E-1,-2.816827143E0,-1.421455786E0,3.166241627E0
5.586031125E0,3.264933193E-1,-1.502504627E0,-1.230415556E0,1.969274101E0
5.596080125E0,5.901574293E-1,-1.947842020E-1,-7.821060971E-1,9.989577688E-1
5.606129125E0,1.092958626E0,1.146960002E0,-1.762923825E-1,1.594099999E0
5.616178125E0,1.495445868E0,2.367274493E0,3.190615813E-1,2.818181535E0
5.626227125E0,2.069525501E0,3.229599638E0,8.259075165E-1,3.923693776E0
5.636276125E0,2.728054715E0,3.728727906E0,1.575183764E0,4.881280387E0
5.646324125E0,2.949989001E0,3.637876208E0,2.515139467E0,5.316249143E0
5.656373125E0,2.413242671E0,3.125208127E0,3.100332903E0,5.020232080E0
5.666422125E0,1.749093990E0,2.259867573E0,3.203448551E0,4.292832847E0
5.676471125E0,1.307137750E0,1.320329361E0,3.213145573E0,3.711628105E0
5.686520125E0,8.063439023E-1,5.937783176E-1,3.271540546E0,3.421365331E0
5.696569125E0,3.201815423E-1,6.833699405E-2,3.360086102E0,3.375998338E0
5.706618125E0,1.517937183E-2,-2.759453094E-1,3.274659451E0,3.286300465E0
5.716666125E0,-1.764952809E-1,-3.489285010E-1,3.043150642E0,3.068170059E0
5.726715125E0,-2.620388764E-1,-2.670195347E-1,2.642360262E0,2.668713465E0
5.736764125E0,-3.855671543E-1,-1.584624678E-1,2.167516065E0,2.207237702E0
5.746813125E0,-6.308169204E-1,5.818973601E-2,1.631043384E0,1.749748140E0
5.756862125E0,-7.896606266E-1,2.708751887E-1,9.802471125E-1,1.287564241E0
5.766911125E0,-8.991006231E-1,5.072863036E-1,3.137686086E-1,1.078968055E0
5.776960125E0,-1.024437445E0,7.560408908E-1,-2.250493902E-1,1.292949007E0
5.787008125E0,-1.128699147E0,9.513104117E-1,-5.752894217E-1,1.584269921E0
5.797057125E0,-1.340077162E0,1.055803664E0,-6.802633148E-1,1.836650853E0
5.807106125E0,-1.633134933E0,1.074573226E0,-6.359536994E-1,2.055790465E0
5.817155125E0,-1.778996651E0,1.042601820E0,-5.873598289E-1,2.144024069E0
5.827204125E0,-1.830517638E0,1.006341482E0,-5.246273911E-1,2.153776195E0
5.837253125E0,-1.904231731E0,8.647628492E-1,-4.897212678E-1,2.147961869E0
5.847302125E0,-1.917868608E0,6.188856769E-1,-5.739977717E-1,2.095402806E0
5.857351125E0,-1.999410369E0,2.446393168E-1,-6.336329395E-1,2.111629920E0
5.867399125E0,-2.004709116E0,-1.013304931E-1,-5.110063388E-1,2.071292829E0
5.877448125E0,-1.890586669E0,-4.397544712E-1,-3.206419740E-1,1.967361996E0
5.887497125E0,-1.874392220E0,-8.276400465E-1,-2.810944040E-1,2.068175115E0
5.897546125E0,-1.922625318E0,-1.273262199E0,-3.492589052E-1,2.332309268E0
5.907595125E0,-1.961548478E0,-1.773157037E0,-4.504565934E-1,2.682288100E0
5.917644125E0,-2.037662854E0,-2.328840744E0,-4.675696760E-1,3.129567146E0
5.927693125E0,-2.229998826E0,-2.887952090E0,-4.636550017E-1,3.678061718E0
5.937741125E0,-2.513833199E0,-3.362699223E0,-4.768895531E-1,4.225461758E0
5.947790125E0,-2.676702129E0,-3.756760628E0,-6.040986167E-1,4.652195163E0
5.957839125E0,-2.705934699E0,-4.129772640E0,-8.587208482E-1,5.011437533E0
5.967888125E0,-2.714402636E0,-4.494994993E0,-1.114630746E0,5.367994351E0
5.977937125E0,-2.830934721E0,-4.831782920E0,-1.325778966E0,5.754824710E0
5.987986125E0,-2.871117371E0,-5.068813840E0,-1.503824928E0,6.016450624E0
5.998035125E0,-2.815924918E0,-5.229535671E0,-1.563057223E0,6.141711843E0
6.008083125E0,-2.764217990E0,-5.308070210E0,-1.510886026E0,6.172461991E0
6.018132125E0,-2.753222886E0,-5.221506860E0,-1.618374222E0,6.120743849E0
6.028181125E0,-2.586428720E0,-5.062266127E0,-1.726961110E0,5.941257993E0
6.038230125E0,-2.514405057E0,-4.747439758E0,-1.806418338E0,5.667765367E0
6.048278542E0,-2.458822010E0,-4.239901439E0,-1.966885232E0,5.281212683E0
6.058327542E0,-2.077985545E0,-3.412062002E0,-2.394703197E0,4.657767108E0
6.068376542E0,-1.508683672E0,-2.233612406E0,-2.774895591E0,3.868487604E0
6.078424542E0,-8.140759680E-1,-6.672281170E-1,-2.996813797E0,3.176288081E0
6.088473542E0,-2.529710144E-2,1.031047722E0,-2.930306396E0,3.106508478E0
6.098522542E0,8.188031495E-1,2.902996391E0,-2.635293902E0,4.005321534E0
6.108571542E0,1.726815222E0,5.299879430E0,-2.078462386E0,5.949001485E0
6.118620542E0,2.639864962E0,8.109130921E0,-1.378849465E0,8.638756690E0
6.128669542E0,3.653470148E0,1.120594555E1,-7.951499927E-1,1.181326895E1
6.138718542E0,4.956466023E0,1.426645424E1,-1.083646935E-1,1.510331139E1
6.148767542E0,6.350082046E0,1.697560023E1,9.825936002E-1,1.815103400E1
6.158815542E0,7.264946762E0,1.937301361E1,2.096708622E0,2.079637697E1
6.168864542E0,7.663775402E0,2.165027490E1,3.216777864E0,2.319084984E1
6.178913542E0,8.564467637E0,2.358201485E1,4.146616130E0,2.542943090E1
6.188962542E0,1.003791511E1,2.477922524E1,4.145665373E0,2.705469062E1
6.199011542E0,1.078664874E1,2.501750162E1,3.373682048E0,2.745193816E1
6.209060542E0,1.084060918E1,2.474207905E1,2.109956074E0,2.709504010E1
6.219109542E0,1.113537668E1,2.423810052E1,4.068703151E-1,2.667672532E1
6.229157542E0,1.120931823E1,2.282675340E1,-7.576143765E-1,2.544176616E1
6.239206542E0,1.096353520E1,2.035118496E1,-1.581401693E0,2.317046967E1
6.249255542E0,1.039560800E1,1.708584480E1,-2.190703783E0,2.011949158E1
6.259304542E0,9.810038592E0,1.304489254E1,-2.324945329E0,1.648670523E1
6.269353542E0,9.145660408E0,8.335425768E0,-1.992834005E0,1.253370713E1
6.279402542E0,8.022069973E0,3.612713301E0,-1.227524693E0,8.883249457E0
6.289451542E0,6.231656633E0,-5.268820775E-1,-4.150189948E-1,6.267646279E0
6.299499542E0,3.817763459E0,-4.240355183E0,4.503794467E-1,5.723527894E0
6.309548542E0,1.431293142E0,-7.839292443E0,1.180335324E0,8.055823828E0
6.319597542E0,-7.932715747E-1,-1.099911083E1,1.295070559E0,1.110346462E1
6.329646542E0,-2.768582937E0,-1.295181188E1,8.738944459E-1,1.327321265E1
6.339695542E0,-4.080457808E0,-1.325593609E1,3.655941985E-1,1.387456798E1
6.349744542E0,-4.625407197E0,-1.210929827E1,1.321002595E-1,1.296329228E1
6.359793542E0,-5.167731771E0,-1.067819692E1,3.550557252E-1,1.186825201E1
6.369842542E0,-6.032760669E0,-9.686707950E0,4.383037039E-1,1.142009730E1
6.379890542E0,-6.638808199E0,-9.053018877E0,-3.174723081E-1,1.123083762E1
6.389939542E0,-6.932571144E0,-8.926006243E0,-1.446730376E0,1.139417215E1
6.399988542E0,-7.335551891E0,-9.191618938E0,-2.151267237E0,1.195508808E1
6.410037542E0,-7.984563593E0,-9.464609649E0,-2.581359184E0,1.264893303E1
6.420086542E0,-8.179693365E0,-9.745134498E0,-2.946121361E0,1.305965777E1
6.430135542E0,-7.801539311E0,-9.793505005E0,-2.843088743E0,1.283977841E1
6.440184542E0,-7.074780107E0,-9.620182423E0,-2.137586507E0,1.213135192E1
6.450232542E0,-6.264016879E0,-9.473843572E0,-1.321977691E0,1.143412631E1
6.460281542E0,-5.508673561E0,-9.511987299E0,-7.993700013E-1,1.102099719E1
6.470330542E0,-4.601996993E0,-9.614534013E0,-5.233755022E-1,1.067199899E1
6.480379542E0,-3.693658061E0,-9.462889398E0,-4.001202893E-1,1.016609472E1
6.490428542E0,-2.782609237E0,-9.123355619E0,-4.770327368E-1,9.550188069E0
6.500477542E0,-1.903140641E0,-9.097576414E0,-7.859616780E-1,9.327677989E0
6.510526542E0,-1.136339411E0,-9.461465601E0,-1.197861183E0,9.604450531E0
6.520574542E0,-4.618543151E-1,-9.827227067E0,-1.535861238E0,9.957237115E0
6.530623542E0,-8.829295635E-2,-1.038766515E1,-1.711270691E0,1.052804969E1
6.540672542E0,6.505319774E-2,-1.115573902E1,-1.733711135E0,1.128984054E1
6.550721542E0,1.619857076E-1,-1.172450938E1,-1.468172700E0,1.181718624E1
6.560770542E0,1.032428250E-1,-1.204953505E1,-7.688381070E-1,1.207447995E1
6.570819542E0,5.359616339E-2,-1.209016384E1,-6.571042478E-2,1.209046121E1
6.580868542E0,-1.459006020E-1,-1.198728325E1,3.336385437E-1,1.199281291E1
6.590916542E0,-5.620013317E-1,-1.189073637E1,3.381140757E-1,1.190881094E1
6.600965542E0,-1.057113440E0,-1.178461408E1,-2.437043470E-1,1.183444167E1
6.611014542E0,-1.951533659E0,-1.158967025E1,-1.072539053E0,1.180166430E1
6.621063542E0,-2.810554543E0,-1.132726592E1,-1.832968206E0,1.181380305E1
6.631112542E0,-3.222757226E0,-1.105620772E1,-2.832756128E0,1.185961216E1
6.641161542E0,-3.812640129E0,-1.084216688E1,-3.422234988E0,1.199168461E1
6.651210542E0,-4.244979746E0,-1.096839657E1,-3.162871798E0,1.217905310E1
6.661259542E0,-3.668801547E0,-1.105082243E1,-1.855497528E0,1.179082916E1
6.671307542E0,-3.236897255E0,-1.080687309E1,-9.221936166E-2,1.128160069E1
6.681356542E0,-3.659344261E0,-1.060651473E1,1.483869551E0,1.131772168E1
6.691405542E0,-3.761142823E0,-1.060129200E1,1.869365369E0,1.140298708E1
6.701454542E0,-3.576207087E0,-1.060023015E1,8.298707592E-1,1.121796870E1
6.711503542E0,-3.370568698E0,-1.036664908E1,-6.343375289E-1,1.091927336E1
6.721552542E0,-3.175576043E0,-9.895507343E0,-1.316934468E0,1.047567015E1
6.731601542E0,-2.802319617E0,-8.836349716E0,-1.291179821E0,9.359552173E0
6.741649542E0,-2.539893070E0,-6.849765215E0,-6.115509295E-1,7.331052779E0
6.751698542E0,-2.267363119E0,-3.928041362E0,-1.463199936E-2,4.535488788E0
6.761747542E0,-1.849448583E0,4.712317872E-1,-1.032537154E-1,1.911329587E0
6.771796542E0,-3.956614950E-1,6.310253152E0,-3.259238736E-1,6.331040138E0
6.781845542E0,2.354085221E0,1.147197048E1,-8.530093610E-1,1.174203768E1
6.791894542E0,4.880818255E0,1.482676602E1,-1.020288845E0,1.564277363E1
6.801943542E0,6.774612122E0,1.635761619E1,2.547207937E-1,1.770683087E1
6.811991542E0,8.221368810E0,1.743627078E1,2.291805796E0,1.941305791E1
6.822040542E0,9.166390541E0,1.821236937E1,4.207647028E0,2.081867928E1
6.832089542E0,9.970642895E0,1.757918140E1,5.384602661E0,2.091495361E1
6.842138542E0,9.324689287E0,1.598687232E1,5.873729267E0,1.941727613E1
6.852187542E0,8.230620859E0,1.494694735E1,5.650596009E0,1.797452614E1
6.862236542E0,8.240452952E0,1.448817715E1,4.011835470E0,1.714372089E1
6.872285542E0,8.468807774E0,1.423277779E1,1.893309717E0,1.666965178E1
6.882333542E0,8.048720412E0,1.367402721E1,8.903004174E-1,1.589193366E1
6.892382542E0,7.078543959E0,1.269058401E1,5.752128232E-1,1.454261245E1
6.902431542E0,5.830548164E0,1.165245064E1,1.863543443E-1,1.303110224E1
6.912480542E0,4.535303943E0,1.064457309E1,-3.309033624E-1,1.157520692E1
6.922529542E0,3.091423793E0,9.777256762E0,-9.507771456E-1,1.029833132E1
6.932578542E0,1.760825844E0,9.261278572E0,-1.333229488E0,9.520992034E0
6.942627542E0,1.613366666E0,9.315013899E0,-1.529055079E0,9.576557073E0
6.952675542E0,2.301562314E0,9.616869391E0,-1.195259830E0,9.960422281E0
6.962724542E0,2.595161537E0,9.665476125E0,-7.518232942E-1,1.003601168E1
6.972773542E0,2.622048789E0,9.321272759E0,-6.585835203E-1,9.705410756E0
6.982822542E0,2.632693645E0,8.615085229E0,-8.450114664E-1,9.047917645E0
6.992871542E0,2.170242621E0,7.499652244E0,-8.781360161E-1,7.856580661E0
7.002920542E0,1.410989270E0,6.365598217E0,-8.174361435E-1,6.571143982E0
7.012969542E0,7.513315433E-1,5.339365093E0,-7.724475201E-1,5.447016968E0
7.023018542E0,1.984176618E-1,4.288683590E0,-6.166649774E-1,4.337332382E0
7.033066542E0,-3.875733340E-1,3.301585879E0,-4.933132124E-1,3.360660699E0
7.043116250E0,-8.302139908E-1,2.365688143E0,-4.234518492E-1,2.542645695E0
7.053165250E0,-1.108868315E0,1.424049026E0,-4.091518621E-1,1.850651187E0
7.063214250E0,-1.464783069E0,3.033588105E-1,-3.379936230E-1,1.533576114E0
7.073263250E0,-1.937573724E0,-7.865417218E-1,-4.379879908E-1,2.136509606E0
7.083312250E0,-2.347896236E0,-1.792535294E0,-7.771651268E-1,3.054469700E0
7.093361250E0,-2.652322163E0,-2.704742451E0,-1.085513366E0,3.940657794E0
7.103409250E0,-2.898546075E0,-3.492552434E0,-1.198792645E0,4.694315249E0
7.113458250E0,-3.007673246E0,-4.108427380E0,-1.253019723E0,5.243599175E0
7.123507250E0,-3.099024881E0,-4.572727293E0,-1.237007707E0,5.660740073E0
7.133556250E0,-3.349433645E0,-5.017667660E0,-1.115539404E0,6.135154655E0
7.143605250E0,-3.545073879E0,-5.380892018E0,-1.111855073E0,6.538942531E0
7.153654250E0,-3.652411217E0,-5.569695688E0,-1.220046104E0,6.771272425E0
7.163703250E0,-3.724192806E0,-5.662268806E0,-1.332480460E0,6.906982283E0
7.173751250E0,-3.761153056E0,-5.749025114E0,-1.367744433E0,7.004875938E0
7.183800250E0,-3.707554554E0,-5.709203821E0,-1.308519155E0,6.932040928E0
7.193849250E0,-3.551775958E0,-5.481192816E0,-1.212080442E0,6.642870324E0
7.203898250E0,-3.487215680E0,-5.169791161E0,-1.054987977E0,6.324588009E0
7.213947250E0,-3.406046387E0,-4.786858762E0,-1.039790479E0,5.966266256E0
7.223996250E0,-3.076223078E0,-4.206609732E0,-1.092979603E0,5.324783402E0
7.234045250E0,-2.542507360E0,-3.298123743E0,-8.857362270E-1,4.257521881E0
7.244093250E0,-2.176698532E0,-2.506617150E0,-4.645086586E-1,3.352150702E0
7.254142250E0,-2.118157378E0,-1.781621466E0,-1.247257876E-1,2.770617666E0
7.264191250E0,-2.151016976E0,-9.754143888E-1,-4.345939379E-2,2.362243844E0
7.274240250E0,-2.073964707E0,-7.712886751E-2,-4.899966717E-2,2.075976743E0
7.284289250E0,-1.919427475E0,7.585791671E-1,2.010038853E-2,2.063988423E0
7.294338250E0,-1.493957167E0,1.559784536E0,6.821303308E-2,2.160900006E0
7.304387250E0,-7.937700498E-1,2.319343697E0,1.137289292E-1,2.454049785E0
7.314435250E0,-6.788734317E-2,2.978896759E0,1.893129623E-1,2.985678145E0
7.324484250E0,4.263339418E-1,3.430039267E0,3.632079864E-1,3.475464004E0
7.334533250E0,5.554281843E-1,3.519703395E0,8.413628769E-1,3.661243498E0
7.344582250E0,3.203630984E-1,3.159827152E0,1.382133261E0,3.463731009E0
7.354631250E0,2.308948517E-2,2.595910565E0,1.668608236E0,3.086023045E0
7.364680250E0,-1.420674598E-1,2.036629066E0,1.711102291E0,2.663815340E0
7.374729250E0,-6.987422705E-2,1.618680031E0,1.682691840E0,2.335906522E0
7.384778250E0,4.837109149E-2,1.240036565E0,1.581488231E0,2.010257563E0
7.394826250E0,1.753433794E-1,8.710146922E-1,1.131612815E0,1.438735367E0
7.404875250E0,1.240171051E-1,5.865482354E-1,4.166667402E-1,7.300892050E-1
7.414924250E0,1.115122497E-2,4.050553393E-1,-1.707866442E-1,4.397297529E-1
7.424973250E0,1.176986039E-1,2.114516902E-1,-6.475265086E-1,6.912708282E-1
7.435022250E0,3.358541268E-1,-7.815739274E-2,-1.192359538E0,1.241220303E0
7.445071250E0,3.304460371E-1,-4.244183940E-1,-1.508680456E0,1.601699808E0
7.455120250E0,1.705995333E-1,-6.837272054E-1,-1.419854234E0,1.585109819E0
7.465168250E0,3.471550405E-2,-8.830780828E-1,-1.161500273E0,1.459491333E0
7.475217250E0,4.371729255E-2,-9.938418889E-1,-9.765189278E-1,1.393995021E0
7.485266250E0,3.559609473E-2,-1.038008832E0,-6.890920258E-1,1.246425785E0
7.495315250E0,4.774777830E-2,-1.048557209E0,-4.953427809E-1,1.160653498E0
7.505364250E0,1.125220639E-1,-9.824526823E-1,-4.513249415E-1,1.086999858E0
7.515413250E0,1.969003093E-1,-8.914916414E-1,-5.096485788E-1,1.045594927E0
7.525462250E0,1.727706045E-1,-7.779053843E-1,-5.960669178E-1,9.951292575E-1
7.535510250E0,8.989216983E-2,-7.320450872E-1,-6.019761139E-1,9.520219817E-1
7.545559250E0,-1.378703284E-1,-8.199860412E-1,-5.632611144E-1,1.004314900E0
7.555608250E0,-3.612082386E-1,-9.640035474E-1,-5.945367014E-1,1.188801127E0
7.565657250E0,-5.790778327E-1,-1.161612539E0,-6.700885749E-1,1.460716785E0
7.575706250E0,-7.445288926E-1,-1.458904279E0,-6.914455301E-1,1.777870042E0
7.585755250E0,-8.527240169E-1,-1.837058333E0,-7.102279562E-1,2.146239809E0
7.595804250E0,-9.962515265E-1,-2.240613277E0,-5.783937085E-1,2.519405534E0
7.605852250E0,-1.093660877E0,-2.570186325E0,-4.101079184E-1,2.823143702E0
7.615901250E0,-1.117804030E0,-2.808035855E0,-2.784730607E-1,3.035143894E0
7.625950250E0,-1.098086050E0,-3.004934410E0,-2.359228724E-1,3.207971849E0
7.635999250E0,-1.115726514E0,-3.193269133E0,-2.870532650E-1,3.394733125E0
7.646048250E0,-1.181947986E0,-3.369097831E0,-3.492477590E-1,3.587449684E0
7.656097250E0,-1.235379258E0,-3.604789739E0,-3.368732965E-1,3.825461356E0
7.666146250E0,-1.318044269E0,-4.015592306E0,-3.037359560E-1,4.237272448E0
7.676194250E0,-1.534519887E0,-4.496964920E0,-3.141247040E-1,4.761944886E0
7.686243250E0,-1.880120445E0,-4.919394675E0,-3.580010408E-1,5.278585190E0
7.696292250E0,-2.277275319E0,-5.367682573E0,-4.174134296E-1,5.845702101E0
7.706341250E0,-2.563060323E0,-5.780391333E0,-5.805215102E-1,6.349740735E0
7.716390250E0,-2.711969902E0,-6.040217623E0,-8.954601467E-1,6.681381486E0
7.726439250E0,-2.855681014E0,-5.976513963E0,-1.262775802E0,6.743013861E0
7.736488250E0,-2.877378862E0,-5.525480797E0,-1.596333143E0,6.431059529E0
7.746536250E0,-2.605245937E0,-4.505933964E0,-1.970288311E0,5.565319695E0
7.756585250E0,-1.964437295E0,-3.125852491E0,-2.370208041E0,4.387237609E0
7.766634250E0,-1.360350628E0,-1.331744295E0,-2.792299243E0,3.379501704E0
7.776683250E0,-7.912858602E-1,7.624570405E-1,-3.001036071E0,3.195886661E0
7.786732250E0,2.002957875E-1,2.984791337E0,-3.113986151E0,4.318102300E0
7.796781250E0,1.343954743E0,5.134930061E0,-3.009585285E0,6.101747674E0
7.806830250E0,2.317358859E0,7.371815153E0,-2.537834265E0,8.133536346E0
7.816879250E0,2.881718666E0,9.324964691E0,-1.404916352E0,9.860682477E0
7.826927250E0,2.895258478E0,1.135392338E1,-3.020708151E-3,1.171725680E1
7.836976250E0,3.181030911E0,1.372046229E1,1.500914769E0,1.416413740E1
7.847025250E0,3.569961968E0,1.597633329E1,3.051923220E0,1.665238990E1
7.857074250E0,3.663675293E0,1.783915095E1,3.980718927E0,1.864145773E1
7.867123250E0,3.463419267E0,1.913782106E1,4.036439969E0,1.986313962E1
7.877172250E0,3.278387344E0,2.019494502E1,3.619511858E0,2.077701841E1
7.887221250E0,3.688655476E0,2.123205631E1,2.772395321E0,2.172769132E1
7.897269250E0,4.546519780E0,2.197144608E1,1.425049485E0,2.248212737E1
7.907318250E0,5.741478698E0,2.211180732E1,2.567430167E-1,2.284649902E1
7.917367250E0,6.958580729E0,2.120650631E1,-7.571623868E-1,2.233183939E1
7.927416250E0,7.327782111E0,1.960153215E1,-1.131892312E0,2.095704258E1
7.937465250E0,7.953752275E0,1.745664014E1,-7.302704573E-2,1.918337283E1
7.947514250E0,8.701514093E0,1.435968108E1,1.781203390E0,1.688459279E1
7.957563250E0,8.598053459E0,1.068915928E1,3.231097695E0,1.409342548E1
7.967611250E0,7.517497362E0,6.732298161E0,4.495374477E0,1.104739774E1
7.977660250E0,6.092558389E0,2.762122933E0,5.829297445E0,8.872953258E0
7.987709250E0,4.078964429E0,-8.758000535E-1,6.448471974E0,7.680349429E0
7.997758250E0,1.926912788E0,-4.017403189E0,6.266975570E0,7.689441076E0
8.007807250E0,1.604423350E-1,-6.440679390E0,5.400109477E0,8.406501954E0
8.017856250E0,-1.122046185E0,-8.123798077E0,4.004911197E0,9.126576386E0
8.027905250E0,-2.197159401E0,-9.310946576E0,2.159644543E0,9.807410470E0
8.037953250E0,-3.279383124E0,-9.787289414E0,2.673943412E-1,1.032554538E1
8.048002375E0,-3.877315889E0,-9.612654718E0,-9.742817831E-1,1.041085656E1
8.058051375E0,-3.848843164E0,-9.035250943E0,-1.221143042E0,9.896491481E0
8.068100375E0,-3.678587155E0,-8.031599180E0,-9.566734779E-1,8.885595815E0
8.078149375E0,-3.318011293E0,-7.042834429E0,-9.994920534E-1,7.849184677E0
8.088198375E0,-2.809780956E0,-6.471922817E0,-1.414593494E0,7.195952246E0
8.098247375E0,-2.194569962E0,-6.509116371E0,-1.999188759E0,7.154123912E0
8.108295375E0,-2.360152877E0,-7.247692798E0,-2.377289019E0,7.984414542E0
8.118344375E0,-3.606672250E0,-8.440029532E0,-2.112167491E0,9.418250089E0
8.128393375E0,-4.485635062E0,-9.522756116E0,-1.516522157E0,1.063501977E1
8.138442375E0,-4.599773589E0,-1.015327717E1,-9.090455675E-1,1.118361829E1
8.148491375E0,-4.159321545E0,-1.028258483E1,-4.180151081E-1,1.109983077E1
8.158540375E0,-3.468513361E0,-1.001344451E1,-7.184298456E-2,1.059739673E1
8.168589375E0,-2.941432478E0,-9.632149335E0,5.241911888E-2,1.007139879E1
8.178638375E0,-2.526972477E0,-9.417912616E0,-2.899924776E-2,9.751077320E0
8.188686375E0,-2.079058217E0,-9.353428352E0,-2.756037955E-1,9.585669640E0
8.198735375E0,-1.711294080E0,-9.273909727E0,-5.082235758E-1,9.444163291E0
8.208784375E0,-1.239802092E0,-9.136751590E0,-7.600918418E-1,9.251760830E0
8.218833375E0,-7.683978117E-1,-8.990539623E0,-8.177775478E-1,9.060297900E0
8.228882375E0,-3.672291166E-1,-9.026356743E0,-6.203556669E-1,9.055098808E0
8.238931375E0,-1.629332489E-1,-9.192288444E0,-2.591696477E-1,9.197384573E0
8.248980375E0,-2.068554863E-1,-9.289642246E0,2.294265976E-1,9.294776964E0
8.259028375E0,-3.618324289E-1,-9.322957926E0,8.131173170E-1,9.365341797E0
8.269077375E0,-6.718801618E-1,-9.284125398E0,1.303136793E0,9.399179371E0
8.279126375E0,-1.055062822E0,-9.022416304E0,1.609620940E0,9.225401514E0
8.289175375E0,-1.168325143E0,-8.596453076E0,1.733758498E0,8.847028182E0
8.299224375E0,-9.997867531E-1,-8.061721112E0,1.714794223E0,8.302496014E0
8.309273375E0,-8.180076358E-1,-7.578931133E0,1.360294495E0,7.743367144E0
8.319322375E0,-8.904376808E-1,-7.431796476E0,8.453728974E-1,7.532538315E0
8.329370375E0,-9.158543578E-1,-7.362044456E0,3.405640590E-1,7.426605662E0
8.339419375E0,-9.226803973E-1,-7.395708046E0,-3.529963633E-2,7.453125699E0
8.349468375E0,-1.164263375E0,-7.734132609E0,-6.965554118E-2,7.821583491E0
8.359517375E0,-1.537322457E0,-8.196832724E0,-2.003138681E-2,8.339773875E0
8.369566375E0,-1.754374611E0,-8.637636185E0,3.337707639E-2,8.814062807E0
8.379615375E0,-1.828957016E0,-8.969823523E0,-2.831806084E-2,9.154431698E0
8.389664375E0,-1.981692428E0,-9.258523364E0,-2.891670334E-1,9.472643630E0
8.399712375E0,-2.193624467E0,-9.438876053E0,-6.967284894E-1,9.715441320E0
8.409761375E0,-2.389134309E0,-9.489644503E0,-9.813838112E-1,9.834857890E0
8.419810375E0,-2.406009665E0,-9.249240909E0,-1.166019001E0,9.627925021E0
8.429859375E0,-2.141773113E0,-8.702815098E0,-1.379338292E0,9.068007324E0
8.439908375E0,-1.834584376E0,-7.901356544E0,-1.553433291E0,8.258952117E0
8.449957375E0,-1.513680703E0,-6.764516319E0,-1.651701597E0,7.125870365E0
8.460006375E0,-1.333968869E0,-5.384393916E0,-1.746640499E0,5.815661941E0
8.470054375E0,-1.229167176E0,-3.186835442E0,-1.648478612E0,3.792657882E0
8.480103375E0,-6.465050000E-1,4.753803867E-1,-1.122753114E0,1.380047021E0
8.490152375E0,6.467546761E-1,4.883147201E0,-4.153604722E-1,4.943272450E0
8.500201375E0,2.318261962E0,9.552621354E0,1.419967085E-1,9.830924490E0
8.510250375E0,4.505173241E0,1.375988773E1,4.274150920E-1,1.448495012E1
8.520299375E0,6.363228341E0,1.720184187E1,3.797591150E-1,1.834497903E1
8.530348375E0,7.190088369E0,2.066772281E1,3.742229712E-1,2.188588997E1
8.540396375E0,7.907070444E0,2.292022465E1,1.101965092E0,2.427082174E1
8.550445375E0,9.306506200E0,2.319998585E1,2.257394786E0,2.509872970E1
8.560494375E0,9.707305351E0,2.174073834E1,3.691126217E0,2.409389743E1
8.570543375E0,8.834418966E0,1.871950657E1,4.746204826E0,2.123660389E1
8.580592375E0,7.414585782E0,1.514073343E1,4.800047157E0,1.752878615E1
8.590641375E0,6.043911894E0,1.203884634E1,3.903048023E0,1.402485209E1
8.600690375E0,5.283286201E0,9.732806228E0,2.473896132E0,1.134728127E1
8.610738375E0,5.162103826E0,8.316674917E0,5.057479012E-1,9.801539600E0
8.620787375E0,5.627120608E0,7.427722136E0,-1.703478692E0,9.472981691E0
8.630836375E0,6.094506682E0,6.460938823E0,-3.615771979E0,9.589606309E0
8.640885375E0,6.475140540E0,5.138026747E0,-4.961003462E0,9.640452231E0
8.650934375E0,6.925199559E0,3.600959228E0,-5.436033601E0,9.511874558E0
8.660983375E0,7.064501871E0,3.196996148E0,-4.532524177E0,8.981745179E0
8.671032375E0,6.720299090E0,3.279710861E0,-2.298418851E0,7.823148496E0
8.681081375E0,6.155219491E0,3.005837220E0,2.044841663E-1,6.852999208E0
8.691129375E0,5.575091498E0,3.024055974E0,2.131391966E0,6.690993309E0
8.701178375E0,4.889037686E0,3.190953636E0,3.272774309E0,6.692975891E0
8.711227375E0,4.110814798E0,2.879569522E0,3.124335723E0,5.912037943E0
8.721276375E0,3.335127847E0,2.504385268E0,1.949178693E0,4.603729022E0
8.731325375E0,2.938136403E0,2.179385328E0,6.367687281E-1,3.713198129E0
8.741374375E0,2.481674682E0,1.840378967E0,-3.404576397E-1,3.108313912E0
8.751423375E0,1.627494709E0,1.419011650E0,-1.192226295E0,2.466523186E0
8.761471375E0,6.426335585E-1,9.042865187E-1,-2.028230710E0,2.311802719E0
8.771520375E0,-1.622263205E-1,1.402641785E-1,-2.472019175E0,2.481304137E0
8.781569375E0,-8.078302646E-1,-7.425952184E-1,-2.435862333E0,2.671603020E0
8.791618375E0,-1.204679621E0,-1.511004140E0,-2.126393766E0,2.873314628E0
8.801667375E0,-1.510599512E0,-2.112975576E0,-1.750325414E0,3.132126391E0
8.811716375E0,-1.797060454E0,-2.616581642E0,-1.409322814E0,3.473055796E0
8.821765375E0,-1.968391474E0,-3.120775353E0,-1.156350045E0,3.866645734E0
8.831813375E0,-2.156458395E0,-3.676805801E0,-9.519278777E-1,4.367537108E0
8.841862375E0,-2.426202148E0,-4.106935170E0,-7.977134120E-1,4.836291972E0
8.851911375E0,-2.809871880E0,-4.375672032E0,-6.611774182E-1,5.242045526E0
8.861960375E0,-3.076838205E0,-4.662744593E0,-7.491557944E-1,5.636431042E0
8.872009375E0,-3.155801929E0,-4.871103106E0,-1.024481299E0,5.893750353E0
8.882058375E0,-3.144569428E0,-4.854395272E0,-1.478141618E0,5.969788354E0
8.892107375E0,-3.243076885E0,-4.792356899E0,-1.735555932E0,6.041223942E0
8.902155375E0,-3.476682506E0,-4.947703970E0,-1.616814770E0,6.259487665E0
8.912204375E0,-3.769163157E0,-5.092817245E0,-1.349000598E0,6.477899428E0
8.922253375E0,-4.016405069E0,-4.959426468E0,-7.786761204E-1,6.429133462E0
8.932302375E0,-4.143480853E0,-4.675827738E0,-1.680192301E-1,6.249802323E0
8.942351375E0,-4.120496033E0,-4.462500261E0,-2.507175706E-1,6.079083437E0
8.952400375E0,-3.840840665E0,-4.357580747E0,-8.493835757E-1,5.870436052E0
8.962449375E0,-3.649311023E0,-4.225234283E0,-1.392969906E0,5.754167260E0
8.972497375E0,-3.561092327E0,-3.878365172E0,-1.714345742E0,5.537334764E0
8.982546375E0,-3.532569316E0,-3.348953004E0,-1.785270860E0,5.184758841E0
8.992595375E0,-3.591113394E0,-2.327803448E0,-1.442837738E0,4.516253429E0
9.002644375E0,-3.820794656E0,-4.031199110E-1,-6.097652630E-1,3.890088834E0
9.012693375E0,-3.660931487E0,2.057938659E0,5.977906770E-1,4.242037785E0
9.022742375E0,-2.612873923E0,4.169757655E0,1.357049291E0,5.104465870E0
9.032791375E0,-1.639083013E0,5.265498387E0,1.830688961E0,5.810635805E0
9.042838667E0,-1.032511865E0,5.611219105E0,2.480395312E0,6.221271695E0
9.052887667E0,-1.160165938E0,5.315136570E0,3.353339000E0,6.390738941E0
9.062936667E0,-1.429382272E0,4.294557118E0,4.204305929E0,6.177583902E0
9.072985667E0,-1.531216210E0,2.766670897E0,5.204632380E0,6.089933427E0
9.083034667E0,-1.949840306E0,1.380059254E0,6.118184981E0,6.568000322E0
9.093083667E0,-2.388126833E0,4.863368994E-1,6.253957329E0,6.712053011E0
9.103132667E0,-2.306540341E0,1.258560544E-1,5.700939367E0,6.151152555E0
9.113180667E0,-1.485549748E0,2.027779305E-1,4.653093764E0,4.888686789E0
9.123229667E0,-1.160225287E0,2.617424226E-1,3.591784362E0,3.783589131E0
9.133278667E0,-1.050723895E0,1.627233338E-1,2.376411352E0,2.603426685E0
9.143327667E0,-8.330756181E-1,-6.062977910E-2,1.052728028E0,1.343847929E0
9.153376667E0,-7.935893708E-1,-3.693446392E-1,2.197383642E-3,8.753310120E-1
9.163425667E0,-9.568105951E-1,-6.795949781E-1,-7.070160806E-1,1.370112254E0
9.173474667E0,-1.232803852E0,-9.003911036E-1,-9.797816741E-1,1.813968469E0
9.183523667E0,-1.368533807E0,-9.805535066E-1,-8.659545118E-1,1.893210811E0
9.193571667E0,-1.471308855E0,-7.987425220E-1,-6.006277460E-1,1.778621109E0
9.203620667E0,-1.490674248E0,-3.697381568E-1,-4.041753334E-1,1.588135296E0
9.213669667E0,-1.199558045E0,-1.505774975E-2,-4.695366794E-1,1.288266639E0
9.223718667E0,-8.407439491E-1,1.870699704E-1,-2.248406446E-1,8.901678927E-1
9.233767667E0,-6.866101751E-1,3.860746926E-1,4.542380609E-1,9.092961106E-1
9.243816667E0,-5.161714402E-1,5.985245025E-1,1.008818947E0,1.281553824E0
9.253865667E0,-2.654638830E-1,8.284539789E-1,1.304343073E0,1.567838615E0
9.263913667E0,3.260992169E-3,9.183759695E-1,1.177714602E0,1.493464676E0
9.273962667E0,3.478233773E-1,7.795695019E-1,7.341150016E-1,1.125892777E0
9.284011667E0,3.049036449E-1,4.668621629E-1,2.545830735E-1,6.129755731E-1
9.294060667E0,-7.352259725E-2,4.144214094E-2,-9.886358935E-2,1.299885866E-1
9.304109667E0,-2.732944742E-1,-2.294622838E-1,-2.633732476E-1,4.435180683E-1
9.314158667E0,-3.632538870E-1,-2.939062017E-1,-4.827531775E-1,6.718518231E-1
9.324207667E0,-3.195807409E-1,-2.638509285E-1,-7.937571859E-1,8.954326511E-1
9.334255667E0,-1.320456246E-1,-4.247183561E-2,-9.776585501E-1,9.874493123E-1
9.344304667E0,1.362743309E-1,2.986798686E-1,-9.736672407E-1,1.027525305E0
9.354353667E0,3.700647238E-1,4.884530067E-1,-1.023814716E0,1.193201916E0
9.364402667E0,5.007613957E-1,5.010397232E-1,-1.242582443E0,1.430319512E0
9.374451667E0,6.347585285E-1,4.539953649E-1,-1.475419739E0,1.669099634E0
9.384500667E0,8.122858429E-1,5.562719375E-1,-1.499455304E0,1.793770601E0
9.394549667E0,1.016723213E0,5.908231348E-1,-1.227618833E0,1.699954725E0
9.404597667E0,1.189364009E0,4.342259288E-1,-9.746255263E-1,1.597821586E0
9.414646667E0,1.283208605E0,2.501585037E-1,-8.915161997E-1,1.582404732E0
9.424695667E0,1.454414787E0,1.148632890E-1,-8.566521764E-1,1.691853687E0
9.434744667E0,1.603002331E0,3.280638814E-2,-7.174896133E-1,1.756554604E0
9.444793667E0,1.590754899E0,-1.163496512E-1,-4.888973951E-1,1.668250297E0
9.454842667E0,1.598978131E0,-3.363014388E-1,-4.026024324E-1,1.682830484E0
9.464891667E0,1.645870607E0,-5.203483987E-1,-4.517342832E-1,1.784297165E0
9.474939667E0,1.715555823E0,-6.664241248E-1,-6.162380576E-1,1.940876668E0
9.484988667E0,1.698834979E0,-7.424981546E-1,-6.909169418E-1,1.978562614E0
9.495037667E0,1.681271551E0,-8.650329906E-1,-6.132863832E-1,1.987731444E0
9.505086667E0,1.837283890E0,-1.153756220E0,-6.430183053E-1,2.262794301E0
9.515135667E0,1.854231606E0,-1.472396144E0,-7.061460149E-1,2.470782760E0
9.525184667E0,1.854610797E0,-1.736792033E0,-6.998199123E-1,2.635483957E0
9.535233667E0,1.919016124E0,-2.222319678E0,-7.628230032E-1,3.033682015E0
9.545281667E0,1.819664036E0,-2.789653963E0,-7.593515843E-1,3.416132501E0
9.555330667E0,1.813184444E0,-3.184286056E0,-6.376932460E-1,3.719404279E0
9.565379667E0,1.836951183E0,-3.529821417E0,-5.708338434E-1,4.019935343E0
9.575428667E0,1.836649905E0,-3.949832180E0,-5.102666295E-1,4.385752975E0
9.585477667E0,1.720043561E0,-4.558565336E0,-4.663288969E-1,4.894540879E0
9.595526667E0,1.482721011E0,-5.274361596E0,-3.906887305E-1,5.492721505E0
9.605575667E0,1.381327368E0,-5.903729576E0,-3.782084334E-1,6.074959245E0
9.615624667E0,1.398567738E0,-6.470719460E0,-3.956746513E-1,6.631949976E0
9.625672667E0,1.334689976E0,-7.034864089E0,-3.130435538E-1,7.167196547E0
9.635721667E0,1.325743736E0,-7.456893895E0,-2.178748566E-1,7.576960636E0
9.645770667E0,1.424345626E0,-7.706186426E0,-3.400717235E-1,7.844088123E0
9.655819667E0,1.727955867E0,-7.805814210E0,-6.146511233E-1,8.018376579E0
9.665868667E0,1.976399967E0,-8.077669392E0,-6.811842513E-1,8.343794798E0
9.675917667E0,1.975739817E0,-8.462916119E0,-6.611154377E-1,8.715593536E0
9.685966667E0,1.744076348E0,-8.635457513E0,-6.527252680E-1,8.833967344E0
9.696014667E0,1.605390187E0,-8.423350350E0,-6.952392036E-1,8.603107945E0
9.706063667E0,1.854571183E0,-7.617444404E0,-6.035080844E-1,7.863149212E0
9.716112667E0,2.491051862E0,-5.766818776E0,-4.602922314E-1,6.298682967E0
9.726161667E0,3.799940853E0,-2.503449129E0,-5.598720316E-1,4.584786224E0
9.736210667E0,5.452384754E0,1.761200650E0,-1.525562537E0,5.929390213E0
9.746259667E0,7.859916742E0,6.344205594E0,-2.993860368E0,1.053519984E1
9.756308667E0,1.044741199E1,1.091290649E1,-3.660082179E0,1.554465011E1
9.766356667E0,1.123385782E1,1.483235245E1,-2.981829137E0,1.884381983E1
9.776405667E0,1.084083371E1,1.707608931E1,-1.131533950E0,2.025825439E1
9.786454667E0,1.031881652E1,1.839407861E1,1.480689835E0,2.114267118E1
9.796503667E0,9.368869094E0,1.822472337E1,4.669128583E0,2.101706477E1
9.806552667E0,8.827364885E0,1.790373579E1,7.799057752E0,2.143108555E1
9.816601667E0,7.405865829E0,1.740186459E1,9.893946136E0,2.134389632E1
9.826650667E0,5.316193746E0,1.633212701E1,8.965845078E0,1.937489785E1
9.836698667E0,3.869620953E0,1.692278935E1,5.959865186E0,1.835414827E1
9.846747667E0,3.487574700E0,1.923512691E1,3.425736301E0,1.984663583E1
9.856796667E0,3.929514568E0,2.108455678E1,4.207884425E-1,2.145172912E1
9.866845667E0,4.177621868E0,2.095587360E1,-2.577711691E0,2.152314476E1
9.876894667E0,4.104468522E0,1.957510742E1,-3.577508969E0,2.031821997E1
9.886943667E0,3.812567623E0,1.810937885E1,-2.283549381E0,1.864671210E1
9.896992667E0,3.995738670E0,1.618631616E1,-1.810672188E-1,1.667319837E1
9.907040667E0,4.303455703E0,1.472164595E1,1.819233681E0,1.544526470E1
9.917089667E0,4.123518459E0,1.283007636E1,3.644516891E0,1.396054323E1
9.927138667E0,3.598944570E0,1.040210309E1,4.589718132E0,1.192567244E1
9.937187667E0,2.735495005E0,7.100678009E0,4.303775838E0,8.742142048E0
9.947236667E0,1.442076577E0,3.176209297E0,2.516203076E0,4.301065945E0
9.957285667E0,-5.344662085E-1,-4.158896452E-1,1.052428651E-1,6.853425317E-1
9.967334667E0,-2.134843578E0,-3.041658432E0,-2.250355908E0,4.344346307E0
9.977382667E0,-3.102230617E0,-4.490211385E0,-3.891759973E0,6.703105905E0
9.987431667E0,-4.505020921E0,-6.095784883E0,-5.002771293E0,9.081934125E0
9.997480667E0,-6.344820721E0,-7.203332312E0,-5.492218911E0,1.105934966E1
1.000752967E1,-7.475655271E0,-7.612667813E0,-4.697522662E0,1.165782364E1
1.001757867E1,-7.409396378E0,-7.307123314E0,-3.200882792E0,1.088755512E1
1.002762767E1,-7.299248284E0,-6.827535855E0,-1.717535398E0,1.014121291E1
1.003767667E1,-7.487040385E0,-7.224617347E0,-8.070689571E-1,1.043562312E1
1.004772525E1,-8.007675882E0,-8.447633252E0,-8.630607247E-1,1.167177169E1
1.005777425E1,-8.739773594E0,-1.005787750E1,-1.328127792E0,1.339061111E1
1.006782325E1,-9.579132046E0,-1.162756021E1,-1.746465082E0,1.516608280E1
1.007787225E1,-1.007509171E1,-1.294548285E1,-2.114831482E0,1.653981594E1
1.008792125E1,-9.857017461E0,-1.377133541E1,-2.073275321E0,1.706191498E1
1.009797025E1,-9.343613216E0,-1.365749830E1,-1.834182673E0,1.664916196E1
1.010801925E1,-8.854653840E0,-1.276264744E1,-1.722897879E0,1.562876967E1
1.011806725E1,-8.376374989E0,-1.164523517E1,-1.876807120E0,1.446712014E1
1.012811625E1,-7.707316693E0,-1.067331332E1,-2.162845309E0,1.334167335E1
1.013816525E1,-7.018324070E0,-9.754884730E0,-2.115022686E0,1.220196582E1
1.014821425E1,-6.418117324E0,-9.001885561E0,-1.839087902E0,1.120751614E1
1.015826325E1,-5.880514961E0,-8.377606997E0,-1.223687165E0,1.030835416E1
1.016831225E1,-5.368492997E0,-7.814665141E0,-4.147359896E-1,9.490085050E0
1.017836125E1,-5.078571088E0,-7.559154680E0,4.786922497E-1,9.119311929E0
1.018841025E1,-5.179784052E0,-7.703765679E0,1.388553504E0,9.386492918E0
1.019845825E1,-5.332039701E0,-8.009081553E0,1.901781748E0,9.807793254E0
1.020850725E1,-5.238183703E0,-8.226576925E0,2.102164074E0,9.976684329E0
1.021855625E1,-4.852856577E0,-8.356596782E0,2.234830965E0,9.918538006E0
1.022860525E1,-4.466356207E0,-8.467926013E0,2.140148172E0,9.809910445E0
1.023865425E1,-4.131894010E0,-8.671616694E0,1.705531064E0,9.755937701E0
1.024870325E1,-3.882928046E0,-9.080839344E0,1.208735250E0,9.949865040E0
1.025875225E1,-3.791198974E0,-9.642614681E0,9.196360445E-1,1.040187185E1
1.026880025E1,-3.700735823E0,-1.024882886E1,7.075627953E-1,1.091945895E1
1.027884925E1,-3.486507290E0,-1.060500498E1,5.741638327E-1,1.117817194E1
1.028889825E1,-3.229204366E0,-1.064978296E1,7.837385666E-1,1.115615902E1
1.029894725E1,-2.799683692E0,-1.059515476E1,1.086163577E0,1.101250582E1
1.030899625E1,-2.501513993E0,-1.058700959E1,1.362488955E0,1.096351771E1
1.031904525E1,-2.617870076E0,-1.057877554E1,1.478020581E0,1.099764886E1
1.032909425E1,-2.678798355E0,-1.047771928E1,1.356601394E0,1.089949216E1
1.033914225E1,-2.994288384E0,-1.036598133E1,1.401654775E0,1.088043970E1
1.034919125E1,-3.692559369E0,-9.824098806E0,1.659736256E0,1.062556523E1
1.035924025E1,-3.971331515E0,-8.704380983E0,1.619577579E0,9.703646419E0
1.036928925E1,-3.572727409E0,-7.327289191E0,8.646307021E-1,8.197629796E0
1.037933825E1,-3.010790396E0,-5.877565625E0,-3.690727437E-1,6.614140245E0
1.038938725E1,-2.984256609E0,-4.414582329E0,-1.452650097E0,5.523089439E0
1.039943625E1,-3.438371842E0,-3.035531720E0,-1.921241866E0,4.972728029E0
1.040948425E1,-3.450975223E0,-1.007230843E0,-1.884343743E0,4.058878577E0
1.041953325E1,-2.966507386E0,1.874838363E0,-1.701737391E0,3.900140395E0
1.042958225E1,-2.679800861E0,5.492768549E0,-9.222889262E-1,6.180813527E0
1.043963125E1,-1.911188602E0,9.422507358E0,7.223509153E-1,9.641476942E0
1.044968025E1,-3.959833843E-1,1.292235010E1,2.927278123E0,1.325567396E1
1.045972925E1,1.095953570E0,1.618881877E1,4.375933987E0,1.680558734E1
1.046977825E1,1.321069765E0,1.897960359E1,5.596684096E0,1.983162753E1
1.047982725E1,1.187783507E0,2.037518661E1,6.533084693E0,2.142989162E1
1.048987525E1,1.302870452E0,2.056026502E1,6.800252747E0,2.169482442E1
1.049992425E1,9.726223433E-1,2.026387902E1,7.356387860E0,2.157978752E1
1.050997325E1,2.060784462E-1,1.946928802E1,7.140861245E0,2.073855211E1
1.052002225E1,3.306239386E-1,1.877192569E1,5.507081364E0,1.956584911E1
1.053007125E1,8.267031033E-1,1.748192584E1,3.470214316E0,1.784218474E1
1.054012025E1,6.915910526E-1,1.566418086E1,1.987576774E0,1.580491447E1
1.055016925E1,2.103941299E-1,1.404558152E1,8.855808373E-1,1.407504456E1
1.056021725E1,-1.436857407E-1,1.230892689E1,-1.147141850E-1,1.231030000E1
1.057026625E1,-9.018701568E-1,1.089286926E1,-1.011706302E0,1.097686294E1
1.058031525E1,-1.516902372E0,1.044142328E1,-1.955774791E0,1.073076735E1
1.059036425E1,-9.697175927E-1,1.017797230E1,-3.125835534E0,1.069122631E1
1.060041325E1,-1.657992251E-1,9.882928813E0,-4.426895396E0,1.083038199E1
1.061046225E1,1.221108032E-1,9.370385862E0,-5.273258227E0,1.075296678E1
1.062051125E1,3.670279358E-1,8.235803831E0,-5.636997140E0,9.986937018E0
1.063055925E1,6.603159041E-1,6.835177581E0,-5.369009306E0,8.716761474E0
1.064060825E1,1.105057977E0,5.567734532E0,-4.917758040E0,7.510337215E0
1.065065725E1,1.479597721E0,4.666679769E0,-4.037548601E0,6.345778769E0
1.066070625E1,1.552027912E0,4.408956138E0,-2.825105631E0,5.461584632E0
1.067075525E1,1.507530455E0,3.588879465E0,-2.266612921E0,4.504468673E0
1.068080425E1,1.772558721E0,2.795721619E0,-2.294182543E0,4.027567172E0
1.069085325E1,1.928178857E0,2.512205334E0,-2.049437392E0,3.772166880E0
1.070090125E1,2.095631126E0,2.431454117E0,-1.804181778E0,3.682215478E0
1.071095025E1,2.411345542E0,2.382041636E0,-1.786210361E0,3.831351868E0
1.072099925E1,2.723830394E0,1.984087155E0,-1.786451851E0,3.814087581E0
1.073104825E1,2.928146435E0,1.671270474E0,-2.109699381E0,3.977187199E0
1.074109725E1,2.684440626E0,1.151895636E0,-1.540097546E0,3.302269747E0
1.075114625E1,2.259523465E0,9.466466725E-2,-6.454793984E-1,2.351818730E0
1.076119525E1,2.394336723E0,-6.547349560E-1,-5.854741019E-1,2.550354118E0
1.077124325E1,2.422583744E0,-1.356896678E0,-3.439291316E-1,2.797922058E0
1.078129225E1,2.316514668E0,-2.136448054E0,-2.494118325E-1,3.161148012E0
1.079134125E1,2.198567265E0,-2.800318699E0,-3.050907558E-1,3.573312638E0
1.080139025E1,2.194287249E0,-3.211067473E0,-2.061932526E-1,3.894658715E0
1.081143925E1,2.195105128E0,-3.507801388E0,-6.150097769E-2,4.138470668E0
1.082148825E1,2.275243996E0,-3.787624571E0,-2.191247720E-2,4.418519581E0
1.083153725E1,2.245000589E0,-4.137006816E0,5.871423125E-2,4.707260392E0
1.084158525E1,1.984304964E0,-4.540145438E0,2.015880952E-1,4.958933812E0
1.085163425E1,1.582099119E0,-4.989489927E0,3.273516905E-1,5.244540636E0
1.086168325E1,1.108314145E0,-5.254593914E0,4.605986986E-1,5.389922876E0
1.087173225E1,5.311275580E-1,-5.362324769E0,6.309046286E-1,5.425372251E0
1.088178125E1,1.983315981E-1,-5.382149754E0,7.478927958E-1,5.437482417E0
1.089183025E1,1.077677659E-1,-5.180801468E0,7.759226666E-1,5.239692140E0
1.090187925E1,-4.821760207E-2,-4.931041744E0,8.101499281E-1,4.997383368E0
1.091192725E1,-2.814130042E-1,-4.740876258E0,9.471740182E-1,4.842751242E0
1.092197625E1,-6.673550747E-1,-4.582524303E0,1.274997652E0,4.803177156E0
1.093202525E1,-1.259273320E0,-4.371739195E0,1.598507722E0,4.822146806E0
1.094207425E1,-1.738494158E0,-4.084688269E0,1.780406415E0,4.782978904E0
1.095212325E1,-2.056429346E0,-3.681079531E0,1.940686197E0,4.641714240E0
1.096217225E1,-2.420966843E0,-3.247701448E0,2.268055429E0,4.642490774E0
1.097222125E1,-2.716314676E0,-2.893076590E0,2.548100222E0,4.716044138E0
1.098226925E1,-3.009340579E0,-2.515092689E0,2.590291391E0,4.700152279E0
1.099231825E1,-3.439518773E0,-2.196621750E0,2.430745434E0,4.750153668E0
1.100236725E1,-3.880539751E0,-2.071954435E0,2.049037442E0,4.852848481E0
1.101241625E1,-4.289884608E0,-1.914407641E0,1.657564015E0,4.981524368E0
1.102246525E1,-4.643236820E0,-1.687921590E0,1.431077964E0,5.143608811E0
1.103251425E1,-4.815214249E0,-1.581441454E0,1.366397234E0,5.249217727E0
1.104256325E1,-4.835710495E0,-1.533128250E0,1.401970525E0,5.263088406E0
1.105261229E1,-4.839286652E0,-1.401486375E0,1.268639390E0,5.195411943E0
1.106266029E1,-4.699735249E0,-1.253895051E0,9.796822715E-1,4.961808295E0
1.107270929E1,-4.381061996E0,-1.209660280E0,6.159661621E-1,4.586545161E0
1.108275829E1,-4.005474284E0,-1.434374040E0,1.095387779E-1,4.255966620E0
1.109280729E1,-3.772421225E0,-1.897741907E0,-4.783736129E-1,4.249873829E0
1.110285629E1,-3.696737790E0,-2.424743852E0,-8.179611504E-1,4.496033082E0
1.111290529E1,-3.552104571E0,-2.869210594E0,-9.406433362E-1,4.662040992E0
1.112295429E1,-3.161943260E0,-3.221532819E0,-1.063973978E0,4.637693339E0
1.113300229E1,-2.754450801E0,-3.709633239E0,-1.261223951E0,4.789474276E0
1.114305129E1,-2.503622791E0,-4.218788897E0,-1.330351489E0,5.082926512E0
1.115310029E1,-2.208162984E0,-4.679057155E0,-1.275757790E0,5.328894591E0
1.116314929E1,-1.873281396E0,-5.227179828E0,-1.274894741E0,5.697187793E0
1.117319829E1,-1.525768067E0,-5.609595333E0,-1.226924769E0,5.941453727E0
1.118324729E1,-1.138742179E0,-5.663845215E0,-1.031202089E0,5.868496751E0
1.119329629E1,-6.890873480E-1,-5.703029746E0,-1.005593623E0,5.831861469E0
1.120334429E1,-3.185623752E-1,-5.882544529E0,-1.194478569E0,6.011039110E0
1.121339329E1,2.232518099E-2,-5.701736342E0,-1.388911353E0,5.868506665E0
1.122344229E1,6.918497919E-1,-5.293453925E0,-1.570736371E0,5.564757258E0
1.123349129E1,1.559333424E0,-5.075203092E0,-1.704401382E0,5.576216569E0
1.124354029E1,2.281858074E0,-4.844825134E0,-1.682141032E0,5.613270464E0
1.125358929E1,3.048630652E0,-4.323304954E0,-1.517697448E0,5.503500715E0
1.126363829E1,4.084019640E0,-3.377447655E0,-1.524977231E0,5.514700775E0
1.127368629E1,5.471253135E0,-1.920471788E0,-1.998616902E0,6.133293754E0
1.128373529E1,7.027896547E0,-3.733739555E-1,-2.414564434E0,7.440487846E0
1.129378429E1,8.039331538E0,8.443554819E-1,-2.259815533E0,8.393482829E0
1.130383329E1,8.235229635E0,2.005386808E0,-1.749912601E0,8.654639074E0
1.131388229E1,8.185723014E0,3.000051985E0,-1.196424522E0,8.799875272E0
1.132393129E1,8.551477463E0,3.913892854E0,-7.397944021E-1,9.433642977E0
1.133398029E1,8.931116710E0,4.963755746E0,-1.875564587E-1,1.021953493E1
1.134402829E1,9.135960461E0,5.967756588E0,1.807198942E-1,1.091386970E1
1.135407729E1,9.081580186E0,7.325358440E0,3.442934132E-1,1.167281084E1
1.136412629E1,8.853785529E0,8.829854629E0,7.543890524E-1,1.252696906E1
1.137417529E1,8.800037338E0,9.907453204E0,9.753027070E-1,1.328719314E1
1.138422429E1,8.326487129E0,1.083516776E1,9.733778036E-1,1.369958805E1
1.139427329E1,7.529728568E0,1.190579880E1,9.461859119E-1,1.411878625E1
1.140432229E1,6.890241981E0,1.317249282E1,8.205725169E-1,1.488836260E1
1.141437029E1,6.255818498E0,1.446586768E1,4.997369635E-1,1.576852339E1
1.142441929E1,5.150985346E0,1.566451532E1,3.018788985E-1,1.649244739E1
1.143446829E1,4.820548957E0,1.739559404E1,2.120773423E-1,1.805240596E1
1.144451729E1,5.971974185E0,1.927409042E1,3.581952049E-1,2.018126212E1
1.145456629E1,6.445748926E0,2.087070306E1,1.503676409E0,2.189509004E1
1.146461529E1,4.932084303E0,2.163121999E1,3.562875727E0,2.247063010E1
1.147466429E1,2.091951912E0,2.096430295E1,5.335577851E0,2.173353749E1
1.148471229E1,-3.458853176E-1,2.014401577E1,5.839081591E0,2.097607880E1
1.149476129E1,-6.175425714E-1,1.950197512E1,5.396239790E0,2.024420402E1
1.150481029E1,3.020127815E-1,1.834554555E1,3.495256771E0,1.867798365E1
1.151485929E1,1.244670776E0,1.580723650E1,1.383405030E0,1.591639848E1
1.152490829E1,1.470822074E0,1.177991526E1,8.827523929E-1,1.190415780E1
1.153495729E1,1.393411078E0,7.177857163E0,1.731469898E0,7.514067866E0
1.154500629E1,1.617511758E0,3.216245182E0,2.853984445E0,4.594105415E0
1.155505529E1,1.874004258E0,-5.827580702E-1,3.742165977E0,4.225553825E0
1.156510329E1,1.743251745E0,-3.943432987E0,4.205970631E0,6.023269820E0
1.157515229E1,7.863984650E-1,-7.017471546E0,4.277913018E0,8.256141304E0
1.158520129E1,-9.367917752E-1,-9.482422022E0,4.093661406E0,1.037072659E1
1.159525029E1,-2.897766934E0,-1.087759633E1,3.548258273E0,1.180293573E1
1.160529929E1,-4.727459529E0,-1.109126060E1,2.528830138E0,1.231908752E1
1.161534829E1,-6.103143604E0,-1.015729654E1,1.311399493E0,1.192219793E1
1.162539729E1,-7.680813603E0,-8.840208294E0,1.062197886E-2,1.171086218E1
1.163544529E1,-9.862994485E0,-8.021546647E0,-1.334731053E0,1.278301130E1
1.164549429E1,-1.182559254E1,-7.787856826E0,-2.665897644E0,1.440841293E1
1.165554329E1,-1.271013476E1,-7.621975996E0,-3.269095826E0,1.517659485E1
1.166559229E1,-1.222863293E1,-7.558527274E0,-3.441117402E0,1.478215434E1
1.167564129E1,-1.097578745E1,-7.856859818E0,-3.245332741E0,1.388273536E1
1.168569029E1,-9.664086242E0,-8.516069064E0,-2.528886856E0,1.312681469E1
1.169573929E1,-8.307814046E0,-9.513925066E0,-1.967568771E0,1.278303060E1
1.170578729E1,-6.994962105E0,-1.040272991E1,-1.737091995E0,1.265558268E1
1.171583629E1,-5.514851729E0,-1.066976991E1,-1.617607652E0,1.211916804E1
1.172588529E1,-4.029675910E0,-1.051969177E1,-1.629848213E0,1.138238147E1
1.173593429E1,-2.613056648E0,-1.011478729E1,-1.475333201E0,1.055052581E1
1.174598329E1,-1.567876060E0,-9.590618901E0,-1.165434279E0,9.787565749E0
1.175603229E1,-7.653724623E-1,-8.941003767E0,-9.069394004E-1,9.019416968E0
1.176608129E1,3.224233648E-1,-8.213846367E0,-5.929064977E-1,8.241526987E0
1.177612929E1,1.439917346E0,-7.417150955E0,-1.321646154E-1,7.556782235E0
1.178617829E1,2.291731537E0,-6.655655782E0,3.672940572E-1,7.048736925E0
1.179622729E1,2.856358122E0,-6.206273870E0,8.636770213E-1,6.886403638E0
1.180627629E1,3.245654338E0,-6.227177081E0,1.452862497E0,7.170970361E0
1.181632529E1,3.466316562E0,-6.720118411E0,1.767021554E0,7.765159827E0
1.182637429E1,3.672054353E0,-7.360913604E0,1.928197714E0,8.448963173E0
1.183642329E1,4.086600601E0,-7.760414089E0,2.129522027E0,9.025474800E0
1.184647129E1,4.842000052E0,-8.063333189E0,2.068017358E0,9.630109159E0
1.185652029E1,5.732381600E0,-8.163259181E0,1.757791139E0,1.012861436E1
1.186656929E1,5.744589416E0,-8.919397720E0,1.582886885E0,1.072667209E1
1.187661829E1,4.711504817E0,-1.046167452E1,9.887830241E-1,1.151618875E1
1.188666729E1,3.550217383E0,-1.171350726E1,3.507136559E-1,1.224472523E1
1.189671629E1,2.925512557E0,-1.293021928E1,-1.024081349E-1,1.325743874E1
1.190676529E1,2.207502834E0,-1.428145703E1,-3.428561676E-1,1.445512483E1
1.191681329E1,1.352651453E0,-1.518425075E1,-3.653574228E-2,1.524442428E1
1.192686229E1,1.423485940E0,-1.557997744E1,4.666240351E-1,1.565182888E1
1.193691129E1,2.149860982E0,-1.564436464E1,6.969002514E-1,1.580676176E1
1.194696029E1,2.727707976E0,-1.542499933E1,8.954329571E-1,1.568989469E1
1.195700929E1,2.783544792E0,-1.556809941E1,1.083253856E0,1.585204339E1
1.196705829E1,2.235247872E0,-1.610581521E1,1.378212118E0,1.631848906E1
1.197710729E1,1.520833309E0,-1.655492698E1,1.385532832E0,1.668227330E1
1.198715629E1,1.203299386E0,-1.654853714E1,1.106984489E0,1.662911379E1
1.199720429E1,1.290404188E0,-1.594631018E1,5.683962853E-1,1.600852978E1
1.200725329E1,1.589676818E0,-1.481814371E1,-3.164266797E-1,1.490652815E1
1.201730229E1,2.615170417E0,-1.292849319E1,-1.390462035E0,1.326342478E1
1.202735129E1,4.135843512E0,-1.058527531E1,-2.227851144E0,1.158087111E1
1.203740029E1,5.355070129E0,-8.508157781E0,-3.007572674E0,1.049337974E1
1.204744842E1,6.309891794E0,-6.645797376E0,-3.332759725E0,9.751340656E0
1.205749742E1,6.488830626E0,-4.318647646E0,-2.451229985E0,8.170934391E0
1.206754542E1,6.627493837E0,-1.717416700E0,-1.025622675E0,6.922795429E0
1.207759442E1,7.610507267E0,2.127681908E0,3.440092385E-1,7.909816276E0
1.208764342E1,8.997270353E0,7.192680439E0,2.089198458E0,1.170684739E1
1.209769242E1,1.038674362E1,1.168523247E1,4.159559526E0,1.617810361E1
1.210774142E1,1.094809855E1,1.475945755E1,6.235835638E0,1.940587785E1
1.211779042E1,1.038471815E1,1.671527634E1,7.638714820E0,2.110906910E1
1.212783942E1,9.037024988E0,1.812612762E1,8.751720625E0,2.206392841E1
1.213788742E1,8.387441429E0,1.957630376E1,9.085986063E0,2.315461045E1
1.214793642E1,7.462470385E0,2.016455353E1,8.787223749E0,2.322741881E1
1.215798542E1,4.576164871E0,1.922327694E1,7.823049463E0,2.125266487E1
1.216803442E1,2.125465229E0,1.802355810E1,5.367128842E0,1.892544110E1
1.217808342E1,1.284163455E0,1.710317595E1,2.239425123E0,1.729689938E1
1.218813242E1,1.472255226E0,1.746370591E1,1.112351282E-1,1.752600733E1
1.219818142E1,1.604751379E0,1.823687856E1,-1.132386986E0,1.834233537E1
1.220822942E1,6.195046046E-1,1.793679594E1,-1.751870248E0,1.803278914E1
1.221827842E1,-6.400479198E-2,1.751054913E1,-1.710408812E0,1.759400255E1
1.222832742E1,-1.377323341E-1,1.736171995E1,-1.340912145E0,1.741396954E1
1.223837642E1,-5.096579343E-2,1.765501044E1,-1.074649240E0,1.768776023E1
1.224842542E1,9.635919034E-2,1.827857856E1,-5.645960337E-1,1.828755008E1
1.225847442E1,-5.252863723E-1,1.856997105E1,3.319318146E-1,1.858036408E1
1.226852342E1,-1.434637164E0,1.905421757E1,8.434034821E-1,1.912675404E1
1.227857142E1,-1.998273085E0,1.958285615E1,4.243832376E-1,1.968912013E1
1.228862042E1,-2.252915819E0,1.958595985E1,-1.449758649E-1,1.971564026E1
1.229866942E1,-2.578296413E0,1.900238200E1,-5.399552091E-1,1.918409981E1
1.230871842E1,-2.868902446E0,1.788270452E1,-9.471868821E-1,1.813612101E1
1.231876742E1,-2.968843056E0,1.670070040E1,-1.438017440E0,1.702337561E1
1.232881642E1,-3.209187593E0,1.532152700E1,-1.411592703E0,1.571752743E1
1.233886542E1,-3.343861248E0,1.378999504E1,-1.143174514E0,1.423559691E1
1.234891442E1,-3.276283808E0,1.238333973E1,-1.306635620E0,1.287588580E1
1.235896242E1,-3.242978067E0,1.111474536E1,-1.619897275E0,1.169095969E1
1.236901142E1,-3.306443161E0,1.013454854E1,-1.982944610E0,1.084314114E1
1.237906042E1,-3.264778242E0,9.236582272E0,-2.461454426E0,1.010108840E1
1.238910942E1,-3.215665138E0,8.224899943E0,-2.841358552E0,9.277003815E0
1.239915842E1,-3.071472216E0,7.287474915E0,-2.973992114E0,8.449015404E0
1.240920742E1,-2.686802609E0,6.389547243E0,-3.019571160E0,7.560623798E0
1.241925642E1,-2.210585486E0,5.494571246E0,-2.982757675E0,6.631277759E0
1.242930442E1,-1.720693479E0,4.649345114E0,-2.759938998E0,5.674016153E0
1.243935342E1,-1.205268436E0,3.827482701E0,-2.413844204E0,4.682834576E0
1.244940242E1,-7.334659606E-1,3.026709441E0,-2.076932900E0,3.743339769E0
1.245945142E1,-2.355252618E-1,2.208699759E0,-1.718490248E0,2.808386638E0
1.246950042E1,2.217626703E-1,1.386035693E0,-1.301960333E0,1.914516736E0
1.247954942E1,4.742182526E-1,3.342525744E-1,-1.088403791E0,1.233381753E0
1.248959842E1,3.710072950E-1,-6.275190908E-1,-1.037990194E0,1.268404614E0
1.249964642E1,1.516299963E-1,-1.288055654E0,-8.754316789E-1,1.564755460E0
1.250969542E1,-1.999016851E-2,-1.636965444E0,-7.979620649E-1,1.821208096E0
1.251974442E1,9.282162488E-3,-1.913680832E0,-7.271440241E-1,2.047192936E0
1.252979342E1,1.139520004E-1,-2.325808378E0,-6.417915595E-1,2.415422546E0
1.253984242E1,-4.658125877E-2,-2.734827545E0,-6.963291246E-1,2.822468027E0
1.254989142E1,-2.415949640E-1,-3.158064802E0,-7.068454150E-1,3.245207522E0
1.255994042E1,-4.143003720E-1,-3.669538296E0,-6.025087953E-1,3.741680499E0
1.256998842E1,-4.994261840E-1,-4.079160896E0,-6.309187350E-1,4.157768461E0
1.258003742E1,-6.140131921E-1,-4.508263494E0,-5.175898285E-1,4.579230412E0
1.259008642E1,-7.644769612E-1,-4.969371997E0,-2.859814703E-1,5.035957553E0
1.260013542E1,-9.067850339E-1,-5.369270092E0,-1.501049694E-1,5.447371102E0
1.261018442E1,-9.737771684E-1,-5.785264403E0,-1.340099236E-1,5.868175597E0
1.262023342E1,-1.004801910E0,-6.051495148E0,-3.103912568E-1,6.142195303E0
1.263028242E1,-1.016621179E0,-6.262336974E0,-5.083674538E-1,6.364653994E0
1.264033042E1,-9.720759210E-1,-6.495767763E0,-5.903232709E-1,6.594574436E0
1.265037942E1,-9.443741521E-1,-6.719223787E0,-6.742810285E-1,6.818685045E0
1.266042842E1,-9.104717034E-1,-6.767066290E0,-9.251659025E-1,6.890433719E0
1.267047742E1,-7.914963600E-1,-6.707456850E0,-1.160603310E0,6.852987956E0
1.268052642E1,-6.902526981E-1,-6.623590236E0,-1.274100105E0,6.780245385E0
1.269057542E1,-6.457838921E-1,-6.359441684E0,-1.348497153E0,6.532838582E0
1.270062442E1,-6.620031913E-1,-6.031688874E0,-1.178556601E0,6.181303630E0
1.271067242E1,-6.442637622E-1,-5.746318438E0,-8.007544758E-1,5.837504528E0
1.272072142E1,-6.973348457E-1,-5.456836824E0,-4.870842467E-1,5.522734384E0
1.273077042E1,-9.223076373E-1,-5.184531407E0,-3.325101042E-1,5.276417369E0
1.274081942E1,-1.031165982E0,-4.967751734E0,-3.103888448E-1,5.083129135E0
1.275086842E1,-1.041043099E0,-4.651444849E0,-3.411388403E-1,4.778711712E0
1.276091742E1,-1.022197376E0,-4.255914624E0,-3.827984977E-1,4.393658094E0
1.277096642E1,-9.200007646E-1,-3.967113041E0,-3.355349419E-1,4.086192725E0
1.278101442E1,-8.082533106E-1,-3.790782652E0,-2.292459369E-1,3.882764508E0
1.279106342E1,-6.798762292E-1,-3.662983568E0,-5.823066652E-2,3.725999344E0
1.280111242E1,-6.539274555E-1,-3.717167961E0,6.290200710E-2,3.774773560E0
1.281116142E1,-7.923190632E-1,-3.889774843E0,8.803860247E-2,3.970625722E0
1.282121042E1,-8.918278563E-1,-4.097603014E0,1.445156525E-1,4.196020991E0
1.283125942E1,-7.420352013E-1,-4.361419444E0,1.921266790E-1,4.428262466E0
1.284130842E1,-4.136663876E-1,-4.684081668E0,1.918349029E-1,4.706223707E0
1.285135742E1,-1.509103502E-1,-5.191503042E0,2.619032027E-1,5.200295285E0
1.286140542E1,1.432012349E-1,-5.691699012E0,4.404263163E-1,5.710509572E0
1.287145442E1,6.874291507E-1,-6.080629485E0,6.461576754E-1,6.153383907E0
1.288150342E1,1.269021944E0,-6.633462090E0,7.045538181E-1,6.790407357E0
1.289155242E1,1.621429831E0,-7.290805489E0,5.881737614E-1,7.492050971E0
1.290160142E1,1.953013882E0,-7.762627845E0,4.436457932E-1,8.016824550E0
1.291165042E1,2.901606508E0,-8.492919937E0,3.343934923E-1,8.981137366E0
1.292169942E1,3.560090699E0,-9.693367928E0,4.010470730E-1,1.033423758E1
1.293174742E1,4.041515352E0,-1.093513761E1,7.336694437E-1,1.168115370E1
1.294179642E1,4.761932082E0,-1.177325645E1,9.105360228E-1,1.273242477E1
1.295184542E1,6.905244766E0,-1.134999522E1,5.493652064E-1,1.329686425E1
1.296189442E1,1.066996521E1,-8.836980046E0,1.420125143E-1,1.385498255E1
1.297194342E1,1.388354231E1,-5.732523102E0,1.315422378E0,1.507796087E1
1.298199242E1,1.387399263E1,-4.892043740E0,3.864706076E0,1.521038187E1
1.299204142E1,1.228592628E1,-5.655199522E0,4.896076564E0,1.438390879E1
1.300208942E1,1.209169231E1,-5.474953837E0,4.596876293E0,1.404690051E1
1.301213842E1,1.330155958E1,-3.687724307E0,4.560118357E0,1.453703812E1
1.302218742E1,1.432748397E1,-1.412949257E0,4.477546316E0,1.507718951E1
1.303223642E1,1.500726255E1,1.069646362E0,3.667641460E0,1.548591833E1
1.304228542E1,1.520062062E1,3.458922758E0,2.304036856E0,1.575854053E1
1.305233500E1,1.541344757E1,5.781430383E0,9.460385621E-1,1.648921745E1
1.306238400E1,1.570727250E1,7.945967876E0,-4.851551771E-2,1.760281706E1
1.307243200E1,1.539226662E1,9.989142315E0,-3.963511741E-1,1.835379879E1
1.308248100E1,1.542870997E1,1.227478032E1,-3.571946001E-1,1.971910017E1
1.309253000E1,1.565515626E1,1.484575778E1,-7.868598104E-2,2.157513924E1
1.310257900E1,1.575912327E1,1.779459283E1,6.101456244E-2,2.376975437E1
1.311262800E1,1.534982519E1,2.037793714E1,-6.289429609E-1,2.552005142E1
1.312267700E1,1.432937613E1,2.182380856E1,-1.689281652E0,2.616224977E1
1.313272600E1,1.311248167E1,2.253853010E1,-2.723728945E0,2.621719310E1
1.314277400E1,1.248764821E1,2.306689620E1,-4.056791203E0,2.654205367E1
1.315282300E1,1.205095943E1,2.334534529E1,-5.808129355E0,2.690660024E1
1.316287200E1,1.126062404E1,2.297819628E1,-6.943715937E0,2.651441776E1
1.317292100E1,1.040873383E1,2.194370689E1,-6.934113640E0,2.525767099E1
1.318297000E1,9.472689332E0,2.016736020E1,-6.099772099E0,2.310111426E1
1.319301900E1,8.706008847E0,1.759230606E1,-4.636534449E0,2.016881936E1
1.320306800E1,7.972636442E0,1.462044585E1,-2.677793219E0,1.686685937E1
1.321311600E1,7.105667439E0,1.160084194E1,-5.908225501E-1,1.361686876E1
1.322316500E1,5.967836695E0,8.355706835E0,5.975690675E-1,1.028542660E1
1.323321400E1,4.144432195E0,5.018170520E0,7.685568559E-1,6.553551192E0
1.324326300E1,1.874303343E0,2.096282360E0,6.989784980E-1,2.897582388E0
1.325331200E1,-7.875965595E-2,-9.053214759E-1,5.600638568E-1,1.067465026E0
1.326336100E1,-1.966392896E0,-3.834966552E0,5.049749358E-1,4.339201443E0
1.327341000E1,-4.108999822E0,-6.379157326E0,5.132931483E-1,7.605326921E0
1.328345800E1,-6.881523782E0,-8.350199343E0,6.917758977E-1,1.084249752E1
1.329350700E1,-9.114270800E0,-9.353668672E0,5.760922444E-1,1.307260235E1
1.330355600E1,-1.108856621E1,-9.269303876E0,6.304934780E-2,1.445269076E1
1.331360500E1,-1.309274030E1,-8.270669609E0,-2.771650386E-1,1.548872638E1
1.332365400E1,-1.426159053E1,-7.025989185E0,-1.565204905E0,1.597521063E1
1.333370300E1,-1.526690582E1,-6.373059849E0,-3.341437578E0,1.687778156E1
1.334375200E1,-1.663971160E1,-6.578733906E0,-4.430841681E0,1.843345057E1
1.335380100E1,-1.756714783E1,-7.003639373E0,-5.225001740E0,1.962030302E1
1.336384900E1,-1.732650684E1,-7.074612291E0,-5.682316570E0,1.955880109E1
1.337389800E1,-1.646121014E1,-6.985179128E0,-5.227088612E0,1.863026093E1
1.338394700E1,-1.571311737E1,-6.858055982E0,-4.334631010E0,1.768400451E1
1.339399600E1,-1.497265639E1,-6.889741459E0,-3.788885815E0,1.691167148E1
1.340404500E1,-1.435765443E1,-6.852538549E0,-3.608123821E0,1.631312609E1
1.341409400E1,-1.389659095E1,-6.427542450E0,-3.646521317E0,1.573930303E1
1.342414300E1,-1.301810527E1,-5.716003549E0,-3.580341945E0,1.466160325E1
1.343419100E1,-1.198931575E1,-5.020878950E0,-3.363329553E0,1.342627659E1
1.344424000E1,-1.114295467E1,-4.280673489E0,-3.037600465E0,1.231733010E1
1.345428900E1,-1.007083493E1,-3.512924134E0,-2.630137827E0,1.098544388E1
1.346433800E1,-9.296378823E0,-2.978375187E0,-2.006853874E0,9.965984168E0
1.347438700E1,-8.871427163E0,-2.498359128E0,-1.330167301E0,9.312001036E0
1.348443600E1,-8.273076907E0,-2.085776668E0,-6.625252014E-1,8.557640181E0
1.349448500E1,-7.732404172E0,-1.880554016E0,-1.327142537E-2,7.957809612E0
1.350453300E1,-7.628818992E0,-1.918362113E0,5.650650169E-1,7.886589306E0
1.351458200E1,-7.484717871E0,-2.185185181E0,9.878765595E-1,7.859512452E0
1.352463100E1,-7.333269723E0,-2.687403703E0,1.249062912E0,7.909433712E0
1.353468000E1,-7.334531552E0,-3.442804323E0,1.081712092E0,8.174249553E0
1.354472900E1,-7.175785494E0,-4.157553347E0,8.369944221E-1,8.335328845E0
1.355477800E1,-6.694001237E0,-4.690315384E0,9.344312543E-1,8.226899339E0
1.356482700E1,-6.365695281E0,-5.578427920E0,1.068174033E0,8.531232633E0
1.357487500E1,-6.357150160E0,-6.792933787E0,8.367944473E-1,9.341174045E0
1.358492400E1,-6.368596669E0,-7.654398807E0,6.557149494E-1,9.978918114E0
1.359497300E1,-6.206432914E0,-8.480929052E0,5.702099454E-1,1.052478534E1
1.360502200E1,-5.989994134E0,-9.327568456E0,5.333069980E-1,1.109810702E1
1.361507100E1,-5.851353142E0,-9.986419852E0,5.454762232E-1,1.158725418E1
1.362512000E1,-5.970929287E0,-1.051821242E1,5.906494725E-1,1.210923845E1
1.363516900E1,-6.156183697E0,-1.117556576E1,4.270584118E-1,1.276613672E1
1.364521700E1,-6.610086676E0,-1.186901981E1,-6.571802616E-2,1.358569821E1
1.365526600E1,-6.875937352E0,-1.160212599E1,-4.644209504E-1,1.349457405E1
1.366531500E1,-6.609906582E0,-1.050064739E1,-6.628286719E-1,1.242553027E1
1.367536400E1,-6.159728279E0,-9.310219182E0,-9.452328157E-1,1.120338783E1
1.368541300E1,-5.668847508E0,-8.019008955E0,-1.484861823E0,9.932026547E0
1.369546200E1,-4.804436369E0,-6.318719335E0,-2.229351540E0,8.244927601E0
1.370551100E1,-3.246655966E0,-3.994247046E0,-2.896758581E0,5.906436718E0
1.371555900E1,-1.261650798E0,-1.425889730E0,-2.900977932E0,3.469956372E0
1.372560800E1,1.189484755E0,1.092183870E0,-2.275974898E0,2.790663241E0
1.373565700E1,3.758854808E0,3.520396290E0,-1.444789685E0,5.348793952E0
1.374570600E1,6.063452704E0,5.668025390E0,-5.383180984E-1,8.317557147E0
1.375575500E1,8.342145388E0,7.223121629E0,5.658654277E-1,1.104921171E1
1.376580400E1,1.016074172E1,8.974646307E0,1.911864102E0,1.369087919E1
1.377585300E1,1.169019324E1,1.114788738E1,3.323284897E0,1.649182323E1
1.378590200E1,1.359951030E1,1.274879889E1,4.211666404E0,1.911064330E1
1.379595000E1,1.535147176E1,1.344841357E1,4.381994627E0,2.087413207E1
1.380599900E1,1.672411265E1,1.344440472E1,4.209397684E0,2.186702977E1
1.381604800E1,1.696237617E1,1.251947928E1,3.844338470E0,2.142985079E1
1.382609700E1,1.547506319E1,1.162167323E1,3.564815541E0,1.967863764E1
1.383614600E1,1.442816601E1,1.081466392E1,3.475082123E0,1.836314585E1
1.384619500E1,1.408371355E1,9.907800529E0,2.910473810E0,1.746385858E1
1.385624400E1,1.331315694E1,9.779168217E0,1.997114313E0,1.663913292E1
1.386629200E1,1.198961045E1,9.777661974E0,1.728923435E0,1.556735715E1
1.387634100E1,1.026928125E1,9.928740578E0,1.723945262E0,1.438784258E1
1.388639000E1,8.646250303E0,1.111137970E1,9.859750450E-1,1.411355908E1
1.389643900E1,7.446608643E0,1.236323115E1,-2.376375684E-1,1.443460898E1
1.390648800E1,6.184326346E0,1.271403135E1,-1.185346388E0,1.418793613E1
1.391653700E1,4.634139429E0,1.260165488E1,-1.594969718E0,1.352112726E1
1.392658600E1,3.110560852E0,1.242003802E1,-1.642512113E0,1.290855450E1
1.393663400E1,2.262659619E0,1.236761189E1,-1.648635317E0,1.268051461E1
1.394668300E1,1.488635032E0,1.258720290E1,-1.440903625E0,1.275656358E1
1.395673200E1,7.470747703E-1,1.236186291E1,-1.240971973E0,1.244643670E1
1.396678100E1,-1.633881623E-1,1.216312774E1,-1.564740636E0,1.226445210E1
1.397683000E1,-1.116844502E0,1.229646297E1,-2.226270057E0,1.254617956E1
1.398687900E1,-1.745501461E0,1.225768891E1,-2.754023370E0,1.268394093E1
1.399692800E1,-2.298192564E0,1.213471261E1,-2.959354194E0,1.270002821E1
1.400697600E1,-2.812154633E0,1.163962652E1,-2.830078104E0,1.230440821E1
1.401702500E1,-3.280658695E0,1.072625752E1,-2.554763124E0,1.150400524E1
1.402707400E1,-3.691150775E0,9.610213505E0,-2.382167351E0,1.056671751E1
1.403712300E1,-4.041290234E0,8.411781633E0,-2.084295568E0,9.562132870E0
1.404717200E1,-4.328726492E0,7.290297366E0,-1.826894118E0,8.673168443E0
1.405722067E1,-4.583598436E0,6.356714543E0,-1.760956821E0,8.032319922E0
1.406726967E1,-4.798135702E0,5.548534614E0,-1.638679848E0,7.516223402E0
1.407731767E1,-4.825684859E0,4.765896494E0,-1.546209056E0,6.956419064E0
1.408736667E1,-4.690143476E0,4.093948504E0,-1.696932149E0,6.452707874E0
1.409741567E1,-4.599120455E0,3.521028959E0,-1.920120955E0,6.102165056E0
1.410746467E1,-4.551349288E0,2.925904613E0,-2.006941583E0,5.770919568E0
1.411751367E1,-4.370870883E0,2.406492353E0,-2.175496345E0,5.443206966E0
1.412756267E1,-4.165361719E0,1.957675282E0,-2.276048573E0,5.134503663E0
1.413761167E1,-4.073101426E0,1.439280438E0,-2.177059890E0,4.837486245E0
1.414766067E1,-4.050754538E0,8.371429414E-1,-1.973829970E0,4.583167614E0
1.415770867E1,-4.033306446E0,2.341266078E-1,-1.850898108E0,4.443894684E0
1.416775767E1,-3.960599243E0,-3.350729388E-1,-1.809447781E0,4.367232706E0
1.417780667E1,-3.887889116E0,-8.039903980E-1,-1.716114525E0,4.325174147E0
1.418785567E1,-3.898093677E0,-1.278463297E0,-1.679993350E0,4.433055422E0
1.419790467E1,-3.881964718E0,-1.715484195E0,-1.687553800E0,4.567315833E0
1.420795367E1,-3.909162456E0,-2.197178405E0,-1.440329429E0,4.709956785E0
1.421800267E1,-4.012843530E0,-2.525809466E0,-1.211560113E0,4.893925272E0
1.422805067E1,-4.143882557E0,-2.738245828E0,-1.121822895E0,5.091977952E0
1.423809967E1,-4.268693129E0,-2.998185554E0,-1.104253035E0,5.332000788E0
1.424814867E1,-4.529422229E0,-3.118094405E0,-1.172935745E0,5.622628986E0
1.425819767E1,-4.942297050E0,-3.130962957E0,-1.290542621E0,5.991221029E0
1.426824667E1,-5.097183360E0,-3.115143315E0,-1.426755118E0,6.141744561E0
1.427829567E1,-5.035344962E0,-3.049593689E0,-1.544367183E0,6.086032414E0
1.428834467E1,-5.010658017E0,-2.834710268E0,-1.557459099E0,5.963887567E0
1.429839267E1,-5.055157667E0,-2.690756496E0,-1.496635192E0,5.919012288E0
1.430844167E1,-5.159177880E0,-2.437834014E0,-1.426452232E0,5.881744388E0
1.431849067E1,-5.088991996E0,-2.231078807E0,-1.412605441E0,5.733324194E0
1.432853967E1,-4.773016356E0,-1.999987489E0,-1.377631636E0,5.355324828E0
1.433858867E1,-4.485599102E0,-1.735571135E0,-1.168338591E0,4.949527405E0
1.434863767E1,-4.345527297E0,-1.533846288E0,-9.902845160E-1,4.713486538E0
1.435868667E1,-4.177648180E0,-1.444880902E0,-7.122639567E-1,4.477470836E0
1.436873467E1,-3.984830689E0,-1.348974870E0,-4.143196678E-1,4.227324167E0
1.437878367E1,-3.714396088E0,-1.232152764E0,-2.609080980E-1,3.922118276E0
1.438883267E1,-3.602455238E0,-1.217557529E0,-1.523258150E-1,3.805697470E0
1.439888167E1,-3.476806467E0,-1.178397557E0,-1.292463432E-1,3.673351144E0
1.440893067E1,-3.184640982E0,-1.109313288E0,-1.584151053E-1,3.376034582E0
1.441897967E1,-2.910787806E0,-9.636427742E-1,-8.956351977E-2,3.067460623E0
1.442902867E1,-2.661434171E0,-7.835005850E-1,7.357317567E-2,2.775341065E0
1.443907667E1,-2.253285363E0,-6.717825133E-1,3.157145619E-1,2.372395910E0
1.444912567E1,-1.703490678E0,-5.165822071E-1,5.612116653E-1,1.866466234E0
1.445917467E1,-1.096303234E0,-3.473111612E-1,8.287013161E-1,1.417480756E0
1.446922367E1,-6.054002434E-1,-3.319967186E-1,1.092137092E0,1.292089279E0
1.447927267E1,-2.142624468E-1,-3.993677527E-1,1.302064998E0,1.378686425E0
1.448932167E1,1.322827291E-1,-5.079762751E-1,1.465444390E0,1.556620016E0
1.449937067E1,5.604328161E-1,-7.305242264E-1,1.634793788E0,1.876246603E0
1.450941867E1,9.576294976E-1,-1.003544759E0,1.717452368E0,2.207668221E0
1.451946767E1,1.195334017E0,-1.342451717E0,1.791509693E0,2.537815399E0
1.452951667E1,1.534508777E0,-1.637179452E0,1.852358158E0,2.909691477E0
1.453956567E1,2.008101963E0,-1.947707534E0,1.780961316E0,3.316302359E0
1.454961467E1,2.419674462E0,-2.335515926E0,1.663848603E0,3.752046284E0
1.455966367E1,2.868995417E0,-2.849104359E0,1.489044921E0,4.308803213E0
1.456971267E1,3.230021807E0,-3.371890461E0,1.389928769E0,4.871815692E0
1.457976167E1,3.491608109E0,-3.937161849E0,1.483776434E0,5.467555497E0
1.458980967E1,3.836377485E0,-4.603377228E0,1.700201766E0,6.228929295E0
1.459985867E1,4.189097906E0,-5.352216688E0,1.901742572E0,7.057718438E0
1.460990767E1,4.327846486E0,-6.114592452E0,2.044699978E0,7.765262008E0
1.461995667E1,4.428653069E0,-6.958985941E0,2.072160841E0,8.504957606E0
1.463000567E1,4.447463561E0,-7.715963556E0,2.045457777E0,9.137829241E0
1.464005467E1,4.377259259E0,-8.315299067E0,1.989085940E0,9.605262103E0
1.465010367E1,4.433771721E0,-8.737762152E0,1.811838123E0,9.964415511E0
1.466015167E1,4.640455884E0,-9.010568091E0,1.597632394E0,1.026043846E1
1.467020067E1,4.999984510E0,-8.885202034E0,1.344932106E0,1.028374944E1
1.468024967E1,5.422247036E0,-8.560169349E0,1.005025274E0,1.018269797E1
1.469029867E1,5.729443958E0,-8.341461264E0,6.148113370E-1,1.013826894E1
1.470034767E1,5.825072247E0,-8.042701873E0,1.054744879E-1,9.931145199E0
1.471039667E1,5.968512048E0,-7.493582835E0,-4.551684625E-1,9.590834067E0
1.472044567E1,6.816651263E0,-6.804807728E0,-9.468758833E-1,9.678259998E0
1.473049367E1,8.227150537E0,-5.645125939E0,-1.329257036E0,1.006580236E1
1.474054267E1,9.410436366E0,-4.239327242E0,-1.491188657E0,1.042841559E1
1.475059167E1,1.033429761E1,-2.938015950E0,-1.630561574E0,1.086684756E1
1.476064067E1,1.106889500E1,-1.385108324E0,-1.982160498E0,1.132995684E1
1.477068967E1,1.166184360E1,1.606680375E-1,-2.473558162E0,1.192236975E1
1.478073867E1,1.280961227E1,2.175683455E0,-2.526041601E0,1.323633829E1
1.479078767E1,1.351146176E1,4.626839765E0,-1.591202796E0,1.437007903E1
1.480083567E1,1.380880553E1,7.185082567E0,-1.544593470E0,1.564270727E1
1.481088467E1,1.399854885E1,8.982383342E0,-2.437234089E0,1.681019603E1
1.482093367E1,1.449594108E1,1.022462840E1,-2.127763184E0,1.786624499E1
1.483098267E1,1.529489293E1,1.126484105E1,-1.933317536E0,1.909366676E1
1.484103167E1,1.578142689E1,1.285672095E1,-1.429132011E0,2.040566408E1
1.485108067E1,1.658646569E1,1.591052639E1,1.677905492E-1,2.298442620E1
1.486112967E1,1.655906798E1,1.924201025E1,2.031550759E0,2.546732984E1
1.487117767E1,1.573700325E1,2.318258921E1,2.957854968E0,2.817507089E1
1.488122667E1,1.342529719E1,2.677747611E1,2.355811611E0,3.004699119E1
1.489127567E1,1.010946983E1,2.953087850E1,3.054363263E-1,3.121485955E1
1.490132467E1,6.012131692E0,3.124924654E1,-1.919854907E0,3.188019730E1
1.491137367E1,2.586829547E0,3.132096615E1,-3.289113768E0,3.159925438E1
1.492142267E1,3.086859164E-1,3.011579887E1,-3.066027288E0,3.027304332E1
1.493147167E1,-1.296548735E0,2.787634802E1,-1.112740341E0,2.792865927E1
1.494152067E1,-1.904397792E0,2.508111231E1,1.804994541E0,2.521798824E1
1.495156867E1,-2.248292718E0,2.203351778E1,4.206465890E0,2.254384797E1
1.496161767E1,-2.127256231E0,1.889419682E1,6.223119113E0,2.000607667E1
1.497166667E1,-1.677338129E0,1.594771351E1,7.572979252E0,1.773395174E1
1.498171567E1,-1.477338211E0,1.313011454E1,7.964918118E0,1.542797318E1
1.499176467E1,-1.477528245E0,1.036147313E1,7.192579283E0,1.269946502E1
1.500181367E1,-1.572239106E0,7.337073337E0,5.284859687E0,9.177925848E0
1.501186267E1,-2.253584155E0,3.406577314E0,2.424481312E0,4.749896859E0
1.502191067E1,-3.350702491E0,-5.854787797E-1,-3.938193297E-1,3.424191328E0
1.503195967E1,-4.433187584E0,-3.931482448E0,-2.335244615E0,6.368914649E0
1.504200867E1,-5.333137808E0,-6.712591875E0,-3.325944210E0,9.195822608E0
1.505205838E1,-6.288260604E0,-8.573391657E0,-3.365232822E0,1.115213244E1
1.506210738E1,-7.134849138E0,-9.383699387E0,-2.826857457E0,1.212233515E1
1.507215637E1,-7.722488464E0,-9.550654936E0,-2.017128602E0,1.244671224E1
1.508220538E1,-7.982848604E0,-9.095201860E0,-1.538854428E0,1.219904265E1
1.509225337E1,-8.090549054E0,-8.344288977E0,-1.593645762E0,1.173131916E1
1.510230238E1,-8.623243264E0,-7.746253887E0,-1.801059365E0,1.173066872E1
1.511235138E1,-9.509501647E0,-7.383918305E0,-2.126576784E0,1.222600507E1
1.512240037E1,-1.033926423E1,-7.470129068E0,-2.669129984E0,1.303178683E1
1.513244937E1,-1.061180880E1,-7.782860380E0,-2.921543759E0,1.348031230E1
1.514249838E1,-1.067502071E1,-8.059443036E0,-2.479953847E0,1.360370759E1
1.515254738E1,-1.039728732E1,-8.211553674E0,-1.745099757E0,1.336332932E1
1.516259538E1,-9.845097327E0,-8.432912301E0,-7.960042709E-1,1.298743909E1
1.517264438E1,-9.374764257E0,-8.627921036E0,-2.689315011E-1,1.274360822E1
1.518269337E1,-9.012238641E0,-8.813905764E0,-1.655733398E-1,1.260685507E1
1.519274238E1,-8.703310357E0,-9.020577355E0,-3.195626146E-1,1.253876179E1
1.520279138E1,-8.285642574E0,-8.969062216E0,-6.710755849E-1,1.222891215E1
1.521284037E1,-7.794967625E0,-8.750875703E0,-1.117782907E0,1.177237378E1
1.522288937E1,-7.454417599E0,-8.666267077E0,-1.536381640E0,1.153399304E1
1.523293838E1,-7.436516933E0,-8.767429755E0,-1.858309454E0,1.164572551E1
1.524298638E1,-7.564482079E0,-9.001376268E0,-1.881914079E0,1.190746675E1
1.525303538E1,-7.640491789E0,-9.222035569E0,-1.590659589E0,1.208111140E1
1.526308438E1,-7.556206514E0,-9.329351272E0,-1.086754146E0,1.205462926E1
1.527313337E1,-7.362984104E0,-9.337667767E0,-6.209421426E-1,1.190760863E1
1.528318238E1,-7.168915016E0,-9.331517665E0,-1.012410307E-1,1.176778714E1
1.529323138E1,-7.026434743E0,-9.323309929E0,4.275402224E-1,1.168236636E1
1.530328037E1,-6.906880233E0,-9.250960575E0,7.837344736E-1,1.157149540E1
1.531332838E1,-6.987885804E0,-9.162390461E0,9.203768867E-1,1.155971628E1
1.532337737E1,-7.254932236E0,-9.052815979E0,9.467109919E-1,1.163975002E1
1.533342638E1,-7.418295840E0,-9.114738577E0,1.003178723E0,1.179474205E1
1.534347538E1,-7.481073301E0,-9.296226211E0,9.571120191E-1,1.197089566E1
1.535352438E1,-7.687605729E0,-9.410490160E0,7.457363427E-1,1.217426505E1
1.536357337E1,-7.972325370E0,-9.589372859E0,4.598811722E-1,1.247900374E1
1.537362238E1,-8.351408547E0,-9.853470540E0,1.662971520E-1,1.291760663E1
1.538367037E1,-8.734889415E0,-1.012110228E1,-3.350922118E-2,1.336922314E1
1.539371938E1,-8.985413954E0,-1.039273351E1,5.356985092E-2,1.373861141E1
1.540376838E1,-8.985986981E0,-1.047066520E1,4.242868316E-1,1.380444896E1
1.541381737E1,-8.834367510E0,-1.034377361E1,9.421209276E-1,1.363551589E1
1.542386638E1,-8.749883430E0,-1.004887981E1,1.455604110E0,1.340370206E1
1.543391538E1,-8.444123168E0,-9.443856711E0,1.682352701E0,1.277966965E1
1.544396438E1,-7.683668799E0,-8.413950366E0,1.251718717E0,1.146298943E1
1.545401238E1,-6.612030290E0,-6.974809091E0,5.846730334E-1,9.628538257E0
1.546406138E1,-5.438720396E0,-5.315544705E0,1.334328673E-1,7.606083052E0
1.547411037E1,-4.595935476E0,-3.516162322E0,1.673315245E-1,5.789129487E0
1.548415938E1,-3.861075832E0,-5.944905084E-1,6.151662630E-1,3.954713021E0
1.549420838E1,-2.471704303E0,4.130990615E0,6.210976785E-1,4.853881741E0
1.550425737E1,3.559726417E-2,1.011374414E1,-2.734006011E-1,1.011750145E1
1.551430638E1,3.852850261E0,1.641043526E1,-3.829119337E-1,1.686100419E1
1.552435538E1,5.828554264E0,2.079254917E1,1.688616824E0,2.165995320E1
1.553440338E1,4.320617281E0,2.325644189E1,4.057018075E0,2.399977539E1
1.554445238E1,2.731487908E0,2.562756736E1,4.196360732E0,2.611211746E1
1.555450138E1,4.680470427E0,2.817984892E1,3.110511736E0,2.873475199E1
1.556455037E1,7.038602214E0,2.880791239E1,2.399562818E0,2.975223755E1
1.557459938E1,7.210179986E0,2.688291544E1,3.681497022E0,2.807545651E1
1.558464838E1,6.612472340E0,2.382867614E1,5.938096586E0,2.543209759E1
1.559469737E1,6.381883882E0,2.048445470E1,6.052912513E0,2.229302752E1
1.560474538E1,6.093754730E0,1.722606571E1,4.344793471E0,1.878159783E1
1.561479437E1,5.579042462E0,1.460926480E1,2.217984552E0,1.579480257E1
1.562484338E1,4.942813944E0,1.244075588E1,-7.509029424E-1,1.340774671E1
1.563489238E1,4.521980478E0,1.047934247E1,-3.729704976E0,1.200731549E1
1.564494138E1,4.121096542E0,8.953252514E0,-5.282396840E0,1.118248110E1
1.565499037E1,3.529145479E0,7.780168907E0,-5.472873398E0,1.014584838E1
1.566503938E1,2.819272157E0,7.021924785E0,-5.266074922E0,9.218853956E0
1.567508737E1,2.317876338E0,7.049642342E0,-5.039699968E0,8.970428286E0
1.568513638E1,2.580007600E0,7.939682119E0,-4.819604339E0,9.639687617E0
1.569518538E1,3.136630079E0,8.703054834E0,-4.257305676E0,1.018362722E1
1.570523437E1,3.261874514E0,8.465015854E0,-3.404284036E0,9.689451406E0
1.571528338E1,3.108709624E0,7.346335326E0,-2.340329939E0,8.313234177E0
1.572533238E1,2.820186954E0,5.755473424E0,-1.301633474E0,6.540120678E0
1.573538138E1,2.600772525E0,3.989230719E0,-4.448327780E-1,4.782871069E0
1.574543037E1,2.563757019E0,2.406481828E0,4.293739092E-1,3.542367400E0
1.575547838E1,2.422033668E0,1.034653700E0,1.208839331E0,2.897938559E0
1.576552737E1,2.192512619E0,-2.066692525E-1,1.502734423E0,2.666089742E0
1.577557638E1,1.943068061E0,-1.206465946E0,1.295960505E0,2.628799573E0
1.578562538E1,1.607335848E0,-2.015244629E0,6.987247288E-1,2.670759384E0
1.579567437E1,1.474617794E0,-2.872975032E0,-1.303929090E-1,3.231947630E0
1.580572338E1,1.347961548E0,-3.838672518E0,-8.812888348E-1,4.162820804E0
1.581577238E1,1.000019180E0,-4.954168652E0,-1.498934902E0,5.271682011E0
1.582582038E1,5.213889107E-1,-6.179971924E0,-1.994657752E0,6.514795387E0
1.583586938E1,1.122957766E-1,-7.262944676E0,-2.410857884E0,7.653444417E0
1.584591838E1,-5.581898242E-2,-7.912099049E0,-2.677324857E0,8.352993207E0
1.585596737E1,-2.362859845E-2,-8.307277856E0,-2.839083400E0,8.779055658E0
1.586601638E1,3.680091351E-2,-8.572089483E0,-2.979372137E0,9.075171113E0
1.587606538E1,-2.800143868E-2,-8.677945136E0,-3.021856252E0,9.189076726E0
1.588611437E1,-1.792776784E-1,-8.480604531E0,-2.874461394E0,8.956300688E0
1.589616238E1,-2.697142240E-1,-8.007146709E0,-2.422563425E0,8.369943711E0
1.590621137E1,-1.499781579E-1,-7.515315766E0,-1.986926563E0,7.774981780E0
1.591626038E1,-5.187591255E-2,-6.901054067E0,-1.655652561E0,7.097071491E0
1.592630938E1,5.773979276E-2,-6.239295436E0,-1.224926775E0,6.358662361E0
1.593635838E1,1.265083113E-1,-5.623840905E0,-8.309285206E-1,5.686302233E0
1.594640737E1,4.478587121E-2,-5.062489491E0,-5.612707222E-1,5.093704982E0
1.595645638E1,-5.572805822E-2,-4.554517309E0,5.351371765E-2,4.555172582E0
1.596650437E1,-1.686316529E-1,-4.114175193E0,8.133102751E-1,4.197183312E0
1.597655338E1,-4.367367232E-1,-3.599253595E0,1.346405604E0,3.867579793E0
1.598660238E1,-7.025122628E-1,-2.878351547E0,1.688169512E0,3.410036276E0
1.599665137E1,-6.831255269E-1,-1.945738776E0,1.868614587E0,2.782854711E0
1.600670038E1,-5.359233347E-1,-1.112543875E0,2.071268556E0,2.411456225E0
1.601674938E1,-6.050573042E-1,-5.620279366E-1,2.201122352E0,2.350937973E0
1.602679838E1,-8.096861708E-1,-1.265232217E-1,2.116672186E0,2.269779937E0
1.603684737E1,-1.101500531E0,1.146457726E-1,1.984484181E0,2.272581030E0
1.604689538E1,-1.352805089E0,2.113686597E-1,1.810536532E0,2.269978162E0
1.605694400E1,-1.474338297E0,2.620388764E-1,1.675295112E0,2.246987205E0
1.606699300E1,-1.597557842E0,1.300227803E-1,1.458598469E0,2.167165540E0
1.607704200E1,-1.736171644E0,-1.083348727E-1,1.187150838E0,2.106028379E0
1.608709100E1,-1.831365484E0,-3.525502664E-1,1.032746923E0,2.131843670E0
1.609714000E1,-1.788091703E0,-6.991410506E-1,9.262936842E-1,2.131687157E0
1.610718900E1,-1.879663778E0,-1.126445630E0,6.231389415E-1,2.278226902E0
1.611723700E1,-2.062889204E0,-1.615605565E0,2.293196118E-1,2.630262476E0
1.612728600E1,-2.151926218E0,-2.012573036E0,-2.418724144E-1,2.956304947E0
1.613733500E1,-2.207206380E0,-2.316877926E0,-5.640013719E-1,3.249273900E0
1.614738400E1,-2.244078045E0,-2.652475945E0,-6.813263386E-1,3.540581942E0
1.615743300E1,-2.428133775E0,-2.971623992E0,-8.009229487E-1,3.920186265E0
1.616748200E1,-2.725170576E0,-3.317718347E0,-8.785687101E-1,4.382429997E0
1.617753100E1,-3.011281562E0,-3.552537265E0,-9.369473112E-1,4.750390293E0
1.618757900E1,-3.214988323E0,-3.631731369E0,-1.016996278E0,4.955795001E0
1.619762800E1,-3.486327781E0,-3.658906889E0,-1.292282606E0,5.216519467E0
1.620767700E1,-3.799542658E0,-3.514274256E0,-1.539984110E0,5.399833239E0
1.621772600E1,-3.941799860E0,-3.018250859E0,-1.381329854E0,5.153221958E0
1.622777500E1,-3.868075534E0,-2.251656913E0,-1.038925676E0,4.594707145E0
1.623782400E1,-3.807577609E0,-1.391639079E0,-9.076094913E-1,4.154282317E0
1.624787300E1,-3.959647316E0,-6.772695404E-1,-8.576982433E-1,4.107693657E0
1.625792200E1,-4.161758080E0,5.842537880E-2,-7.516671735E-1,4.229497296E0
1.626797000E1,-4.277876766E0,8.219115293E-1,-8.376592505E-1,4.435926195E0
1.627801900E1,-4.519020617E0,1.527745888E0,-9.956832502E-1,4.873083210E0
1.628806800E1,-4.757812133E0,2.213439512E0,-1.057414645E0,5.352963338E0
1.629811700E1,-4.710809875E0,2.929417620E0,-1.237369065E0,5.683687137E0
1.630816600E1,-4.515952583E0,3.718732091E0,-1.579368616E0,6.059472033E0
1.631821500E1,-4.192534314E0,4.565289050E0,-1.755794899E0,6.442206440E0
1.632826400E1,-3.736536278E0,5.490252492E0,-1.660696954E0,6.845618318E0
1.633831200E1,-3.057255296E0,6.425133982E0,-1.556018345E0,7.283567101E0
1.634836100E1,-2.159393697E0,7.321546056E0,-1.498280599E0,7.779001384E0
1.635841000E1,-1.316388338E0,8.087558203E0,-1.130327085E0,8.271584810E0
1.636845900E1,-5.147859424E-1,9.063283664E0,-7.970177396E-1,9.112812553E0
1.637850800E1,3.940081948E-1,1.048301218E1,-6.653325228E-1,1.051149153E1
1.638855700E1,1.528800725E0,1.207382205E1,-8.135722303E-1,1.219738948E1
1.639860600E1,2.710037690E0,1.381819382E1,-1.169286425E0,1.412989793E1
1.640865400E1,3.629747994E0,1.580225467E1,-1.198870559E0,1.625803228E1
1.641870300E1,5.128566536E0,1.784691371E1,-1.143069995E0,1.860433102E1
1.642875200E1,6.586461586E0,1.931578340E1,-8.482818872E-1,2.042548768E1
1.643880100E1,7.254867332E0,1.983058162E1,-2.535447724E-1,2.111751293E1
1.644885000E1,7.452855808E0,1.950873801E1,2.886944322E-1,2.088586275E1
1.645889900E1,7.702605591E0,1.866227051E1,9.831887005E-1,2.021329102E1
1.646894800E1,8.427709449E0,1.769007034E1,2.070947983E0,1.970415440E1
1.647899700E1,8.926950569E0,1.685678598E1,3.185016373E0,1.933871788E1
1.648904500E1,9.199039639E0,1.602769874E1,4.191283010E0,1.894930897E1
1.649909400E1,9.423144704E0,1.530706801E1,4.727778495E0,1.858638955E1
1.650914300E1,9.297535987E0,1.459262245E1,4.746618809E0,1.794210678E1
1.651919200E1,8.237574953E0,1.342002417E1,4.488638484E0,1.637383783E1
1.652924100E1,6.009557748E0,1.115723942E1,4.199663240E0,1.335050363E1
1.653929000E1,3.372131074E0,8.136389471E0,3.692406757E0,9.550181635E0
1.654933900E1,1.243042326E0,4.842864563E0,2.849493198E0,5.754833003E0
1.655938700E1,-3.721521798E-1,1.454938112E0,1.905448537E0,2.426123715E0
1.656943600E1,-1.614967926E0,-1.892489353E0,1.170482181E0,2.749484659E0
