"Time (s)","Linear Acceleration x (m/s^2)","Linear Acceleration y (m/s^2)","Linear Acceleration z (m/s^2)","Absolute acceleration (m/s^2)"
4.504666671E-3,3.540275654E-1,6.794107908E-1,1.039586411E0,1.291384701E0
1.453466667E-2,5.207457170E-1,1.193258255E0,8.557049274E-1,1.557970567E0
2.456466667E-2,6.067660068E-1,1.559234313E0,6.788893653E-1,1.805621057E0
3.459466667E-2,7.038775876E-1,1.771543205E0,5.316158371E-1,1.978995802E0
4.462366667E-2,7.878493054E-1,1.755683802E0,3.834504622E-1,1.962184089E0
5.465366667E-2,8.871186550E-1,1.471389254E0,2.551015936E-1,1.736963634E0
6.468366667E-2,1.054728215E0,9.477629060E-1,1.291993462E-1,1.423867481E0
7.471366667E-2,1.224455636E0,3.029547679E-1,6.266636431E-2,1.262933200E0
8.474266667E-2,1.300493705E0,-3.166395915E-1,-9.018014520E-3,1.338516280E0
9.477266667E-2,1.302868406E0,-7.651368195E-1,-9.401036382E-2,1.513848864E0
1.048026667E-1,1.199422975E0,-9.780994302E-1,-2.381646949E-1,1.565891564E0
1.148326667E-1,9.938440816E-1,-8.749142003E-1,-4.527798750E-1,1.399360758E0
1.248616667E-1,7.723566690E-1,-4.022065759E-1,-7.227962539E-1,1.131697565E0
1.348916667E-1,6.184728634E-1,2.017271858E-1,-1.018300353E0,1.208361763E0
1.449216667E-1,4.683872630E-1,7.013776106E-1,-1.271533762E0,1.525816269E0
1.549506667E-1,3.424842846E-1,1.019570222E0,-1.530464989E0,1.870599371E0
1.649806667E-1,2.099836005E-1,1.177391835E0,-1.806815949E0,2.166778374E0
1.750106667E-1,1.511180726E-1,1.027417771E0,-2.024603975E0,2.275400009E0
1.850406667E-1,3.159855804E-1,3.089224362E-1,-1.953993875E0,2.003340217E0
1.950696667E-1,7.054009335E-1,-6.536894739E-1,-1.596196610E0,1.863529990E0
2.050996667E-1,1.054959180E0,-1.396120970E0,-1.324949831E0,2.194899699E0
2.151296667E-1,1.253736007E0,-1.790567706E0,-1.151120296E0,2.470438143E0
2.251596667E-1,1.367136030E0,-1.767309237E0,-1.109314750E0,2.494598580E0
2.351886667E-1,1.430307594E0,-1.281222013E0,-1.151455049E0,2.239008349E0
2.452186667E-1,1.473257439E0,-6.863268775E-1,-1.237221423E0,2.042608361E0
2.552486667E-1,1.652532632E0,-5.048421675E-1,-1.166732069E0,2.084944468E0
2.652786667E-1,1.862330730E0,-6.396403688E-1,-1.042350098E0,2.227983231E0
2.753076667E-1,2.095870716E0,-8.492624652E-1,-9.678399056E-1,2.459803829E0
2.853376667E-1,2.331431353E0,-9.682533038E-1,-1.042831323E0,2.731406924E0
2.953676667E-1,2.622792554E0,-1.039586996E0,-1.236900703E0,3.080536521E0
3.053976667E-1,3.158743079E0,-1.229004623E0,-2.045273589E0,3.958693504E0
3.154266667E-1,4.192342526E0,-1.787700816E0,-4.315847999E0,6.276794884E0
3.254566667E-1,5.345333930E0,-2.416390520E0,-6.124736202E0,8.480797811E0
3.354866667E-1,5.732820725E0,-2.912326208E0,-5.878534509E0,8.712292774E0
3.455166667E-1,5.318591689E0,-3.189307060E0,-4.310568841E0,7.552489709E0
3.555456667E-1,4.473141024E0,-2.890739458E0,-3.145098601E0,6.185225173E0
3.655756667E-1,3.748490618E0,-2.063416330E0,-3.066896185E0,5.264477284E0
3.756056667E-1,3.468728539E0,-1.246970193E0,-3.544629783E0,5.113845191E0
3.856356667E-1,3.736020554E0,-1.004894881E0,-3.151974342E0,4.990251051E0
3.956646667E-1,3.907305673E0,-1.134049349E0,-2.139858150E0,4.596966223E0
4.056946667E-1,3.569363798E0,-1.044641329E0,-4.245347536E-1,3.743242336E0
4.157246667E-1,2.903304832E0,-9.390236574E-1,1.609939613E0,3.450050715E0
4.257546667E-1,2.040105820E0,-9.163282746E-1,2.994904681E0,3.737799261E0
4.357836667E-1,1.160616612E0,-1.061391848E0,3.929881480E0,4.232912948E0
4.458136667E-1,3.238714278E-1,-1.375261028E0,4.348176670E0,4.571966311E0
4.558436667E-1,-3.774322155E-1,-1.564769288E0,4.480979801E0,4.761316833E0
4.658736667E-1,-6.269228210E-1,-1.648089772E0,4.127226178E0,4.488120770E0
4.759026667E-1,-5.133400722E-1,-1.534049186E0,3.574450876E0,3.923458168E0
4.859326667E-1,-3.452526489E-1,-1.180854557E0,2.622910668E0,2.897115332E0
4.959626667E-1,-1.113054045E-1,-7.870878518E-1,-1.486654580E-1,8.087011796E-1
5.059916667E-1,-3.040424962E-1,-6.550138682E-1,-2.127323474E0,2.246550727E0
5.160216667E-1,-1.190045210E0,-8.281253654E-1,-8.225909758E-1,1.666929853E0
5.260516667E-1,-2.008758020E0,-1.009214804E0,1.159918016E0,2.529631022E0
5.360816667E-1,-2.492466304E0,-1.053271235E0,2.188995227E0,3.480440873E0
5.461106667E-1,-2.641398979E0,-9.916070831E-1,2.003519207E0,3.460399166E0
5.561406667E-1,-2.504744872E0,-8.573193437E-1,1.345741360E0,2.969808603E0
5.661706667E-1,-2.220587440E0,-6.518423384E-1,1.262142695E0,2.636078754E0
5.762006667E-1,-2.126364530E0,-2.420215183E-1,1.636276788E0,2.693956618E0
5.862296667E-1,-2.139489483E0,1.468990141E-1,2.146005182E0,3.033864336E0
5.962596667E-1,-2.102222254E0,3.260015684E-1,2.464574500E0,3.255724634E0
6.062896667E-1,-2.035888516E0,5.664893621E-1,2.560716759E0,3.320093759E0
6.163196667E-1,-1.992035860E0,7.944144130E-1,2.589175158E0,3.362012660E0
6.263486667E-1,-1.940638542E0,8.377393574E-1,2.619667218E0,3.366086974E0
6.363786667E-1,-2.163006107E0,8.527298641E-1,2.549918121E0,3.450771807E0
6.464086667E-1,-2.395850421E0,8.684647214E-1,2.544491905E0,3.601217747E0
6.564386667E-1,-2.481255437E0,8.640301931E-1,2.763718053E0,3.813307514E0
6.664676667E-1,-2.582133063E0,9.153985673E-1,2.833510419E0,3.941338223E0
6.764976667E-1,-2.855501212E0,9.343476391E-1,2.715050508E0,4.049492801E0
6.865276667E-1,-3.314353275E0,9.013950706E-1,2.630110345E0,4.326075719E0
6.965576667E-1,-3.696518811E0,9.153079355E-1,2.314531585E0,4.456354608E0
7.065866667E-1,-3.937970226E0,1.000056894E0,1.851705755E0,4.465034994E0
7.166166667E-1,-3.938351757E0,1.126668409E0,1.560622004E0,4.383553046E0
7.266466667E-1,-3.716831746E0,1.304253611E0,1.469268615E0,4.204124876E0
7.366766667E-1,-3.277150950E0,1.465095896E0,1.247070765E0,3.800185499E0
7.467056667E-1,-2.614788301E0,1.600324452E0,6.530440874E-1,3.134425432E0
7.567356667E-1,-1.997087270E0,1.755207254E0,7.697055414E-2,2.659893708E0
7.667656667E-1,-1.726583672E0,1.874541909E0,-2.665350929E-1,2.562428438E0
7.767956667E-1,-1.516106420E0,1.795138475E0,-3.786107218E-1,2.380009853E0
7.868246667E-1,-1.090781708E0,1.531108621E0,-6.723458925E-1,1.996533832E0
7.968546667E-1,-5.428926310E-1,1.317783483E0,-1.065683119E0,1.779597210E0
8.068846667E-1,6.744675547E-2,1.278324718E0,-1.136161656E0,1.711585948E0
8.169146667E-1,5.062305889E-1,1.310524750E0,-9.896801332E-1,1.718490994E0
8.269436667E-1,5.824654171E-1,1.272076968E0,-6.854151504E-1,1.557960110E0
8.369736667E-1,6.259344953E-1,1.048056688E0,-6.107185784E-1,1.364988643E0
8.470036667E-1,9.600832817E-1,5.274480879E-1,-1.441254166E0,1.810296927E0
8.570336667E-1,1.932370287E0,-1.545097500E-1,-3.487259535E0,3.989850530E0
8.670626667E-1,3.893352462E0,-5.431899619E-1,-4.721575184E0,6.143819736E0
8.770926667E-1,5.880730138E0,-1.014370294E0,-4.410336958E0,7.420445144E0
8.871226667E-1,6.727184186E0,-1.966893418E0,-4.061437401E0,8.100552484E0
8.971526667E-1,5.261415861E0,-2.726977658E0,-2.968738976E0,6.628145677E0
9.071816667E-1,2.752760079E0,-2.161909754E0,-8.843690018E-1,3.610214726E0
9.172116667E-1,8.736871621E-1,-1.891211736E-1,1.031952579E0,1.365291984E0
9.272416667E-1,-6.888227615E-1,1.951583653E0,2.154952737E0,2.987804688E0
9.372716667E-1,-1.616388800E0,2.995007007E0,3.038703250E0,4.562509963E0
9.473006667E-1,-2.460237913E0,1.805576924E0,3.882975701E0,4.938661652E0
9.573306667E-1,-3.312649104E0,-1.854761363E0,3.201817178E0,4.966429003E0
9.673606667E-1,-2.587362521E0,-7.776298635E0,-4.810106707E0,9.502757063E0
9.773906667E-1,3.975638866E-1,-1.314098685E1,-1.205551909E1,1.783757643E1
9.874196667E-1,2.522062863E0,-1.363551979E1,-6.322906526E0,1.524031981E1
9.974497917E-1,2.970422974E0,-1.022208018E1,-1.293400448E0,1.072320944E1
1.007479792E0,1.521212794E0,-4.949335928E0,1.536458678E0,5.400992479E0
1.017509792E0,-1.134622377E0,-2.154927009E-1,3.483358272E0,3.669821507E0
1.027538792E0,-3.295258900E0,3.109900702E0,4.171038780E0,6.158553247E0
1.037568792E0,-4.373512655E0,5.163438746E0,4.216889137E0,7.973134053E0
1.047598792E0,-4.608753450E0,6.333687623E0,3.910661098E0,8.754968731E0
1.057628792E0,-4.475423485E0,6.738752902E0,3.670616523E0,8.883334492E0
1.067657792E0,-3.860529994E0,6.133074331E0,3.213768886E0,7.927584944E0
1.077687792E0,-3.071159390E0,4.780670654E0,2.504851291E0,6.209759406E0
1.087717792E0,-2.325891117E0,2.706787807E0,2.197781253E0,4.191266176E0
1.097747792E0,-1.540945392E0,6.239891267E-1,2.284709469E0,2.825557023E0
1.107776792E0,-7.888648206E-1,-8.754386955E-1,2.501565156E0,2.765235767E0
1.117806792E0,-4.381014633E-1,-1.773763393E0,2.816200322E0,3.356956020E0
1.127836792E0,-2.794641638E-1,-2.053622244E0,2.962647346E0,3.615624958E0
1.137866792E0,-2.596192986E-1,-1.786679893E0,2.944357256E0,3.453819171E0
1.147895792E0,-3.116288200E-1,-1.152720678E0,2.816497360E0,3.059172252E0
1.157925792E0,-4.178899777E-1,-6.625333875E-1,2.571690813E0,2.688340782E0
1.167955792E0,-5.256863219E-1,-2.307475019E-1,2.288776792E0,2.359680004E0
1.177985792E0,-5.794631642E-1,1.430059379E-1,1.932546873E0,2.022613575E0
1.188014792E0,-6.665293747E-1,5.098789591E-1,1.528841656E0,1.744016849E0
1.198044792E0,-7.346880287E-1,8.652809125E-1,1.162986050E0,1.625119722E0
1.208074792E0,-7.783722845E-1,1.076674131E0,8.438625616E-1,1.573910614E0
1.218104792E0,-7.864961135E-1,1.060758010E0,6.075572813E-1,1.453585065E0
1.228133792E0,-7.229823415E-1,8.719771439E-1,4.295832396E-1,1.211441028E0
1.238163792E0,-6.136727379E-1,6.016784906E-1,2.802260560E-1,9.039567898E-1
1.248193792E0,-4.768572472E-1,3.775137842E-1,1.540023579E-1,6.273963800E-1
1.258223792E0,-2.671107513E-1,1.726524907E-1,2.615803085E-2,3.191258037E-1
1.268252792E0,-2.586837441E-2,6.216116488E-2,-6.078122199E-2,9.070578901E-2
1.278282792E0,1.735593939E-1,1.067344898E-1,-1.525292981E-1,2.545197464E-1
1.288312792E0,3.261255294E-1,3.613415551E-1,-2.966503000E-1,5.700236670E-1
1.298342792E0,4.123914023E-1,6.880032742E-1,-4.732204252E-1,9.313177465E-1
1.308371792E0,5.082794532E-1,8.952151483E-1,-6.734565711E-1,1.230163370E0
1.318401792E0,6.244120266E-1,8.848310781E-1,-9.211978358E-1,1.421767164E0
1.328431792E0,7.876497692E-1,6.695781130E-1,-1.180027906E0,1.568818941E0
1.338461792E0,9.845072477E-1,2.329787993E-1,-1.510160533E0,1.817723432E0
1.348490792E0,1.160555363E0,-2.170463061E-1,-2.035817472E0,2.353412550E0
1.358520792E0,1.221772348E0,-5.393430787E-1,-2.667789218E0,2.983407102E0
1.368550792E0,9.496498024E-1,-5.275124073E-1,-2.788105620E0,2.992262862E0
1.378580792E0,6.001479819E-1,-1.634308469E-1,-2.183519309E0,2.270384068E0
1.388609792E0,4.619996184E-1,2.030474871E-1,-1.628957244E0,1.705336809E0
1.398639792E0,3.766144824E-1,4.185390186E-1,-1.293232779E0,1.410483746E0
1.408669792E0,3.479138629E-1,4.079076111E-1,-1.051529641E0,1.180316594E0
1.418699792E0,4.232267314E-1,2.499567747E-1,-8.429616518E-1,9.757989557E-1
1.428728792E0,5.491321948E-1,7.825679541E-2,-6.760468876E-1,8.744768080E-1
1.438758792E0,6.812947637E-1,-1.037810612E-1,-5.037879145E-1,8.536599595E-1
1.448788792E0,7.573810726E-1,-2.054015762E-1,-3.810297149E-1,8.723528760E-1
1.458818792E0,8.767570965E-1,-2.877958614E-1,-2.779510505E-1,9.637355709E-1
1.468847792E0,9.587691200E-1,-4.092875540E-1,-2.112984931E-1,1.063673625E0
1.478877792E0,1.036140647E0,-4.618101686E-1,-2.066582890E-1,1.153067093E0
1.488907792E0,1.259263087E0,-5.724465054E-1,-2.496866333E-1,1.405625106E0
1.498937792E0,1.555153980E0,-7.429437125E-1,-3.269917944E-1,1.754249952E0
1.508966792E0,1.915825590E0,-8.261566079E-1,-4.707932460E-1,2.138824143E0
1.518996792E0,2.242466698E0,-7.560005450E-1,-6.362834823E-1,2.450520432E0
1.529026792E0,2.478992272E0,-6.418184566E-1,-7.575146815E-1,2.670423583E0
1.539056792E0,2.665573123E0,-7.470016801E-1,-7.819162819E-1,2.876575161E0
1.549085792E0,2.835311069E0,-1.067490494E0,-8.393704382E-1,3.143734649E0
1.559115792E0,3.011356407E0,-1.454541671E0,-9.790586659E-1,3.484611134E0
1.569145792E0,3.317926216E0,-1.843285618E0,-1.171499304E0,3.972247080E0
1.579175792E0,4.353462553E0,-2.295637330E0,-4.619854097E0,6.750232502E0
1.589204792E0,6.296299941E0,-2.286992807E0,-1.502899782E1,1.645431568E1
1.599234792E0,7.280212088E0,-2.041086983E0,-1.404177264E1,1.594800624E1
1.609264792E0,6.045815163E0,-1.739208688E0,-5.230851880E0,8.181597596E0
1.619294792E0,3.797995777E0,-1.234484049E0,-7.176930964E-1,4.057561604E0
1.629323792E0,2.647426289E0,-9.458526206E-1,4.554875743E-1,2.847976838E0
1.639353792E0,3.819366473E0,-6.148171842E-1,-1.048850740E0,4.008197637E0
1.649383792E0,5.720073795E0,-5.162693810E-1,-3.323647424E0,6.635692164E0
1.659413792E0,5.905003100E0,-1.386533875E0,-2.230690552E0,6.462779444E0
1.669442792E0,4.311890896E0,-2.236363521E0,6.101078002E-1,4.895503695E0
1.679472792E0,2.766994833E0,-2.452752015E0,2.805481206E0,4.641441333E0
1.689502792E0,1.788541792E0,-2.628077268E0,4.363330314E0,5.398548259E0
1.699532792E0,1.013645677E0,-2.896572055E0,5.038091984E0,5.899150623E0
1.709561792E0,4.417955880E-1,-3.136330701E0,5.227273968E0,6.111967502E0
1.719591792E0,6.325795636E-2,-3.499062724E0,5.337995675E0,6.382917776E0
1.729621792E0,-3.184536901E-1,-4.016026170E0,5.260002004E0,6.625518850E0
1.739651792E0,-6.244495949E-1,-4.293834402E0,3.588792926E0,5.630842373E0
1.749680792E0,-6.700058368E-1,-4.241114151E0,-3.737926892E-1,4.309951049E0
1.759710792E0,-9.961237648E-1,-3.126654144E0,-9.878017151E-1,3.426949215E0
1.769740792E0,-1.948499832E0,-1.732598995E0,7.887648332E-1,2.724096333E0
1.779770792E0,-2.452818673E0,-7.678546053E-1,2.107646424E0,3.323867264E0
1.789799792E0,-2.617608998E0,3.787066162E-2,2.141072763E0,3.381937851E0
1.799829792E0,-2.682840243E0,6.398046756E-1,1.382139108E0,3.085010585E0
1.809859792E0,-2.867460523E0,9.873222435E-1,1.109097380E0,3.229122491E0
1.819889792E0,-3.080689766E0,1.180696097E0,1.754355169E0,3.736636826E0
1.829918792E0,-2.995616872E0,1.245375658E0,2.394798360E0,4.032336811E0
1.839948792E0,-2.832905232E0,1.100483408E0,2.771828141E0,4.113325544E0
1.849978792E0,-2.730449443E0,8.670760077E-1,2.952706203E0,4.114079348E0
1.860008792E0,-2.589150599E0,6.202989489E-1,2.938331115E0,3.965130686E0
1.870037792E0,-2.596198833E0,3.830926126E-1,3.025551692E0,4.005118147E0
1.880067792E0,-2.659275672E0,3.395519060E-1,3.240786531E0,4.205917253E0
1.890097792E0,-2.759849828E0,3.940046865E-1,3.433205242E0,4.422545534E0
1.900127792E0,-3.004102059E0,5.438238001E-1,3.336846344E0,4.522711247E0
1.910156792E0,-3.381874290E0,8.485005730E-1,3.130137038E0,4.685593325E0
1.920186792E0,-3.816820011E0,1.158945624E0,2.888487110E0,4.924898754E0
1.930216792E0,-4.393551648E0,1.373450730E0,2.801308925E0,5.388598583E0
1.940246792E0,-4.873609807E0,1.519731109E0,2.783347156E0,5.814522903E0
1.950275792E0,-5.176820099E0,1.624325518E0,2.572438087E0,6.004609682E0
1.960305792E0,-5.310957565E0,1.658501909E0,2.088055328E0,5.942800172E0
1.970335792E0,-5.115559405E0,1.667205489E0,1.706498194E0,5.644524626E0
1.980365792E0,-4.692098785E0,1.609970604E0,1.263681536E0,5.119051414E0
1.990394792E0,-3.910581868E0,1.474397061E0,6.474984419E-1,4.229154936E0
2.000424708E0,-2.794812669E0,1.278009553E0,2.604466796E-1,3.084172295E0
2.010454708E0,-1.680007091E0,1.135932738E0,3.982684761E-2,2.028386844E0
2.020484708E0,-7.388644025E-1,1.069502521E0,-5.656333297E-2,1.301136295E0
2.030513708E0,-3.688599050E-2,1.050777982E0,2.903025627E-2,1.051825888E0
2.040543708E0,3.417335021E-1,1.075222852E0,6.794479206E-2,1.130266545E0
2.050573708E0,6.349927095E-1,1.146440769E0,-2.026886143E-1,1.326131536E0
2.060603708E0,8.752366742E-1,1.075913993E0,-7.330828218E-1,1.568770404E0
2.070632708E0,1.278742501E0,8.981808561E-1,-1.436834840E0,2.122829620E0
2.080662708E0,1.684915536E0,7.540171695E-1,-1.976818774E0,2.704680151E0
2.090692708E0,2.188490320E0,5.773341930E-1,-2.183052117E0,3.144601913E0
2.100722708E0,2.739484853E0,3.121255410E-1,-1.931608103E0,3.366498102E0
2.110751708E0,3.518310296E0,-2.913082838E-3,-2.564476811E0,4.353740592E0
2.120781708E0,4.987897146E0,-2.186461043E-1,-4.576842271E0,6.773064980E0
2.130811708E0,7.030678652E0,-6.461798948E-1,-5.477063513E0,8.935670959E0
2.140841708E0,8.113371906E0,-1.677427007E0,-3.904639927E0,9.158972542E0
2.150870708E0,6.188362094E0,-2.499851337E0,-1.821523743E0,6.918311272E0
2.160900708E0,2.991335248E0,-1.757609290E0,-8.662588593E-1,3.575986772E0
2.170930708E0,1.073121655E0,4.740507299E-1,-2.017814188E-1,1.190390659E0
2.180960708E0,-3.327945712E-1,2.982574072E0,1.128592289E0,3.206278353E0
2.190989708E0,-1.487237547E0,4.994829605E0,2.738307223E0,5.887149119E0
2.201019708E0,-2.551314436E0,5.331687114E0,3.717679885E0,6.982638223E0
2.211049708E0,-3.620678378E0,3.096319374E0,3.928238997E0,6.174752400E0
2.221079708E0,-3.903837105E0,-2.124836068E0,1.532847583E0,4.701541680E0
2.231108708E0,-2.126871776E0,-9.876864080E0,-8.433839085E0,1.316076249E1
2.241138708E0,3.876794609E-1,-1.534099121E1,-9.947252862E0,1.828781415E1
2.251168708E0,1.319225114E0,-1.602826826E1,-4.016482837E0,1.657642521E1
2.261198708E0,2.116009404E0,-1.271511191E1,-1.273789033E0,1.295276439E1
2.271227708E0,1.168076344E0,-6.686366528E0,7.921853082E-1,6.833700114E0
2.281257708E0,-2.011379035E0,-4.258533007E-1,2.804921043E0,3.477726083E0
2.291287708E0,-3.922036563E0,3.418323201E0,4.087441138E0,6.616228485E0
2.301317708E0,-4.758579873E0,5.462864134E0,4.423404608E0,8.488431850E0
2.311346708E0,-4.873987245E0,6.468014538E0,4.134802415E0,9.093269750E0
2.321376708E0,-4.652659608E0,6.779853566E0,4.053305093E0,9.167493549E0
2.331406708E0,-4.064026255E0,6.344533038E0,3.246176494E0,8.204088658E0
2.341436708E0,-3.162432964E0,5.199600851E0,2.385804319E0,6.536734163E0
2.351465708E0,-2.284549255E0,3.286024100E0,1.924199388E0,4.440682714E0
2.361495708E0,-1.504684469E0,1.391381217E0,1.853601276E0,2.763305038E0
2.371525708E0,-9.711555693E-1,-1.462441260E-1,2.128599336E0,2.344240947E0
2.381555708E0,-8.026265350E-1,-1.222931120E0,2.489680105E0,2.887607471E0
2.391584708E0,-7.315527517E-1,-1.782176367E0,2.664346962E0,3.287866598E0
2.401614708E0,-7.480927706E-1,-1.778283876E0,2.687518308E0,3.308276136E0
2.411644708E0,-9.511554605E-1,-1.344611678E0,2.622517151E0,3.096816669E0
2.421674708E0,-1.003026988E0,-6.217952514E-1,2.497315400E0,2.762114530E0
2.431703708E0,-9.427533039E-1,3.039967418E-2,2.340792453E0,2.523691194E0
2.441733708E0,-9.306615543E-1,4.746120626E-1,2.140765053E0,2.382071063E0
2.451763708E0,-9.793030795E-1,6.498881990E-1,1.896156142E0,2.230873664E0
2.461792708E0,-1.079281696E0,5.461153239E-1,1.646260178E0,2.042856701E0
2.471822708E0,-1.168260239E0,3.336228293E-1,1.392468215E0,1.847999975E0
2.481852708E0,-1.137858518E0,1.214952010E-1,1.134284407E0,1.611236857E0
2.491882708E0,-9.843001100E-1,-1.911454797E-2,9.993439727E-1,1.402818751E0
2.501911708E0,-7.598392421E-1,-2.135344684E-2,9.344634140E-1,1.204588525E0
2.511941708E0,-5.298524630E-1,1.051294291E-1,9.371168073E-1,1.081657866E0
2.521971708E0,-3.231326321E-1,3.287076598E-1,9.505081006E-1,1.056375441E0
2.532001708E0,-2.181584466E-1,5.992366934E-1,7.954669118E-1,1.019531917E0
2.542030708E0,-9.149357602E-2,6.659300351E-1,5.775289784E-1,8.862130709E-1
2.552060708E0,5.409069166E-2,6.385674047E-1,3.876475205E-1,7.489757897E-1
2.562090708E0,1.955558883E-1,5.553176719E-1,1.838395299E-1,6.167793730E-1
2.572120708E0,4.221667774E-1,3.842649794E-1,3.137981370E-3,5.708714472E-1
2.582149708E0,6.890939261E-1,1.638249493E-1,-1.569388296E-1,7.254783589E-1
2.592179708E0,9.116850007E-1,-8.691301346E-2,-2.696351404E-1,9.546866089E-1
2.602209708E0,1.080878863E0,-2.209013754E-1,-3.830791640E-1,1.167838251E0
2.612239708E0,1.135001422E0,-4.633158267E-2,-5.171219051E-1,1.248114542E0
2.622268708E0,1.053360405E0,3.239392555E-1,-6.748686737E-1,1.292266424E0
2.632298708E0,8.968033983E-1,7.750624681E-1,-8.510375337E-1,1.459192602E0
2.642328708E0,7.327293576E-1,1.053180018E0,-1.005588507E0,1.630119231E0
2.652358708E0,6.206731707E-1,9.891296178E-1,-1.131564429E0,1.626053702E0
2.662387708E0,6.118093765E-1,5.979818809E-1,-1.221079892E0,1.490949075E0
2.672417708E0,7.239098561E-1,-2.895190358E-2,-1.254497022E0,1.448670587E0
2.682447708E0,9.528276180E-1,-6.724508500E-1,-1.259251100E0,1.716328625E0
2.692477708E0,1.298884990E0,-1.182117555E0,-1.292943049E0,2.180872729E0
2.702506708E0,1.711558228E0,-1.377473615E0,-1.330252671E0,2.568353032E0
2.712536708E0,2.043234227E0,-1.235520176E0,-1.590283906E0,2.868853275E0
2.722566708E0,2.221863888E0,-7.748660016E-1,-2.086585338E0,3.144985664E0
2.732596708E0,2.418364832E0,-3.582682586E-1,-2.598845283E0,3.568030467E0
2.742625708E0,2.733351708E0,-1.381293601E-1,-2.878798859E0,3.972124639E0
2.752655708E0,3.010065049E0,-2.990558445E-2,-2.691948743E0,4.038313260E0
2.762685708E0,3.129217563E0,4.874238968E-3,-2.313798198E0,3.891746191E0
2.772715708E0,3.123489923E0,1.799422145E-2,-2.010487042E0,3.714642814E0
2.782744708E0,3.064923334E0,-7.000754356E-2,-1.785473612E0,3.547755927E0
2.792774708E0,3.049910608E0,-3.739335340E-1,-1.618490874E0,3.472937332E0
2.802804708E0,3.318348970E0,-8.463563991E-1,-1.414978241E0,3.705391000E0
2.812834708E0,4.193622481E0,-1.556917647E0,-1.399728410E0,4.687184837E0
2.822863708E0,5.678859696E0,-2.188387116E0,-2.426242201E0,6.551727775E0
2.832893708E0,7.199634533E0,-2.339049398E0,-5.008713233E0,9.077064380E0
2.842923708E0,8.246242281E0,-2.295981731E0,-7.486683705E0,1.137200408E1
2.852953708E0,7.645653711E0,-2.032825452E0,-6.216788333E0,1.006165280E1
2.862982708E0,5.929214081E0,-1.605005148E0,-3.526831151E0,7.083089659E0
2.873012708E0,4.674333190E0,-1.310411898E0,-2.152475857E0,5.310341084E0
2.883042708E0,4.285931013E0,-9.845161647E-1,-2.280614225E0,4.953753927E0
2.893071708E0,4.489085212E0,-8.481006235E-1,-3.125807467E0,5.535506574E0
2.903101708E0,3.883381498E0,-1.154696453E0,-2.715902447E0,4.877509801E0
2.913131708E0,2.936853524E0,-1.640260935E0,-1.092008307E0,3.536671698E0
2.923161708E0,2.085299535E0,-2.319255989E0,8.166969824E-1,3.224037291E0
2.933190708E0,1.320228643E0,-2.791658388E0,2.515333595E0,3.982871241E0
2.943220708E0,4.990526931E-1,-2.996074124E0,3.636826633E0,4.738356435E0
2.953250708E0,-4.016829577E-1,-3.143197671E0,4.188599723E0,5.252181303E0
2.963280708E0,-1.204563408E0,-3.578367341E0,4.462084524E0,5.845159034E0
2.973309708E0,-1.567485904E0,-3.965019153E0,4.443481023E0,6.158158210E0
2.983339708E0,-2.001383073E0,-4.126273082E0,3.804645231E0,5.958774126E0
2.993369708E0,-3.088484397E0,-3.872143734E0,1.026620210E0,5.058278563E0
3.003399792E0,-4.152813301E0,-2.998591350E0,-2.062614677E0,5.521936953E0
3.013428792E0,-4.469096213E0,-1.779738078E0,-1.285140817E0,4.979144053E0
3.023458792E0,-4.493380576E0,-9.478751725E-1,5.578606991E-1,4.626029065E0
3.033488792E0,-3.992795474E0,-3.248736405E-1,1.870638893E0,4.421227030E0
3.043518792E0,-3.248045557E0,3.263179028E-1,2.592168932E0,4.168407740E0
3.053547792E0,-2.668794647E0,7.813008624E-1,2.392307593E0,3.668246382E0
3.063577792E0,-2.295312225E0,8.146066028E-1,2.051275610E0,3.184301141E0
3.073607792E0,-2.297299986E0,7.618764120E-1,2.061618165E0,3.179357223E0
3.083637792E0,-2.434086826E0,6.767058688E-1,2.144159800E0,3.313628035E0
3.093666792E0,-2.515955738E0,6.224097937E-1,2.328701581E0,3.484290212E0
3.103696792E0,-2.439761841E0,5.905208337E-1,2.583913833E0,3.602466293E0
3.113726792E0,-2.330394642E0,6.410624117E-1,2.809809315E0,3.706309295E0
3.123756792E0,-2.153230147E0,6.842622256E-1,2.964316142E0,3.727168503E0
3.133785792E0,-1.877949082E0,7.755109495E-1,3.027897595E0,3.646405605E0
3.143815792E0,-1.655059068E0,8.847813767E-1,2.970937529E0,3.514047297E0
3.153845792E0,-1.538864368E0,1.010004762E0,3.045450059E0,3.558508006E0
3.163875792E0,-1.543122895E0,1.328441788E0,3.404355372E0,3.966815014E0
3.173904792E0,-1.892541101E0,1.651592839E0,3.810848542E0,4.564212674E0
3.183934792E0,-2.616975452E0,1.938238553E0,3.836321937E0,5.032166055E0
3.193964792E0,-3.363259386E0,2.160797029E0,3.398673925E0,5.247050786E0
3.203994792E0,-3.858857106E0,2.351518001E0,2.707541221E0,5.267940256E0
3.214023792E0,-4.272209937E0,2.463490427E0,2.002976586E0,5.322826132E0
3.224053792E0,-4.452100403E0,2.523777559E0,1.631923975E0,5.371575842E0
3.234083792E0,-4.259367112E0,2.570070550E0,1.497473975E0,5.195180376E0
3.244113792E0,-3.739321015E0,2.446287333E0,1.105678951E0,4.603191209E0
3.254142792E0,-2.957753811E0,2.128837903E0,3.097574186E-1,3.657349872E0
3.264172792E0,-2.021117865E0,1.766622773E0,-3.895812678E-1,2.712498297E0
3.274202792E0,-1.313752705E0,1.477786692E0,-8.145883302E-1,2.138540116E0
3.284232792E0,-8.704720706E-1,1.214188364E0,-1.289275091E0,1.973374082E0
3.294261792E0,-2.795150346E-1,1.059080443E0,-1.693848181E0,2.017151879E0
3.304291792E0,4.118541893E-1,8.828260678E-1,-2.208898272E0,2.414174251E0
3.314321792E0,9.790919951E-1,6.744231158E-1,-2.651834213E0,2.906147341E0
3.324350792E0,1.371853271E0,3.841088587E-1,-2.734176750E0,3.083057494E0
3.334380792E0,1.805284563E0,1.044932520E-1,-2.530085535E0,3.109872025E0
3.344410792E0,3.077982213E0,-1.402483910E-1,-3.840806459E0,4.923965716E0
3.354440792E0,5.298138714E0,-3.588991731E-1,-6.677415025E0,8.531527054E0
3.364469792E0,7.852642221E0,-8.333130151E-1,-7.430446354E0,1.084296700E1
3.374499792E0,9.222586961E0,-1.995715513E0,-5.543695459E0,1.094401891E1
3.384529792E0,7.672623993E0,-3.312547070E0,-2.884683496E0,8.841013850E0
3.394559792E0,4.540548896E0,-2.881664579E0,-6.092915654E-1,5.412190982E0
3.404588792E0,2.160873628E0,-4.204031110E-2,5.952325201E-1,2.241750204E0
3.414618792E0,1.222278571E-1,3.231153243E0,1.968255819E0,3.785409080E0
3.424648792E0,-1.649366219E0,5.640480326E0,3.260284656E0,6.720482369E0
3.434678792E0,-2.692814716E0,6.627261702E0,4.256488820E0,8.324034229E0
3.444707792E0,-3.794267592E0,4.994522626E0,4.427756106E0,7.677678487E0
3.454737792E0,-4.762528790E0,-1.201936108E-1,4.562870057E0,6.596659013E0
3.464767792E0,-3.984335430E0,-7.725588073E0,1.215906129E0,8.777133222E0
3.474797792E0,-1.551622700E0,-1.674970007E1,-8.934578261E0,1.904695971E1
3.484826792E0,1.179127874E0,-2.017029550E1,-6.711563934E0,2.129028542E1
3.494856792E0,2.292214955E0,-1.690124236E1,-1.808582393E0,1.715159505E1
3.504886792E0,1.595846069E0,-9.552359984E0,1.349510475E0,9.778317057E0
3.514916792E0,-1.556246679E0,-2.291025047E0,3.312370484E0,4.317695880E0
3.524945792E0,-4.106904472E0,2.398465880E0,3.715269370E0,6.035108070E0
3.534975792E0,-5.368557901E0,5.264414313E0,3.588131021E0,8.331275786E0
3.545005792E0,-5.879485266E0,6.838043302E0,3.310499375E0,9.606590930E0
3.555035792E0,-5.835689036E0,7.507477573E0,3.227412779E0,1.004159745E1
3.565064792E0,-5.343827688E0,7.242587010E0,2.790359137E0,9.423251300E0
3.575094792E0,-4.289315966E0,5.900808892E0,2.143037281E0,7.603314134E0
3.585124792E0,-3.513788352E0,3.940781275E0,1.942012346E0,5.625644638E0
3.595154792E0,-2.634673512E0,1.808720387E0,1.954144149E0,3.745884850E0
3.605183792E0,-1.645720772E0,-7.607052147E-2,2.062649760E0,2.639830983E0
3.615213792E0,-9.265942311E-1,-1.606170498E0,2.302614228E0,2.956415536E0
3.625243792E0,-5.795000017E-1,-2.450400265E0,2.514079367E0,3.558212581E0
3.635273792E0,-5.288169211E-1,-2.647550835E0,2.587540276E0,3.739590544E0
3.645302792E0,-6.042670530E-1,-2.166182315E0,2.549195990E0,3.399394753E0
3.655332792E0,-6.364156294E-1,-1.141612723E0,2.467412154E0,2.792208302E0
3.665362792E0,-6.668679285E-1,-1.181815839E-1,2.274344695E0,2.373040984E0
3.675392792E0,-8.133912590E-1,7.184023637E-1,2.004551241E0,2.279458921E0
3.685421792E0,-1.023180293E0,1.300820126E0,1.763982756E0,2.418815015E0
3.695451792E0,-1.136770059E0,1.614065993E0,1.552108312E0,2.511273663E0
3.705481792E0,-1.091841077E0,1.658032962E0,1.275735571E0,2.359807511E0
3.715511792E0,-1.020503438E0,1.362832772E0,9.889377560E-1,1.968943452E0
3.725540792E0,-7.128476550E-1,8.176956868E-1,8.329143081E-1,1.367671108E0
3.735570792E0,-3.166632727E-1,3.137200767E-1,7.585837718E-1,8.798552458E-1
3.745600792E0,1.062292904E-2,4.334950268E-2,6.886324346E-1,6.900772826E-1
3.755629792E0,3.318455681E-1,-1.120805991E-1,6.123907359E-1,7.054827816E-1
3.765659792E0,6.245346719E-1,-1.272319043E-1,5.361809045E-1,8.328994394E-1
3.775689792E0,7.226293159E-1,1.001569569E-2,3.982204559E-1,8.251502734E-1
3.785719792E0,7.062281683E-1,2.671218610E-1,2.117265093E-1,7.841813751E-1
3.795748792E0,7.099325256E-1,5.135720605E-1,-2.211066127E-2,8.764983363E-1
3.805778792E0,7.269110857E-1,7.045099640E-1,-2.829246922E-1,1.051085343E0
3.815808792E0,8.308794039E-1,7.491382527E-1,-5.304168655E-1,1.238107732E0
3.825838792E0,9.400070129E-1,6.126256478E-1,-7.568413746E-1,1.353415027E0
3.835867792E0,1.080688390E0,3.536208916E-1,-9.646023023E-1,1.491104535E0
3.845897792E0,1.229257223E0,7.572319686E-2,-1.162106921E0,1.693310314E0
3.855927792E0,1.341855008E0,-2.083362937E-1,-1.372065233E0,1.930425310E0
3.865957792E0,1.429789384E0,-3.740411228E-1,-1.579009597E0,2.162747269E0
3.875986792E0,1.444584448E0,-3.332374978E-1,-1.815037719E0,2.343551446E0
3.886016792E0,1.397731732E0,-1.413119996E-1,-2.105921495E0,2.531507144E0
3.896046792E0,1.353264388E0,9.650712490E-2,-2.431757295E0,2.784615174E0
3.906076792E0,1.251261903E0,2.197734475E-1,-2.685625857E0,2.970949842E0
3.916105792E0,1.144345858E0,1.609071887E-1,-2.747208732E0,2.980364807E0
3.926135792E0,1.182282885E0,-4.908328235E-2,-2.561119632E0,2.821264922E0
3.936165792E0,1.285219170E0,-2.736584634E-1,-2.307518580E0,2.655432030E0
3.946195792E0,1.478615681E0,-4.804206866E-1,-2.094319450E0,2.608310244E0
3.956224792E0,1.772163887E0,-5.994132793E-1,-1.936365105E0,2.692465588E0
3.966254792E0,2.130121513E0,-5.711378986E-1,-1.827238227E0,2.863985980E0
3.976284792E0,2.539935755E0,-4.420220214E-1,-1.784764929E0,3.135608866E0
3.986314792E0,3.003221760E0,-3.024618477E-1,-1.775260865E0,3.501767447E0
3.996344167E0,3.364832580E0,-1.494063002E-1,-1.746037943E0,3.793819847E0
4.006374167E0,3.565452011E0,2.893728554E-2,-1.701125187E0,3.950583793E0
4.016404167E0,3.643858495E0,8.280709863E-2,-1.659998796E0,4.005016573E0
4.026434167E0,3.705580534E0,-1.551529437E-1,-1.557610834E0,4.022629866E0
4.036463167E0,3.849816726E0,-7.566285360E-1,-1.419785529E0,4.172453297E0
4.046493167E0,4.222254834E0,-1.623599294E0,-1.431353661E0,4.744711146E0
4.056523167E0,5.000224831E0,-2.635834769E0,-2.177950713E0,6.057503000E0
4.066553167E0,6.052092733E0,-3.578956740E0,-5.044062576E0,8.653284063E0
4.076582167E0,7.122329080E0,-3.907503601E0,-8.539194801E0,1.178617851E1
4.086612167E0,6.837720535E0,-3.374602985E0,-7.164124392E0,1.046265003E1
4.096642167E0,4.949088591E0,-2.339386783E0,-3.792222236E0,6.659366178E0
4.106671167E0,3.236026897E0,-1.761056224E0,-2.089147587E0,4.235295355E0
4.116701167E0,2.377232886E0,-1.748608087E0,-2.411034470E0,3.810768118E0
4.126731167E0,2.170769894E0,-2.032720202E0,-2.983050621E0,4.212218460E0
4.136761167E0,2.028604932E0,-2.527681160E0,-1.539513994E0,3.588107210E0
4.146790167E0,1.562728902E0,-3.068983056E0,1.044678167E0,3.598906930E0
4.156820167E0,6.819480439E-1,-3.406135265E0,3.040614120E0,4.616507858E0
4.166850167E0,-1.927262744E-1,-3.675957370E0,4.028338067E0,5.456859315E0
4.176880167E0,-7.463660878E-1,-3.688901351E0,4.501110595E0,5.867286605E0
4.186909167E0,-1.028224979E0,-3.608362972E0,4.782968609E0,6.079006388E0
4.196939167E0,-1.388755525E0,-3.497413225E0,4.432506384E0,5.814434969E0
4.206969167E0,-1.990291636E0,-3.078898764E0,2.463678707E0,4.417079484E0
4.216999167E0,-2.668882940E0,-2.423134698E0,-2.673190291E0,4.487812857E0
4.227028167E0,-2.810841349E0,-1.679782265E0,-4.160127876E0,5.294257407E0
4.237058167E0,-3.044633788E0,-1.038450882E0,-1.202933716E0,3.434417660E0
4.247088167E0,-3.332792177E0,-4.195710522E-1,1.737206601E0,3.781723197E0
4.257118167E0,-2.974829143E0,2.765382171E-2,3.099776248E0,4.296392202E0
4.267147167E0,-2.373626908E0,3.662333357E-1,3.045970169E0,3.878938750E0
4.277177167E0,-2.008541673E0,5.791649562E-1,2.403637158E0,3.185458097E0
4.287207167E0,-1.892255172E0,5.955038309E-1,1.896305830E0,2.744308702E0
4.297237167E0,-1.864439382E0,4.355450606E-1,1.988316447E0,2.760296361E0
4.307266167E0,-2.051462867E0,2.789344060E-1,2.203408613E0,3.023460570E0
4.317296167E0,-2.408287741E0,5.566958606E-2,2.378621746E0,3.385378909E0
4.327326167E0,-2.791437364E0,-2.022879338E-1,2.449398637E0,3.719219897E0
4.337356167E0,-3.137196089E0,-2.364695871E-1,2.708454849E0,4.151342534E0
4.347385167E0,-3.438255774E0,-2.184461296E-1,3.043445342E0,4.596942574E0
4.357415167E0,-3.574464324E0,-8.733401299E-2,3.068098372E0,4.711438215E0
4.367445167E0,-3.560263191E0,2.026019293E-1,3.043023173E0,4.687911215E0
4.377475167E0,-3.468043245E0,5.741199785E-1,3.127451119E0,4.705091732E0
4.387504167E0,-3.525784500E0,1.157251686E0,3.745789205E0,5.272696138E0
4.397534167E0,-3.784512098E0,1.634825363E0,4.280267400E0,5.942716113E0
4.407564167E0,-4.154086533E0,2.010072767E0,4.212758956E0,6.248533065E0
4.417594167E0,-4.577957335E0,2.316790802E0,3.729258834E0,6.342916082E0
4.427623167E0,-4.933364843E0,2.360185913E0,3.258535754E0,6.366052268E0
4.437653167E0,-5.095133911E0,2.162318475E0,2.712230396E0,6.163781670E0
4.447683167E0,-4.948556494E0,1.890086147E0,2.130905186E0,5.709763036E0
4.457713167E0,-4.430280641E0,1.694499123E0,1.642814122E0,5.019716334E0
4.467742167E0,-3.508457446E0,1.625014320E0,1.289859813E0,4.075988656E0
4.477772167E0,-2.288403448E0,1.577411553E0,6.476285425E-1,2.853846575E0
4.487802167E0,-1.118642521E0,1.550927174E0,-1.633638963E-1,1.919224831E0
4.497832167E0,-1.600982264E-1,1.561973734E0,-7.388380900E-1,1.735302599E0
4.507861167E0,4.215535507E-1,1.540148417E0,-1.068652043E0,1.921400981E0
4.517891167E0,8.190598422E-1,1.444295011E0,-1.193211770E0,2.044651909E0
4.527921167E0,1.155744274E0,1.261989936E0,-1.534097718E0,2.298220884E0
4.537950167E0,1.321516638E0,1.032099051E0,-2.290735610E0,2.838856162E0
4.547980167E0,1.393476567E0,7.050011301E-1,-3.124582475E0,3.493110245E0
4.558010167E0,1.606328373E0,3.012345171E-1,-4.224338490E0,4.529466718E0
4.568040167E0,2.279733489E0,-2.534037083E-1,-5.177339916E0,5.662706670E0
4.578070167E0,4.156439745E0,-7.240338171E-1,-6.985668540E0,8.160868904E0
4.588099167E0,6.967029955E0,-1.104871743E0,-8.199380940E0,1.081619599E1
4.598129167E0,8.971492903E0,-1.608368466E0,-5.860121627E0,1.083584605E1
4.608159167E0,7.750567378E0,-2.413479776E0,-1.653827498E0,8.284402495E0
4.618188167E0,3.875667266E0,-2.278679820E0,1.755038854E-1,4.499331072E0
4.628218167E0,1.216732779E0,-6.386738241E-2,1.990333736E-1,1.234557404E0
4.638248167E0,-3.770150167E-1,2.780947459E0,6.747792113E-1,2.886370745E0
4.648278167E0,-2.059817369E0,5.124066519E0,1.705388100E0,5.779900852E0
4.658307167E0,-3.425983053E0,6.294162784E0,3.300415267E0,7.889650560E0
4.668337167E0,-4.714720785E0,5.036254204E0,4.664560738E0,8.327699284E0
4.678367167E0,-5.944893975E0,6.366664749E-1,5.195013710E0,7.920560335E0
4.688397167E0,-5.768563001E0,-6.179025845E0,2.172028946E0,8.727794064E0
4.698426167E0,-3.746904561E0,-1.502615607E1,-9.536671904E0,1.818715951E1
4.708456167E0,1.796668106E-1,-1.958531899E1,-8.783304945E0,2.146540114E1
4.718486167E0,2.871345413E0,-1.810196809E1,-4.008495541E0,1.876150073E1
4.728516167E0,3.230499817E0,-1.203989416E1,-7.925481279E-1,1.249092923E1
4.738545167E0,9.098761645E-1,-4.393047034E0,2.830751703E0,5.304704712E0
4.748575167E0,-2.322774258E0,1.493332100E0,4.799482316E0,5.537179021E0
4.758605167E0,-3.828771135E0,4.926445248E0,5.395869076E0,8.248924431E0
4.768635167E0,-4.683048465E0,6.879781896E0,5.061689007E0,9.740792446E0
4.778664167E0,-4.831592301E0,7.781627787E0,4.558989844E0,1.023144191E1
4.788694167E0,-4.565279694E0,7.872697586E0,3.855020163E0,9.883436975E0
4.798724167E0,-3.938032499E0,7.051266114E0,2.880281128E0,8.574641284E0
4.808754167E0,-3.086361273E0,5.381693087E0,2.389840068E0,6.648276614E0
4.818783167E0,-2.150505637E0,3.130727899E0,2.260103216E0,4.419750923E0
4.828813167E0,-1.117940855E0,9.192472047E-1,2.264232520E0,2.687295310E0
4.838843167E0,-3.849717616E-1,-1.027832338E0,2.423807713E0,2.660730426E0
4.848873167E0,-5.609321684E-2,-2.343881537E0,2.741822569E0,3.607564014E0
4.858902167E0,6.327798307E-2,-2.885686294E0,2.971997044E0,4.142940492E0
4.868932167E0,6.045787096E-2,-2.645148799E0,3.035867350E0,4.027028419E0
4.878962167E0,1.654610002E-1,-1.730461838E0,3.013336859E0,3.478803607E0
4.888992167E0,2.797302121E-1,-6.666030496E-1,2.835197926E0,2.925911122E0
4.899021167E0,2.368332839E-1,2.015769124E-1,2.411510434E0,2.431482228E0
4.909051167E0,1.211513847E-1,8.673221755E-1,1.939295729E0,2.127861213E0
4.919081167E0,-3.032614544E-2,1.268452864E0,1.506784204E0,1.969845421E0
4.929111167E0,-1.474552305E-1,1.474856068E0,1.128819600E0,1.863109539E0
4.939140167E0,-1.212858707E-1,1.326094131E0,7.601561612E-1,1.533321002E0
4.949170167E0,3.769904584E-2,7.891975272E-1,4.308813214E-2,7.912714718E-1
4.959200167E0,6.705532824E-1,-2.216088885E-1,-2.974140633E0,3.056839006E0
4.969229167E0,1.085554882E0,-7.272158718E-1,-4.432542052E0,4.621114732E0
4.979259167E0,1.058411376E0,-3.643043393E-1,-3.146206648E0,3.339396437E0
4.989289167E0,1.162728627E0,7.596877992E-2,-1.557250353E0,1.944926162E0
4.999318458E0,1.090024493E0,4.687782955E-1,-4.657062415E-1,1.274672032E0
5.009347458E0,8.042345193E-1,6.757404935E-1,3.846415401E-2,1.051141222E0
5.019377458E0,5.609282215E-1,7.351341712E-1,3.886814544E-1,1.003063304E0
5.029407458E0,3.495297410E-1,7.304119599E-1,6.251984040E-1,1.023008170E0
5.039437458E0,2.209396747E-1,6.453805804E-1,7.521367049E-1,1.015401426E0
5.049466458E0,2.328156620E-1,5.760676861E-1,7.382559997E-1,9.649243662E-1
5.059496458E0,2.806654742E-1,4.967841196E-1,6.941503789E-1,8.985612492E-1
5.069526458E0,3.662498541E-1,4.645449114E-1,6.661610732E-1,8.909048803E-1
5.079556458E0,5.185202667E-1,6.641074580E-1,5.642190345E-1,1.014024212E0
5.089585458E0,6.005368218E-1,1.007002802E0,3.934087821E-1,1.236717262E0
5.099615458E0,5.719734657E-1,1.229788150E0,2.206850284E-1,1.374130424E0
5.109645458E0,4.983330470E-1,1.135491273E0,1.180583538E-1,1.245638002E0
5.119675458E0,4.328035936E-1,8.357705998E-1,7.684118450E-2,9.443177504E-1
5.129704458E0,4.789192678E-1,4.141489291E-1,9.168141782E-2,6.397565810E-1
5.139734458E0,5.322368114E-1,7.425554574E-2,1.228255887E-1,5.512495213E-1
5.149764458E0,5.243114953E-1,-1.012199807E-1,1.057751079E-1,5.443678922E-1
5.159794458E0,4.519574641E-1,-4.983991206E-2,9.408813179E-2,4.643297780E-1
5.169823458E0,3.855681776E-1,1.883306301E-1,7.416023612E-3,4.291692477E-1
5.179853458E0,3.485839538E-1,3.755152059E-1,-9.195448279E-2,5.205555394E-1
5.189883458E0,4.566557018E-1,3.788387632E-1,-1.986835639E-1,6.257223003E-1
5.199913458E0,6.251970153E-1,2.150167376E-1,-3.176955986E-1,7.335080086E-1
5.209942458E0,8.204371539E-1,-5.201916933E-2,-4.168298775E-1,9.217213593E-1
5.219972458E0,1.059336698E0,-4.244528925E-1,-5.130089736E-1,1.251212493E0
5.230002458E0,1.296343790E0,-7.527395529E-1,-5.908647962E-1,1.611286835E0
5.240032458E0,1.573230793E0,-8.603353375E-1,-7.470035805E-1,1.942484587E0
5.250061458E0,1.931033321E0,-7.606923509E-1,-9.620131552E-1,2.287577726E0
5.260091458E0,2.281335918E0,-5.657011575E-1,-1.140267571E0,2.612416794E0
5.270121458E0,2.690340759E0,-5.490436095E-1,-1.242873342E0,3.013986800E0
5.280151458E0,3.465417845E0,-9.511700785E-1,-1.634253505E0,3.947737311E0
5.290180458E0,5.065915375E0,-1.645032263E0,-5.781642637E0,7.861108148E0
5.300210458E0,7.352043963E0,-2.149359875E0,-1.669272480E1,1.836625600E1
5.310240458E0,7.871616436E0,-2.662043744E0,-1.375815812E1,1.607282605E1
5.320270458E0,6.958464369E0,-3.061062418E0,-4.332635063E0,8.749974634E0
5.330299458E0,5.578015106E0,-3.011775652E0,-8.100383194E-1,6.390712572E0
5.340329458E0,4.585845521E0,-2.398494532E0,-4.678544354E-1,5.196310512E0
5.350359458E0,5.207928455E0,-1.355097490E0,-1.288369065E0,5.533416924E0
5.360389458E0,6.878652799E0,-2.394797337E-1,-2.332363253E0,7.267264494E0
5.370418458E0,7.740839950E0,1.721016830E-1,-2.909426574E0,8.271335147E0
5.380448458E0,7.130932088E0,-6.083846623E-1,-1.814647125E0,7.383310134E0
5.390478458E0,5.402511513E0,-1.559449491E0,7.707472229E-1,5.675655438E0
5.400508458E0,4.056140993E0,-2.263176513E0,3.135103955E0,5.603849078E0
5.410537458E0,3.062709578E0,-2.933467986E0,5.056460427E0,6.599486074E0
5.420567458E0,2.087748203E0,-3.464512112E0,6.153554789E0,7.363950928E0
5.430597458E0,1.156892959E0,-3.867741365E0,6.171798102E0,7.374884162E0
5.440627458E0,7.347200422E-1,-4.115259266E0,5.826553931E0,7.171046164E0
5.450656458E0,3.491673598E-1,-4.202657599E0,5.643989825E0,7.045485781E0
5.460686458E0,-2.626184817E-1,-4.106030606E0,5.424277189E0,6.808174412E0
5.470716458E0,-7.390420116E-1,-3.535988476E0,4.231037060E0,5.563368781E0
5.480745458E0,-5.815041348E-1,-2.196028842E0,4.686965076E-1,2.319561629E0
5.490775458E0,-3.621610424E-1,-6.026976603E-1,-2.668969771E0,2.760037088E0
5.500805458E0,-1.052398830E0,3.340245330E-1,-1.849788599E-1,1.119523499E0
5.510835458E0,-1.953167371E0,8.936480945E-1,2.421590449E0,3.236907475E0
5.520864458E0,-2.286839317E0,1.116648620E0,3.094911364E0,4.006870919E0
5.530894458E0,-2.022831391E0,1.009608906E0,2.436971988E0,3.324152441E0
5.540924458E0,-1.757335056E0,7.467964429E-1,1.951241591E0,2.730068712E0
5.550954458E0,-1.693033810E0,4.069404817E-1,2.272548869E0,2.862942961E0
5.560983458E0,-1.753682885E0,-3.270815492E-2,2.702680431E0,3.221948944E0
5.571013458E0,-1.784009762E0,-4.986189759E-1,3.058581736E0,3.575784383E0
5.581043458E0,-1.857117791E0,-8.586472464E-1,3.512620371E0,4.065053930E0
5.591073458E0,-1.927894536E0,-1.025953628E0,3.962980814E0,4.524883990E0
5.601102458E0,-1.962235526E0,-9.989628804E-1,4.390578631E0,4.911769112E0
5.611132458E0,-1.936495205E0,-8.671976298E-1,4.598412942E0,5.064330853E0
5.621162458E0,-1.925904144E0,-6.804972035E-1,4.586464157E0,5.020740650E0
5.631192458E0,-2.040158738E0,-5.075435811E-1,4.560157826E0,5.021442776E0
5.641221458E0,-2.332880586E0,-3.199578863E-1,4.756537733E0,5.307481143E0
5.651251458E0,-2.861435552E0,-1.199772638E-1,5.063750736E0,5.817540672E0
5.661281458E0,-3.456748763E0,5.691562772E-2,5.063536727E0,6.131211592E0
5.671311458E0,-4.023390445E0,2.557513654E-1,4.673874476E0,6.172372482E0
5.681340458E0,-4.487054766E0,4.779905838E-1,4.108922347E0,6.102899174E0
5.691370458E0,-4.901421504E0,7.072324276E-1,3.437233389E0,6.028157582E0
5.701400458E0,-5.159454453E0,9.597882897E-1,2.821504916E0,5.958359993E0
5.711430458E0,-5.161485776E0,1.134422402E0,2.152722901E0,5.706318033E0
5.721459458E0,-4.992227594E0,1.178985202E0,1.569548217E0,5.364310213E0
5.731489458E0,-4.536136294E0,1.244795614E0,1.246139596E0,4.866098282E0
5.741519458E0,-3.883689061E0,1.432973047E0,1.063903227E0,4.274148167E0
5.751549458E0,-3.225230598E0,1.680476330E0,7.773317724E-1,3.718918901E0
5.761578458E0,-2.795943228E0,1.658387303E0,5.680169472E-1,3.300028823E0
5.771608458E0,-2.507954409E0,1.498477065E0,3.868120265E-1,2.947014145E0
5.781638458E0,-2.145157481E0,1.218269135E0,-1.302712870E-1,2.470394890E0
5.791668458E0,-1.542288205E0,8.046575654E-1,-7.379396653E-1,1.889624739E0
5.801697458E0,-7.926380289E-1,5.030166668E-1,-1.119237475E0,1.460819406E0
5.811727458E0,-1.566925156E-1,6.063831604E-1,-1.353675739E0,1.491539838E0
5.821757458E0,4.905930877E-2,8.658954549E-1,-1.554950936E0,1.780464593E0
5.831787458E0,1.365032494E-2,9.605028194E-1,-1.689391872E0,1.943398285E0
5.841816458E0,1.293705234E-1,8.142329657E-1,-1.901808060E0,2.072820772E0
5.851846458E0,4.411610189E-1,5.637183666E-1,-1.948054274E0,2.075407645E0
5.861876458E0,1.170528666E0,2.476599884E-1,-1.976037586E0,2.310021076E0
5.871906458E0,2.838701870E0,-1.499769884E-1,-3.277373436E0,4.338421146E0
5.881935458E0,5.320010224E0,-5.552890205E-1,-4.296997161E0,6.861125220E0
5.891965458E0,7.336526037E0,-8.819735438E-1,-3.112175853E0,8.017987913E0
5.901995458E0,7.085886308E0,-1.342882072E0,-1.225968164E0,7.315470933E0
5.912025458E0,4.775410791E0,-1.501645086E0,-7.017895469E-1,5.054898095E0
5.922054458E0,2.825928919E0,-1.928616375E-1,-7.740039758E-1,2.936350119E0
5.932084458E0,1.732461878E0,2.278040720E0,3.778485373E-1,2.886808479E0
5.942114458E0,5.644817206E-1,4.458522400E0,2.508956037E0,5.147030406E0
5.952144458E0,-4.781750634E-1,5.586200039E0,3.937153662E0,6.850946010E0
5.962173458E0,-1.422750944E0,4.691111190E0,4.498232596E0,6.653182767E0
5.972203458E0,-2.031701617E0,7.537838656E-1,4.104938346E0,4.641822961E0
5.982233458E0,-9.513837942E-1,-6.632047648E0,-2.889159540E0,7.296329898E0
5.992262458E0,2.626528633E0,-1.548175708E1,-1.201181583E1,1.977036101E1
6.002292708E0,4.422596230E0,-1.907040383E1,-6.504653192E0,2.062886746E1
6.012322708E0,3.521051763E0,-1.678485821E1,-2.498922215E0,1.733129778E1
6.022352708E0,2.347758826E0,-1.035725495E1,-6.087559605E-1,1.063744731E1
6.032381708E0,-8.286782196E-1,-2.592666530E0,1.409675986E0,3.065259159E0
6.042411708E0,-3.915893771E0,3.033655933E0,3.743834188E0,6.209153467E0
6.052441708E0,-5.444264141E0,5.898971112E0,4.693690982E0,9.298849781E0
6.062471708E0,-5.770176247E0,7.192410298E0,5.139668645E0,1.055660426E1
6.072501708E0,-5.259697364E0,7.588253349E0,5.131429918E0,1.056302884E1
6.082530708E0,-4.518224226E0,7.364213773E0,3.774933189E0,9.428473643E0
6.092560708E0,-3.364601907E0,6.922054927E0,2.316520661E0,8.037515684E0
6.102590708E0,-2.145157043E0,5.807767997E0,1.748422730E0,6.433416657E0
6.112619708E0,-1.200688604E0,3.679849277E0,1.671093303E0,4.216099696E0
6.122649708E0,-2.436154693E-1,1.351531273E0,1.886799427E0,2.333666077E0
6.132679708E0,3.390934843E-1,-8.621842271E-1,2.427434156E0,2.598226821E0
6.142709708E0,5.777591394E-1,-2.662562976E0,3.032898134E0,4.076949634E0
6.152738708E0,5.059651253E-1,-3.778630968E0,3.356999942E0,5.079714688E0
6.162768708E0,2.783549470E-1,-3.844800400E0,3.429904196E0,5.159865733E0
6.172798708E0,1.518592072E-1,-2.834862880E0,3.295612364E0,4.349778112E0
6.182828708E0,9.434307039E-2,-1.341269410E0,2.909746417E0,3.205390531E0
6.192857708E0,5.412942946E-2,-8.038518190E-2,2.341205267E0,2.343210164E0
6.202887708E0,5.499145523E-2,8.462575811E-1,1.768608488E0,1.961415799E0
6.212917708E0,-1.164047612E-1,1.565184440E0,1.228371370E0,1.993050080E0
6.222947708E0,-2.599717395E-1,1.928708176E0,8.046546417E-1,2.105936757E0
6.232976708E0,-3.719190221E-1,1.844771980E0,5.297963297E-1,1.955042600E0
6.243006708E0,-4.368619998E-1,1.379078676E0,3.310278716E-1,1.484010058E0
6.253036708E0,-4.649337512E-1,5.799747956E-1,1.765690289E-1,7.640096717E-1
6.263066708E0,-4.524303576E-1,-2.788121992E-1,2.744865753E-2,5.321493209E-1
6.273095708E0,-2.997396764E-1,-8.897088253E-1,-2.725796521E-2,9.392383426E-1
6.283125708E0,-4.149359643E-2,-1.048898687E0,-8.791391060E-2,1.053394052E0
6.293155708E0,1.672609194E-1,-6.485959643E-1,-1.921161906E-1,6.968224815E-1
6.303185708E0,1.655264890E-1,5.465333998E-2,-4.048348993E-1,4.407689892E-1
6.313214708E0,1.268040343E-1,7.380899388E-1,-6.044964100E-1,9.624302211E-1
6.323244708E0,1.904002520E-1,1.151878095E0,-7.731352258E-1,1.400290498E0
6.333274708E0,3.742545462E-1,1.180728257E0,-9.130145113E-1,1.538759624E0
6.343304708E0,5.745069180E-1,9.263737911E-1,-1.031262461E0,1.500576177E0
6.353333708E0,6.651526478E-1,5.879784644E-1,-1.092461174E0,1.407699590E0
6.363363708E0,6.100343080E-1,2.937845796E-1,-1.116959838E0,1.306158687E0
6.373393708E0,4.455316664E-1,1.269997698E-1,-1.081042001E0,1.176128911E0
6.383423708E0,2.387564331E-1,1.060456878E-1,-1.055896634E0,1.087735273E0
6.393452708E0,1.381958722E-1,2.149693751E-1,-1.001657424E0,1.033744420E0
6.403482708E0,2.033300538E-1,2.622943997E-1,-9.299009778E-1,9.873486169E-1
6.413512708E0,3.098106283E-1,2.269719547E-1,-8.884021188E-1,9.678621898E-1
6.423542708E0,4.035457344E-1,1.758941871E-1,-8.230242544E-1,9.333578350E-1
6.433571708E0,5.551900564E-1,6.901644051E-2,-7.547996731E-1,9.395327638E-1
6.443601708E0,6.923938023E-1,-1.029975343E-1,-7.251260769E-1,1.007881688E0
6.453631708E0,8.717491025E-1,-2.586416441E-1,-7.346940221E-1,1.169024082E0
6.463661708E0,1.064766861E0,-2.842676514E-1,-8.070993626E-1,1.365996320E0
6.473690708E0,1.367566093E0,-1.664398241E-1,-9.332214653E-1,1.663983635E0
6.483720708E0,1.692842460E0,-4.219292343E-2,-1.089440356E0,2.013548144E0
6.493750708E0,1.985028850E0,6.628988385E-3,-1.216128470E0,2.327950157E0
6.503780708E0,2.254619259E0,-3.548616707E-2,-1.317038548E0,2.611351720E0
6.513809708E0,2.541715647E0,-1.705960250E-1,-1.453723646E0,2.933041744E0
6.523839708E0,2.861812112E0,-3.515977550E-1,-1.667481770E0,3.330778438E0
6.533869708E0,3.095138236E0,-4.264584875E-1,-1.868473669E0,3.640458954E0
6.543899708E0,3.271177434E0,-3.845678651E-1,-2.071976946E0,3.891218667E0
6.553928708E0,3.518809064E0,-4.998422134E-1,-2.468292160E0,4.327161385E0
6.563958708E0,3.936810139E0,-9.197711152E-1,-3.691823205E0,5.474852651E0
6.573988708E0,4.686533698E0,-1.615482189E0,-7.053678090E0,8.621354615E0
6.584018708E0,5.712986970E0,-2.176054169E0,-1.025666062E1,1.194037348E1
6.594047708E0,6.633429930E0,-2.468317303E0,-8.715683650E0,1.122756093E1
6.604077708E0,7.096963273E0,-2.680565969E0,-5.251324736E0,9.226523348E0
6.614107708E0,6.825447230E0,-2.543908353E0,-2.795518720E0,7.802123077E0
6.624137708E0,5.946652232E0,-1.921946456E0,-1.204217691E0,6.364486719E0
6.634166708E0,5.670915084E0,-1.258966926E0,-3.385619724E-1,5.818840075E0
6.644196708E0,6.573510588E0,-7.966363549E-1,-6.321736206E-1,6.651715148E0
6.654226708E0,7.893574485E0,-5.907313335E-1,-1.734183006E0,8.103386475E0
6.664256708E0,7.482043355E0,-1.519033536E0,-1.959379746E0,7.882106611E0
6.674285708E0,5.335266194E0,-2.647487100E0,-5.406620644E-2,5.956272028E0
6.684315708E0,4.075080417E0,-3.504810537E0,2.584382195E0,5.963975908E0
6.694345708E0,3.154960515E0,-4.077783877E0,4.859713315E0,7.085118961E0
6.704375708E0,1.937947215E0,-4.599173664E0,5.728043550E0,7.597270610E0
6.714404708E0,8.087624569E-1,-5.168823447E0,6.125192285E0,8.055359275E0
6.724434708E0,1.833862245E-2,-5.386077914E0,6.425294781E0,8.384186580E0
6.734464708E0,-5.367653337E-1,-5.148869238E0,6.607344332E0,8.393805488E0
6.744494708E0,-1.119997467E0,-4.546383247E0,6.629538023E0,8.116327332E0
6.754523708E0,-1.368208263E0,-3.574310542E0,6.247958086E0,7.326982322E0
6.764553708E0,-1.883890291E0,-2.487271637E0,4.676115421E0,5.621531665E0
6.774583708E0,-2.611961757E0,-1.223682488E0,2.821840546E0,4.035161350E0
6.784613708E0,-2.040335324E0,3.251361805E-1,-2.655766758E0,3.364785110E0
6.794642708E0,-1.327098098E0,9.054512841E-1,-2.876052421E0,3.294344991E0
6.804672708E0,-1.935306467E0,7.610595560E-1,1.247740856E0,2.425176285E0
6.814702708E0,-2.169203571E0,7.802238053E-1,3.293611447E0,4.020207666E0
6.824732708E0,-2.130907817E0,8.472685647E-1,3.830031502E0,4.464053478E0
6.834761708E0,-1.855308955E0,1.037532869E0,3.853068070E0,4.400543072E0
6.844791708E0,-1.553725652E0,1.285355410E0,4.082532985E0,4.553380887E0
6.854821708E0,-1.336319157E0,1.407562217E0,4.295303807E0,4.713450443E0
6.864851708E0,-1.086167378E0,1.384976762E0,4.191211674E0,4.545786566E0
6.874880708E0,-1.050775935E0,1.126884756E0,4.126784713E0,4.405037047E0
6.884910708E0,-1.294263351E0,6.335855770E-1,4.151191576E0,4.394193874E0
6.894940708E0,-1.606806968E0,1.193907881E-1,4.477484336E0,4.758565831E0
6.904970708E0,-1.785342634E0,-2.825976866E-1,4.909148015E0,5.231352025E0
6.914999708E0,-1.789352947E0,-4.883927804E-1,5.226462375E0,5.545829102E0
6.925029708E0,-1.936761838E0,-5.281035608E-1,5.489070770E0,5.844641795E0
6.935059708E0,-2.289431680E0,-4.523803639E-1,5.538583238E0,6.010162202E0
6.945089708E0,-2.802827740E0,-3.677746618E-1,5.078024958E0,5.811836114E0
6.955118708E0,-3.466810652E0,-2.344242311E-1,4.302029275E0,5.530025922E0
6.965148708E0,-4.215870260E0,1.143586743E-1,3.412407573E0,5.425049806E0
6.975178708E0,-4.937512858E0,6.472487658E-1,2.606931982E0,5.620859236E0
6.985208708E0,-5.458327280E0,1.180855726E0,1.920836070E0,5.905706405E0
6.995237708E0,-5.632485428E0,1.621034705E0,1.589265321E0,6.072759659E0
7.005267958E0,-5.409141086E0,2.018495681E0,1.461721175E0,5.955649494E0
7.015297958E0,-4.915898041E0,2.219744564E0,1.174973719E0,5.520315454E0
7.025327958E0,-4.404340053E0,2.142559564E0,9.198699331E-1,4.983466011E0
7.035356958E0,-4.068089485E0,1.780379518E0,8.223722899E-1,4.516126601E0
7.045386958E0,-3.792237147E0,1.324931120E0,8.248377684E-1,4.100836792E0
7.055416958E0,-3.390541033E0,8.746616006E-1,6.407133329E-1,3.559679057E0
7.065446958E0,-2.649036028E0,3.827236533E-1,-3.718741447E-2,2.676798867E0
7.075475958E0,-1.570477047E0,-2.449924886E-2,-8.125209010E-1,1.768385870E0
7.085505958E0,-4.448988515E-1,-1.325008303E-1,-1.135551207E0,1.226771373E0
7.095535958E0,3.362824354E-1,-1.900345087E-2,-1.149959916E0,1.198271595E0
7.105565958E0,6.933292106E-1,1.337848788E-1,-8.528374529E-1,1.107219720E0
7.115594958E0,1.053881099E0,1.816191959E-1,-8.908159956E-1,1.391834775E0
7.125624958E0,1.953508556E0,-4.860965788E-2,-2.846811373E0,3.452954325E0
7.135654958E0,4.027279136E0,-5.910997081E-1,-6.879592447E0,7.993570437E0
7.145684958E0,7.315348592E0,-1.432596486E0,-9.144570487E0,1.179787384E1
7.155713958E0,9.549347498E0,-3.008374912E0,-6.198401763E0,1.177542108E1
7.165743958E0,7.404798127E0,-4.709780765E0,-1.288645346E0,8.869818318E0
7.175773958E0,3.257508983E0,-4.354402785E0,7.924687520E-1,5.495470418E0
7.185803958E0,1.001393276E0,-1.497754934E0,9.830689788E-1,2.052433422E0
7.195832958E0,-8.245103243E-1,1.861051213E0,1.602068092E0,2.590357323E0
7.205862958E0,-2.646874020E0,4.739179396E0,2.344231493E0,5.912798383E0
7.215892958E0,-3.479170496E0,6.416929754E0,3.217204710E0,7.976968156E0
7.225922958E0,-3.639599675E0,5.910621690E0,3.728394907E0,7.879280623E0
7.235951958E0,-3.706323715E0,2.445861071E0,2.917627294E0,5.313343664E0
7.245981958E0,-2.424736251E0,-4.086272280E0,-4.146750323E-1,4.769583044E0
7.256011958E0,1.016455411E0,-1.195403599E1,-8.958933084E0,1.497313060E1
7.266041958E0,4.173877311E0,-1.679760046E1,-8.561213661E0,1.930997184E1
7.276070958E0,4.355911659E0,-1.579717695E1,-2.791840822E0,1.662284997E1
7.286100958E0,3.140664365E0,-1.033739429E1,8.747142255E-1,1.083930895E1
7.296130958E0,7.549758205E-1,-3.773855547E0,3.868713465E0,5.457006327E0
7.306160958E0,-1.697316311E0,1.413408848E0,5.448491678E0,5.879172459E0
7.316189958E0,-3.388642442E0,4.835740315E0,5.518103950E0,8.081878074E0
7.326219958E0,-4.328579727E0,6.686189942E0,5.137370689E0,9.478096644E0
7.336249958E0,-4.735165282E0,7.384641021E0,4.553707470E0,9.883873986E0
7.346279958E0,-4.544392855E0,6.731881839E0,3.754691298E0,8.948041476E0
7.356308958E0,-3.943363405E0,5.190296761E0,2.880010986E0,7.126272427E0
7.366338958E0,-3.314217035E0,3.095805988E0,2.499394670E0,5.178322410E0
7.376368958E0,-2.364243735E0,9.560700452E-1,2.538362854E0,3.598194595E0
7.386398958E0,-1.181525525E0,-7.728025192E-1,2.769293958E0,3.108410418E0
7.396427958E0,-2.089939593E-1,-1.903304948E0,3.068135794E0,3.616587542E0
7.406457958E0,5.035019857E-1,-2.369708104E0,3.139731442E0,3.965721154E0
7.416487958E0,8.876549909E-1,-2.169987098E0,3.051971751E0,3.848546084E0
7.426517958E0,9.689997008E-1,-1.455853786E0,2.917025031E0,3.401103600E0
7.436546958E0,8.836744988E-1,-6.623316586E-1,2.720763237E0,2.936344060E0
7.446576958E0,7.434500813E-1,4.908796012E-2,2.423190247E0,2.535148639E0
7.456606958E0,6.490020534E-1,6.875659025E-1,2.081959605E0,2.286592734E0
7.466636958E0,5.737222217E-1,1.281141322E0,1.720007601E0,2.220114056E0
7.476665958E0,4.584388103E-1,1.670334919E0,1.373353082E0,2.210493966E0
7.486695958E0,2.955564322E-1,1.813498147E0,1.068523112E0,2.125528352E0
7.496725958E0,1.977092716E-1,1.692063757E0,7.778147525E-1,1.872742509E0
7.506755958E0,1.493450506E-1,1.368984627E0,5.287637115E-1,1.475131830E0
7.516784958E0,1.730419153E-1,8.070204252E-1,2.786999327E-1,8.711481640E-1
7.526814958E0,3.121787506E-1,2.354843313E-1,-3.859689311E-1,5.494364917E-1
7.536844958E0,3.341318294E-1,-1.227155149E-2,-1.878074797E0,1.907605728E0
7.546874958E0,4.372686736E-1,-8.661714435E-2,-3.284916052E0,3.315023362E0
7.556903958E0,7.641724674E-1,-2.151196486E-1,-3.674620112E0,3.759397423E0
7.566933958E0,1.209724891E0,-3.933661705E-1,-2.824310410E0,3.097563647E0
7.576963958E0,1.515424196E0,-4.914730936E-1,-1.528425919E0,2.207745929E0
7.586993958E0,1.499414666E0,-3.978884071E-1,-5.448078865E-1,1.644194380E0
7.597022958E0,1.275866548E0,-2.124433780E-1,3.655343011E-2,1.293948914E0
7.607052958E0,1.070207110E0,-9.759938478E-2,3.187469280E-1,1.120923058E0
7.617082958E0,9.078834334E-1,1.926072836E-3,4.458811837E-1,1.011467285E0
7.627112958E0,8.296877414E-1,1.023274434E-1,4.883671989E-1,9.681710463E-1
7.637141958E0,7.998710346E-1,2.988821822E-1,4.481792857E-1,9.643593226E-1
7.647171958E0,7.985200354E-1,6.776952177E-1,3.728189085E-1,1.111709941E0
7.657201958E0,7.972080664E-1,1.115029526E0,2.359484540E-1,1.390864199E0
7.667231958E0,7.568671024E-1,1.315698366E0,1.090404855E-1,1.521775223E0
7.677260958E0,6.670643950E-1,1.220857698E0,1.356670976E-2,1.391277284E0
7.687290958E0,6.234296943E-1,8.611311436E-1,-7.467669144E-2,1.065733568E0
7.697320958E0,6.054989152E-1,4.040490335E-1,-1.483557017E-1,7.428956670E-1
7.707350958E0,5.480275096E-1,1.663708270E-2,-2.757811488E-1,6.137313629E-1
7.717379958E0,4.880349308E-1,-2.504473561E-1,-4.341858754E-1,6.995851244E-1
7.727409958E0,4.693592164E-1,-4.298627365E-1,-6.026292479E-1,8.764941852E-1
7.737439958E0,4.750479725E-1,-4.362297696E-1,-7.965211648E-1,1.024896558E0
7.747469958E0,5.085852626E-1,-1.247176015E-1,-1.035580484E0,1.160448356E0
7.757498958E0,6.213320057E-1,2.120960534E-1,-1.267900302E0,1.427798786E0
7.767528958E0,8.337953373E-1,3.583197141E-1,-1.538416618E0,1.786150434E0
7.777558958E0,1.201386908E0,1.444437683E-1,-1.814827804E0,2.181236911E0
7.787588958E0,1.709205455E0,-3.116519165E-1,-1.957138069E0,2.617040242E0
7.797617958E0,2.160445611E0,-6.231038582E-1,-1.898056779E0,2.942516473E0
7.807647958E0,2.412819187E0,-7.947149599E-1,-1.820489078E0,3.125291791E0
7.817677958E0,2.479594536E0,-9.159926444E-1,-1.828754995E0,3.214308077E0
7.827707958E0,2.444006627E0,-1.106514811E0,-1.978363608E0,3.333386564E0
7.837736958E0,2.587462216E0,-1.503872291E0,-2.581303928E0,3.952179469E0
7.847766958E0,3.158214490E0,-2.126094974E0,-4.203121868E0,5.671052110E0
7.857796958E0,4.161842864E0,-2.712112867E0,-6.382641681E0,8.087929714E0
7.867826958E0,5.321303628E0,-3.104397887E0,-6.739068652E0,9.130640987E0
7.877856958E0,6.229426505E0,-3.355255718E0,-5.176043004E0,8.766693601E0
7.887885958E0,6.292719106E0,-3.175387763E0,-3.476875464E0,7.859393373E0
7.897915958E0,5.561359897E0,-2.475443305E0,-2.221455606E0,6.480077814E0
7.907945958E0,4.952778184E0,-1.743667189E0,-1.826861959E0,5.559479438E0
7.917975958E0,5.396016426E0,-1.148941623E0,-2.842192365E0,6.206054911E0
7.928004958E0,6.339990921E0,-3.324019307E-1,-4.030861140E0,7.520227221E0
7.938034958E0,6.463928504E0,1.548921579E-1,-3.378536407E0,7.295263637E0
7.948064958E0,5.402032626E0,-3.623993164E-1,-1.140505845E0,5.532995874E0
7.958093958E0,4.036727944E0,-1.415324981E0,1.471259446E0,4.523596097E0
7.968123958E0,3.241109297E0,-2.056654610E0,4.041772045E0,5.574095346E0
7.978153958E0,2.775559250E0,-2.243938004E0,5.511550391E0,6.566290781E0
7.988183958E0,2.004294109E0,-2.453392870E0,5.837014600E0,6.641315449E0
7.998213958E0,1.285390639E0,-2.636134731E0,6.137619957E0,6.802338874E0
8.008242958E0,8.635765953E-1,-2.675212843E0,6.293629518E0,6.892916712E0
8.018272958E0,8.019564441E-1,-2.618748035E0,5.921765313E0,6.524437128E0
8.028302958E0,6.355041946E-1,-2.133112802E0,5.415305221E0,5.854875442E0
8.038332958E0,2.523627578E-1,-1.273231208E0,5.132723322E0,5.294303861E0
8.048361958E0,-3.461613062E-1,-2.731047320E-1,4.958402621E0,4.977968501E0
8.058391958E0,-8.682805341E-1,5.196964341E-1,3.887882684E0,4.017415492E0
8.068421958E0,-2.811556171E-1,1.138264022E0,-1.258422696E0,1.719977078E0
8.078451958E0,1.698051891E-1,1.226183342E0,-2.802607884E0,3.063816304E0
8.088480958E0,-2.835946369E-1,8.046493793E-1,1.770525205E-1,8.713404252E-1
8.098510958E0,-6.246826065E-1,3.497705001E-1,2.490213372E0,2.591086721E0
8.108540958E0,-7.099490440E-1,5.431946397E-2,3.375659577E0,3.449935626E0
8.118570958E0,-5.626147047E-1,-1.685687953E-1,3.562015894E0,3.610111906E0
8.128599958E0,-5.345556709E-1,-3.679851615E-1,3.778504668E0,3.833831031E0
8.138629958E0,-6.355750921E-1,-4.822935498E-1,3.981839254E0,4.060985916E0
8.148659958E0,-8.699259406E-1,-5.259669882E-1,3.913743750E0,4.043612562E0
8.158689958E0,-1.316309108E0,-5.144953358E-1,3.698235554E0,3.959080869E0
8.168718958E0,-1.821363529E0,-4.119111997E-1,3.495098604E0,3.962669579E0
8.178748958E0,-2.209205835E0,-2.646169138E-1,3.478632553E0,4.129345828E0
8.188778958E0,-2.393369155E0,-9.165627480E-2,3.714443451E0,4.419695344E0
8.198808958E0,-2.427722424E0,1.583636498E-1,3.989890870E0,4.673130039E0
8.208837958E0,-2.456954409E0,4.762679940E-1,4.158064978E0,4.853139245E0
8.218867958E0,-2.545857230E0,8.561194950E-1,4.261810079E0,5.037594145E0
8.228897958E0,-2.782727644E0,1.167880170E0,4.243136119E0,5.206891717E0
8.238927958E0,-3.215985858E0,1.350669978E0,4.123601489E0,5.401015059E0
8.248956958E0,-3.884178181E0,1.376262072E0,3.780738305E0,5.592398373E0
8.258986958E0,-4.515165548E0,1.326630321E0,3.232218314E0,5.709107037E0
8.269016958E0,-4.952308652E0,1.232752104E0,2.526874537E0,5.694746145E0
8.279046958E0,-5.227457571E0,1.143225970E0,1.843276701E0,5.659588967E0
8.289075958E0,-5.280306460E0,1.149032840E0,1.337694568E0,5.566986576E0
8.299105958E0,-5.090127525E0,1.254733542E0,1.006934682E0,5.338321079E0
8.309135958E0,-4.634018684E0,1.481876820E0,7.158794363E-1,4.917577802E0
8.319165958E0,-4.109998527E0,1.624003336E0,2.900394380E-1,4.428724150E0
8.329194958E0,-3.737404882E0,1.422762054E0,-2.183088662E-1,4.005010097E0
8.339224958E0,-3.383572321E0,9.185098708E-1,-8.000471820E-1,3.596150376E0
8.349254958E0,-2.660264144E0,3.533033878E-1,-1.457336348E0,3.053794006E0
8.359284958E0,-1.471035790E0,-4.649471998E-2,-2.014683588E0,2.495006616E0
8.369313958E0,-1.824269888E-1,-3.388946790E-1,-2.516880476E0,2.546137572E0
8.379343958E0,9.735114124E-1,-5.791497535E-1,-2.629807751E0,2.863394440E0
8.389373958E0,1.934437278E0,-8.765011346E-1,-2.756490017E0,3.479732610E0
8.399403958E0,2.695091037E0,-1.294142606E0,-3.337857035E0,4.481027825E0
8.409432958E0,3.532436292E0,-1.706547310E0,-4.474218374E0,5.950549549E0
8.419462958E0,5.138663508E0,-1.960111817E0,-6.039618284E0,8.168530467E0
8.429492958E0,7.386956518E0,-1.658867944E0,-5.278060545E0,9.229132818E0
8.439522958E0,8.459634077E0,-9.519892734E-1,-1.340985820E0,8.618000653E0
8.449551958E0,6.896670409E0,-2.024165726E-1,1.425899670E0,7.045440020E0
8.459581958E0,3.730538789E0,1.136650191E0,1.494528148E0,4.176422835E0
8.469611958E0,1.753040569E0,3.159163494E0,1.174823154E0,3.799167627E0
8.479641958E0,6.245887586E-1,5.100482944E0,1.799515408E0,5.444565463E0
8.489671958E0,-8.490449488E-2,6.172566426E0,2.885117652E0,6.814080196E0
8.499700958E0,-5.614090088E-1,5.108297163E0,3.758268625E0,6.366668127E0
8.509730958E0,-1.047064123E0,1.193060035E0,3.647439330E0,3.977882500E0
8.519760958E0,-9.815244368E-1,-5.653921906E0,8.579350555E-1,5.802264704E0
8.529789958E0,6.528772956E-1,-1.390355148E1,-6.521970305E0,1.537111216E1
8.539819958E0,1.989589385E0,-1.906117692E1,-7.857950324E0,2.071314353E1
8.549849958E0,2.517027241E0,-1.735778243E1,-2.651226979E0,1.773857496E1
8.559879958E0,2.005154673E0,-1.007756859E1,6.768559961E-1,1.029738646E1
8.569908958E0,-3.415173014E-1,-3.115065547E0,2.863860977E0,4.245228748E0
8.579938958E0,-2.615382963E0,2.120254775E0,4.401533975E0,5.541589094E0
8.589968958E0,-3.912176696E0,5.335199536E0,4.545631295E0,8.026969818E0
8.599998958E0,-4.538931556E0,7.115879016E0,3.989399704E0,9.335574103E0
8.610028958E0,-4.451132397E0,8.082222034E0,3.637154077E0,9.917851703E0
8.620057958E0,-3.991061190E0,8.260486683E0,3.692945870E0,9.889492346E0
8.630087958E0,-3.368057027E0,7.384428767E0,3.196528956E0,8.723038101E0
8.640117958E0,-2.543957469E0,5.616800857E0,2.635473411E0,6.705661159E0
8.650147958E0,-1.692702712E0,3.342021714E0,2.505363507E0,4.506794638E0
8.660176958E0,-7.075285891E-1,1.056087254E0,2.650444622E0,2.939519295E0
8.670206958E0,6.545884833E-2,-9.730614692E-1,2.898770024E0,3.058431156E0
8.680236958E0,5.187715508E-1,-2.640893195E0,3.114533451E0,4.116279802E0
8.690266958E0,6.302457936E-1,-3.558424242E0,3.207283155E0,4.831796569E0
8.700295958E0,5.666142002E-1,-3.523120508E0,3.180309949E0,4.779937357E0
8.710325958E0,4.830703524E-1,-2.497006667E0,3.058510108E0,3.977798806E0
8.720355958E0,4.802215889E-1,-1.049719051E0,2.854048179E0,3.078654555E0
8.730385958E0,4.036148778E-1,9.817708969E-2,2.505507349E0,2.539706831E0
8.740414958E0,2.949560693E-1,9.145454586E-1,2.036744256E0,2.252047878E0
8.750444958E0,1.282232997E-1,1.453550568E0,1.571409971E0,2.144429939E0
8.760474958E0,-1.149229306E-1,1.626390755E0,1.175036577E0,2.009742552E0
8.770504958E0,-3.493584175E-1,1.195674909E0,5.551475179E-1,1.363773647E0
8.780533958E0,-4.954268347E-1,2.007173717E-1,-5.967276531E-1,8.011361332E-1
8.790563958E0,-7.332823581E-1,-5.017098141E-1,-2.315270526E0,2.479897854E0
8.800593958E0,-1.052585356E0,-7.468438053E-1,-4.636030419E0,4.812326843E0
8.810623958E0,-1.030469140E0,-6.817701423E-1,-5.405148023E0,5.544574134E0
8.820652958E0,-4.831788182E-1,-2.866556543E-1,-3.765099927E0,3.806784823E0
8.830682958E0,2.571995746E-1,2.044818091E-1,-1.893885668E0,1.922177764E0
8.840712958E0,8.216848035E-1,4.898896676E-1,-3.067432155E-1,1.004613957E0
8.850742958E0,1.159410332E0,5.882415891E-1,8.769314897E-1,1.568205765E0
8.860771958E0,1.214159566E0,7.176200062E-1,1.523762180E0,2.076297933E0
8.870801958E0,1.118991307E0,8.592126721E-1,1.634733562E0,2.159338274E0
8.880831958E0,1.104016296E0,1.046448703E0,1.448707904E0,2.100633586E0
8.890861958E0,1.050334324E0,1.290278181E0,1.381148590E0,2.162311588E0
8.900890958E0,9.291042946E-1,1.621332328E0,1.362698870E0,2.312769232E0
8.910920958E0,8.180488586E-1,1.997926930E0,1.293563731E0,2.516788247E0
8.920950958E0,7.447589806E-1,2.242790780E0,1.253507380E0,2.675080779E0
8.930980958E0,7.253016396E-1,2.315494475E0,1.233590595E0,2.722007143E0
8.941009958E0,7.954897159E-1,2.017184735E0,1.264528797E0,2.510153625E0
8.951039958E0,1.005750474E0,1.401297510E0,1.358994074E0,2.195912936E0
8.961069958E0,1.240362547E0,7.290092129E-1,1.461280003E0,2.050681089E0
8.971099958E0,1.256610936E0,2.715154588E-1,1.534580698E0,2.001931469E0
8.981128958E0,1.108016522E0,-2.226970553E-2,1.589185506E0,1.937448612E0
8.991158958E0,8.594641024E-1,-2.929057431E-1,1.573710265E0,1.816875427E0
9.001188667E0,6.163723974E-1,-4.619265282E-1,1.469064839E0,1.658747284E0
9.011218667E0,4.964768484E-1,-5.141293001E-1,1.281293349E0,1.467150587E0
9.021248667E0,5.277797712E-1,-6.271349287E-1,9.430336779E-1,1.249464775E0
9.031277667E0,6.576671885E-1,-9.434184247E-1,5.795559888E-1,1.287808060E0
9.041307667E0,8.220862149E-1,-1.399746829E0,1.878276233E-1,1.634134678E0
9.051337667E0,1.052101353E0,-1.811811225E0,-1.889729467E-1,2.103636838E0
9.061367667E0,1.297412953E0,-1.935199755E0,-6.434995311E-1,2.417099524E0
9.071396667E0,1.465238860E0,-1.763866981E0,-1.139742345E0,2.560696049E0
9.081426667E0,1.583350277E0,-1.423832095E0,-1.663117847E0,2.701898760E0
9.091456667E0,1.976140497E0,-1.272274019E0,-3.022010911E0,3.828362886E0
9.101486667E0,4.309233629E0,-2.232410218E0,-1.514065157E1,1.589944904E1
9.111515667E0,6.327539860E0,-2.961202499E0,-2.152431652E1,2.262968587E1
9.121545667E0,5.406650757E0,-2.729362153E0,-9.958854908E0,1.165590328E1
9.131575667E0,5.056867393E0,-2.384014487E0,-2.893780887E0,6.295188697E0
9.141605667E0,5.018839442E0,-2.467161893E0,-7.709822810E-1,5.645356572E0
9.151634667E0,5.338793820E0,-2.523024437E0,-4.026126650E-1,5.918654300E0
9.161664667E0,5.950725403E0,-2.324354176E0,-1.608207376E0,6.587874173E0
9.171694667E0,6.651810653E0,-1.947328050E0,-3.439202439E0,7.737362917E0
9.181724667E0,7.074603521E0,-1.424063060E0,-4.096887900E0,8.298340860E0
9.191753667E0,7.059089103E0,-1.232576687E0,-3.491181847E0,7.971093711E0
9.201783667E0,6.259852492E0,-1.578291559E0,-2.392222077E0,6.884728312E0
9.211813667E0,5.196403593E0,-2.087664734E0,-6.797066599E-1,5.641183873E0
9.221843667E0,4.424103350E0,-2.687126545E0,1.696046296E0,5.447009506E0
9.231872667E0,3.705348984E0,-2.883573110E0,4.079615225E0,6.219957022E0
9.241902667E0,2.986455747E0,-2.717484119E0,5.600036890E0,6.903915630E0
9.251932667E0,2.223159338E0,-2.694974678E0,6.174252763E0,7.094133008E0
9.261962667E0,1.593683623E0,-2.649127829E0,6.248186127E0,6.971193271E0
9.271991667E0,1.179869593E0,-2.467853034E0,6.004128023E0,6.597874216E0
9.282021667E0,7.072543547E-1,-2.097831872E0,5.570230708E0,5.994045164E0
9.292051667E0,6.706478611E-2,-1.376571974E0,5.027778665E0,5.213252956E0
9.302081667E0,-1.052718088E-1,-4.303123873E-1,4.455616919E0,4.477585625E0
9.312110667E0,-6.526486695E-1,4.614283454E-1,3.761455357E0,3.845440522E0
9.322140667E0,-8.149453028E-1,1.270470153E0,-1.362681913E-1,1.515519474E0
9.332170667E0,1.612841879E-1,1.581264868E0,-5.452839668E0,5.679777426E0
9.342200667E0,-3.172191967E-1,1.200257957E0,-2.535769029E0,2.823361781E0
9.352230667E0,-1.343332015E0,8.721432048E-1,1.327173965E0,2.080039761E0
9.362259667E0,-1.635876985E0,6.756188715E-1,3.501748935E0,3.923620773E0
9.372289667E0,-1.461675859E0,3.923931938E-1,3.724221457E0,4.019986841E0
9.382319667E0,-1.237690662E0,1.707620859E-1,3.165617065E0,3.403258625E0
9.392349667E0,-1.068136026E0,4.278992414E-3,2.934261746E0,3.122631082E0
9.402378667E0,-1.131425704E0,-1.333486766E-1,2.860254414E0,3.078792183E0
9.412408667E0,-1.393592342E0,-2.228759801E-1,2.983357015E0,3.300332164E0
9.422438667E0,-1.695977883E0,-2.444907975E-1,3.316511482E0,3.733010198E0
9.432468667E0,-1.898264063E0,-2.309936696E-1,3.580778732E0,4.059401539E0
9.442497667E0,-1.892054612E0,-2.092239010E-1,3.825310460E0,4.272779589E0
9.452527667E0,-1.673435990E0,-1.383205640E-1,3.993265590E0,4.331938442E0
9.462557667E0,-1.512230009E0,-1.126109415E-1,4.069034103E0,4.342414001E0
9.472587667E0,-1.400451126E0,-7.459994674E-2,4.306677811E0,4.529271716E0
9.482616667E0,-1.491453682E0,-3.361564279E-2,4.719415222E0,4.949590300E0
9.492646667E0,-1.908201991E0,9.630188763E-2,4.976407367E0,5.330585256E0
9.502676667E0,-2.765162315E0,2.562530565E-1,4.792506588E0,5.538944633E0
9.512706667E0,-3.729193637E0,4.444790214E-1,4.328280349E0,5.730484933E0
9.522735667E0,-4.508624268E0,7.025067079E-1,3.713862822E0,5.883365153E0
9.532765667E0,-5.101933638E0,9.377325922E-1,2.961363590E0,5.973168638E0
9.542795667E0,-5.506188494E0,1.088545148E0,2.222871948E0,6.036903342E0
9.552825667E0,-5.502047496E0,1.249162315E0,1.899458357E0,5.953223932E0
9.562854667E0,-5.141643249E0,1.423405248E0,1.692223094E0,5.596981044E0
9.572884667E0,-4.628261223E0,1.543345090E0,1.373710054E0,5.068510169E0
9.582914667E0,-4.097137576E0,1.439932988E0,8.964506650E-1,4.434362087E0
9.592944667E0,-3.560730969E0,1.182786477E0,2.465259209E-1,3.760128177E0
9.602973667E0,-2.949243774E0,8.790668929E-1,-3.627551195E-1,3.098772130E0
9.613003667E0,-1.979206777E0,6.818210131E-1,-9.148705637E-1,2.284540984E0
9.623033667E0,-5.442339823E-1,6.794797879E-1,-1.454237616E0,1.694901311E0
9.633063667E0,7.705957800E-1,8.681945801E-1,-1.629100939E0,2.000387351E0
9.643092667E0,1.518342688E0,1.174724336E0,-1.260473753E0,2.296548686E0
9.653122667E0,1.723004006E0,1.322737244E0,-7.960320452E-1,2.313448431E0
9.663152667E0,1.743384184E0,1.161383328E0,-7.295337081E-1,2.218201767E0
9.673182667E0,2.021957232E0,7.236794758E-1,-1.330807571E0,2.526474189E0
9.683211667E0,3.099278357E0,2.007080162E-1,-3.557783095E0,4.722671976E0
9.693241667E0,4.973933410E0,-2.002209431E-1,-5.543706568E0,7.450690204E0
9.703271667E0,6.757656950E0,-7.466520166E-1,-5.526329813E0,8.761491762E0
9.713301667E0,6.929037087E0,-1.774083821E0,-4.658723755E0,8.535961304E0
9.723331667E0,4.781694793E0,-2.548013683E0,-3.540531470E0,6.472429367E0
9.733360667E0,2.822290489E0,-1.568015077E0,-1.924717305E0,3.758793901E0
9.743390667E0,1.676637340E0,8.306694889E-1,-6.850787893E-2,1.872382947E0
9.753420667E0,4.264669660E-1,2.994144543E0,1.918733557E0,3.581663591E0
9.763450667E0,-7.115602443E-1,3.407539766E0,4.000509121E0,5.302991464E0
9.773479667E0,-1.970048868E0,1.361919436E0,5.257963665E0,5.777724378E0
9.783509667E0,-2.872935563E0,-3.401766810E0,4.101026559E0,6.053444888E0
9.793539667E0,-1.879029355E0,-1.003040027E1,-3.757279276E0,1.087459555E1
9.803569667E0,-7.018091351E-2,-1.482783255E1,-8.718838223E0,1.720138609E1
9.813598667E0,9.395142388E-1,-1.433912461E1,-4.825234623E0,1.515836636E1
9.823628667E0,1.911700965E0,-9.308821698E0,-1.914372557E0,9.693997332E0
9.833658667E0,4.848943913E-1,-3.219762867E0,1.052620586E0,3.421988543E0
9.843688667E0,-1.972537443E0,2.077166643E0,4.132682215E0,5.028378219E0
9.853717667E0,-3.365318483E0,5.213841160E0,5.313933213E0,8.169907853E0
9.863747667E0,-4.237935313E0,6.777302426E0,5.351057185E0,9.619029934E0
9.873777667E0,-4.288654938E0,7.282966127E0,5.074434768E0,9.858196843E0
9.883807667E0,-3.707710674E0,6.627257609E0,3.938873913E0,8.554670629E0
9.893836667E0,-2.814953111E0,5.214803027E0,3.041750818E0,6.661109492E0
9.903866667E0,-2.057597912E0,2.970270946E0,2.726430359E0,4.526548482E0
9.913896667E0,-1.232793034E0,6.545022368E-1,2.580089754E0,2.933430582E0
9.923926667E0,-3.845162635E-1,-1.155893962E0,2.632131143E0,2.900354799E0
9.933955667E0,1.530179791E-1,-2.368078485E0,2.888439163E0,3.738220300E0
9.943985667E0,4.122963850E-1,-2.808765587E0,2.947579072E0,4.092355656E0
9.954015667E0,4.825439568E-1,-2.373050957E0,2.825733622E0,3.721423118E0
9.964045667E0,4.519156565E-1,-1.377154942E0,2.680491124E0,3.047263717E0
9.974074667E0,2.979558371E-1,-3.691212755E-1,2.484072626E0,2.528961250E0
9.984104667E0,5.802382126E-2,4.021954662E-1,2.232263453E0,2.268948673E0
9.994134667E0,-1.515077895E-1,9.826275140E-1,1.958948221E0,2.196813505E0
1.000416454E1,-3.625674239E-1,1.424304550E0,1.685525401E0,2.236312694E0
1.001419454E1,-5.753227508E-1,1.615934179E0,1.458807800E0,2.251745930E0
1.002422354E1,-7.106356533E-1,1.651234989E0,1.215398737E0,2.169970993E0
1.003425354E1,-7.649852304E-1,1.556985474E0,1.005167946E0,2.004936101E0
1.004428354E1,-6.525562835E-1,1.251505879E0,8.401530880E-1,1.642544940E0
1.005431354E1,-4.304701160E-1,7.333092552E-1,7.393020666E-1,1.126771729E0
1.006434254E1,-1.759975366E-1,2.644198626E-1,6.458191216E-1,7.197050330E-1
1.007437254E1,6.975421295E-2,1.479427421E-1,5.084224176E-1,5.340843191E-1
1.008440254E1,3.076648463E-1,3.080102706E-1,3.179347497E-1,5.390830080E-1
1.009443254E1,4.173570040E-1,5.687294304E-1,1.229166591E-1,7.160646192E-1
1.010446154E1,4.218136056E-1,7.094029140E-1,-5.648527265E-2,8.272664615E-1
1.011449154E1,3.693040010E-1,5.494166619E-1,-2.277931231E-1,7.000955795E-1
1.012452154E1,3.499124412E-1,3.192164594E-1,-3.533163978E-1,5.909063728E-1
1.013455154E1,4.247572401E-1,1.492817545E-1,-4.950599219E-1,6.691696956E-1
1.014458054E1,6.065259786E-1,-3.419802547E-2,-6.603757650E-1,8.972956138E-1
1.015461054E1,8.309244275E-1,-2.208744782E-1,-8.877504466E-1,1.235848613E0
1.016464054E1,9.864977860E-1,-3.873897314E-1,-1.120668581E0,1.542448299E0
1.017467054E1,9.867575486E-1,-4.730058324E-1,-1.287775134E0,1.689908214E0
1.018469954E1,8.851168607E-1,-3.276586694E-1,-1.415029112E0,1.700911358E0
1.019472954E1,7.768980552E-1,-2.205686688E-2,-1.530593628E0,1.716617007E0
1.020475954E1,6.773804913E-1,3.227598721E-1,-1.611546136E0,1.777666789E0
1.021478954E1,6.395785345E-1,5.812646914E-1,-1.609495225E0,1.826856377E0
1.022481854E1,6.767944542E-1,6.036542648E-1,-1.566131104E0,1.809755740E0
1.023484854E1,7.783502112E-1,4.415647691E-1,-1.414096481E0,1.673462684E0
1.024487854E1,9.109159456E-1,1.856906122E-1,-1.292657121E0,1.592234686E0
1.025490854E1,1.063577391E0,-9.522599995E-2,-1.198914267E0,1.605509351E0
1.026493754E1,1.251047311E0,-3.931036305E-1,-1.095063039E0,1.708453364E0
1.027496754E1,1.492068663E0,-5.895455182E-1,-1.020557232E0,1.901412600E0
1.028499754E1,1.780585047E0,-6.579965329E-1,-1.099024820E0,2.193467142E0
1.029502754E1,2.111644603E0,-6.581596702E-1,-1.306877549E0,2.569074933E0
1.030505754E1,2.374889614E0,-5.912733704E-1,-1.567158752E0,2.906147180E0
1.031508654E1,2.540649407E0,-3.174131781E-1,-1.815507835E0,3.138744850E0
1.032511654E1,2.605909596E0,3.940438628E-3,-2.014234815E0,3.293618411E0
1.033514654E1,2.705625089E0,7.973263264E-3,-2.159343996E0,3.461681266E0
1.034517554E1,2.962174014E0,-5.656918019E-1,-2.263824384E0,3.770859709E0
1.035520554E1,3.402038705E0,-1.541271667E0,-2.666210470E0,4.588906621E0
1.036523554E1,4.181179606E0,-2.645640550E0,-4.533438389E0,6.710718326E0
1.037526554E1,5.632924554E0,-3.627887995E0,-8.373718014E0,1.072429782E1
1.038529554E1,7.210376453E0,-4.316347352E0,-9.107883886E0,1.239249498E1
1.039532454E1,7.397341758E0,-4.336441308E0,-5.449376947E0,1.015977841E1
1.040535454E1,6.081665611E0,-3.592106543E0,-2.324967549E0,7.436085000E0
1.041538454E1,5.013726051E0,-2.687953926E0,-9.636464287E-1,5.769849189E0
1.042541454E1,5.088679755E0,-1.891760790E0,-1.362271439E0,5.597249682E0
1.043544354E1,5.592822011E0,-1.007416200E0,-2.943408253E0,6.399859185E0
1.044547354E1,4.875029804E0,-7.195957804E-1,-3.675517659E0,6.147614475E0
1.045550354E1,3.678081956E0,-1.221797930E0,-1.801293692E0,4.273843238E0
1.046553354E1,3.015427238E0,-2.007595886E0,1.317744307E0,3.854827198E0
1.047556254E1,2.075139413E0,-2.639604469E0,4.062979311E0,5.270817415E0
1.048559254E1,1.096603927E0,-2.985442132E0,5.108856157E0,6.017957804E0
1.049562254E1,5.719914459E-1,-3.235578416E0,5.306755756E0,6.241618264E0
1.050565254E1,3.771873634E-1,-3.336234725E0,5.191345167E0,6.182458823E0
1.051568154E1,6.056165904E-2,-3.173349423E0,5.024621168E0,5.943116368E0
1.052571154E1,-4.349563922E-1,-2.813474935E0,4.921262276E0,5.685389227E0
1.053574154E1,-9.749784788E-1,-2.091344386E0,4.635362667E0,5.177923467E0
1.054577154E1,-1.677078513E0,-1.044372357E0,2.992909026E0,3.586197206E0
1.055580054E1,-1.999157769E0,-1.873751950E-1,-2.480121077E0,3.191040866E0
1.056583054E1,-1.484106217E0,8.898994446E-2,-3.259625090E0,3.582687009E0
1.057586054E1,-1.491505722E0,7.166756809E-2,-3.288800796E-1,1.529015260E0
1.058589054E1,-1.445600694E0,1.743803430E-1,1.846032786E0,2.351171392E0
1.059592054E1,-1.030304833E0,2.526938564E-1,2.834642440E0,3.026645007E0
1.060594954E1,-7.173498648E-1,3.963850880E-1,2.912288786E0,3.025415334E0
1.061597954E1,-6.209523752E-1,4.682356739E-1,2.715489049E0,2.824660559E0
1.062600954E1,-6.681625021E-1,5.011461425E-1,2.669207168E0,2.796829542E0
1.063603954E1,-7.654256719E-1,3.910179287E-1,2.817244635E0,2.945443738E0
1.064606854E1,-1.101245885E0,1.406693906E-1,3.069784709E0,3.264369547E0
1.065609854E1,-1.399809979E0,-9.705325484E-2,3.250573601E0,3.540496581E0
1.066612854E1,-1.617162679E0,-2.066172123E-1,3.401672377E0,3.772171890E0
1.067615854E1,-1.881732230E0,-2.364152080E-1,3.591189115E0,4.061212577E0
1.068618754E1,-2.060018806E0,-2.006501287E-1,3.833821375E0,4.356847976E0
1.069621754E1,-2.230410470E0,-3.496751904E-2,4.087377988E0,4.656459214E0
1.070624754E1,-2.449552419E0,2.121492630E-1,4.340901272E0,4.988861415E0
1.071627754E1,-2.804589506E0,4.879624254E-1,4.614470858E0,5.421915798E0
1.072630654E1,-3.309474066E0,8.390374392E-1,4.756345944E0,5.854863718E0
1.073633654E1,-3.917070523E0,1.202937736E0,4.618152849E0,6.173964401E0
1.074636654E1,-4.453430645E0,1.497411118E0,4.154798723E0,6.271972337E0
1.075639654E1,-4.833143274E0,1.815850482E0,3.569822220E0,6.276959261E0
1.076642554E1,-5.084674997E0,2.079278657E0,2.975940699E0,6.247682978E0
1.077645554E1,-5.098657444E0,2.232459919E0,2.304431835E0,6.024167254E0
1.078648554E1,-4.779336027E0,2.376934678E0,1.838101184E0,5.645395228E0
1.079651554E1,-4.168912440E0,2.522215183E0,1.490216411E0,5.095306204E0
1.080654454E1,-3.228204785E0,2.567253946E0,9.577274385E-1,4.234305232E0
1.081657454E1,-2.463314133E0,2.460839299E0,7.209935573E-1,3.555766905E0
1.082660454E1,-1.988024670E0,2.336987670E0,8.678042784E-1,3.188547902E0
1.083663454E1,-1.697050847E0,2.187511788E0,8.346868184E-1,2.891693533E0
1.084666454E1,-1.544149959E0,1.844736312E0,2.285387161E-1,2.416543213E0
1.085669354E1,-1.355031124E0,1.312587647E0,-7.736506578E-1,2.039002457E0
1.086672354E1,-1.119402659E0,6.740243357E-1,-1.759924788E0,2.191964046E0
1.087675354E1,-8.197562456E-1,7.286741674E-2,-2.408298266E0,2.545036444E0
1.088678354E1,-3.352796379E-1,-4.999959952E-1,-2.811775441E0,2.875498142E0
1.089681254E1,4.587392110E-1,-1.030481127E0,-3.393460548E0,3.576018387E0
1.090684254E1,2.067376357E0,-1.621105456E0,-6.120999831E0,6.660980921E0
1.091687254E1,4.715157280E0,-2.403707324E0,-9.603526629E0,1.096531991E1
1.092690254E1,8.009389701E0,-3.501919674E0,-9.378084891E0,1.282038381E1
1.093693154E1,8.718130125E0,-4.751145138E0,-3.175591246E0,1.042418116E1
1.094696154E1,5.797792647E0,-5.281139104E0,3.484335342E-1,7.850237941E0
1.095699154E1,3.285620349E0,-3.381832482E0,-1.050964800E0,4.830799005E0
1.096702154E1,2.102737978E0,2.694987541E-1,-1.335364014E0,2.505460763E0
1.097705054E1,9.172687992E-1,3.533331501E0,5.137161943E-1,3.686423453E0
1.098708054E1,-3.845713735E-3,5.337264773E0,2.481733739E0,5.886035372E0
1.099711054E1,-3.249370828E-1,4.809726053E0,3.517786678E0,5.967735913E0
1.100714142E1,-5.963277036E-1,1.349667181E0,3.039319546E0,3.378560571E0
1.101717042E1,-8.252777714E-1,-4.637232022E0,1.900880692E0,5.079207776E0
1.102720042E1,-4.620782635E-1,-1.080253913E1,4.245904483E-2,1.081250067E1
1.103723042E1,6.352575883E-1,-1.407334176E1,-1.479466013E0,1.416514455E1
1.104726042E1,1.038910473E0,-1.235140458E1,-9.984154348E-1,1.243516640E1
1.105728942E1,1.925303927E-1,-6.884531005E0,8.004534173E-1,6.933582103E0
1.106731942E1,-2.270653932E0,-1.555221954E0,2.879013451E0,3.982876229E0
1.107734942E1,-4.161101145E0,2.607982727E0,3.803295693E0,6.211392338E0
1.108737942E1,-4.825193108E0,5.320504314E0,3.735055178E0,8.095732942E0
1.109740842E1,-5.112888397E0,6.887057587E0,3.144074754E0,9.135556689E0
1.110743842E1,-4.847150280E0,7.390170733E0,2.605067890E0,9.213895376E0
1.111746842E1,-4.148869354E0,6.603951192E0,2.507640413E0,8.192285927E0
1.112749842E1,-3.682514730E0,4.626729838E0,2.455915943E0,6.403051370E0
1.113752842E1,-3.081806000E0,2.440182840E0,2.483354588E0,4.649631224E0
1.114755742E1,-2.107182447E0,2.193857771E-1,2.537923143E0,3.305964589E0
1.115758742E1,-1.194644630E0,-1.556686097E0,2.627293156E0,3.279194524E0
1.116761742E1,-5.793862733E-1,-2.831018336E0,2.620830814E0,3.901167444E0
1.117764742E1,-2.111178142E-1,-3.472646758E0,2.443235672E0,4.251264139E0
1.118767642E1,-6.739032984E-2,-3.311122688E0,2.103030632E0,3.923112635E0
1.119770642E1,-8.880634189E-2,-2.535198925E0,1.642126197E0,3.021870050E0
1.120773642E1,-2.008118042E-1,-1.454283224E0,1.261518066E0,1.935637597E0
1.121776642E1,-3.154099220E-1,-3.410242349E-1,9.729527110E-1,1.078154871E0
1.122779542E1,-3.790387380E-1,5.970849180E-1,7.535476381E-1,1.033448019E0
1.123782542E1,-4.517462334E-1,1.273080350E0,5.790971285E-1,1.469748863E0
1.124785542E1,-5.255761018E-1,1.736782093E0,4.192751465E-1,1.862373197E0
1.125788542E1,-5.738594851E-1,1.817356725E0,2.986091173E-1,1.929058729E0
1.126791442E1,-5.133598065E-1,1.476956972E0,2.753902625E-1,1.587696440E0
1.127794442E1,-3.230343989E-1,9.913749486E-1,3.373545223E-1,1.095893966E0
1.128797442E1,-2.557206675E-2,4.550051790E-1,3.833639965E-1,5.955263196E-1
1.129800442E1,2.196012470E-1,1.420423168E-1,3.832633513E-1,4.639951766E-1
1.130803342E1,3.828457139E-1,3.256840646E-2,3.393666954E-1,5.126414885E-1
1.131806342E1,5.675358675E-1,5.717232049E-2,2.394920129E-1,6.186453422E-1
1.132809342E1,8.132594043E-1,1.830745679E-1,1.482999339E-1,8.466994901E-1
1.133812342E1,1.063009626E0,3.227294666E-1,4.584377870E-2,1.111865741E0
1.134815242E1,1.206586545E0,4.759580916E-1,-9.177555799E-2,1.300311481E0
1.135818242E1,1.230996331E0,6.061989731E-1,-2.662979883E-1,1.397763850E0
1.136821242E1,1.249557586E0,6.701166415E-1,-4.270894021E-1,1.480829441E0
1.137824242E1,1.188129662E0,7.553444874E-1,-5.696513902E-1,1.518782438E0
1.138827242E1,1.016097853E0,8.288971978E-1,-7.223233603E-1,1.497089326E0
1.139830142E1,8.743271399E-1,7.714763707E-1,-8.325318271E-1,1.432736187E0
1.140833142E1,7.058421059E-1,6.851545107E-1,-8.748503195E-1,1.316439464E0
1.141836142E1,5.061817646E-1,5.771675473E-1,-9.116927482E-1,1.191858223E0
1.142839142E1,3.172484328E-1,4.754710186E-1,-9.559887689E-1,1.113837414E0
1.143842042E1,1.681625600E-1,3.823698968E-1,-9.670581329E-1,1.053416735E0
1.144845042E1,1.708205581E-2,3.107537842E-1,-9.643742609E-1,1.013349607E0
1.145848042E1,-6.715819538E-2,2.144279230E-1,-9.735178444E-1,9.991128818E-1
1.146851042E1,-1.074383484E-1,8.855023384E-2,-9.590796071E-1,9.691325170E-1
1.147853942E1,-1.050589702E-1,-1.469054461E-2,-9.470670873E-1,9.529896469E-1
1.148856942E1,-9.513419867E-3,-2.113768458E-1,-8.805573481E-1,9.056223934E-1
1.149859942E1,1.574756040E-1,-5.006865513E-1,-8.132079488E-1,9.678805487E-1
1.150862942E1,3.473836666E-1,-7.899869013E-1,-7.770511061E-1,1.161276512E0
1.151865842E1,5.529318617E-1,-1.032281485E0,-7.420862183E-1,1.386373205E0
1.152868842E1,7.519601190E-1,-1.104433787E0,-7.462011963E-1,1.530370620E0
1.153871842E1,9.388812777E-1,-9.688450420E-1,-8.429486418E-1,1.590824057E0
1.154874842E1,1.161589297E0,-7.258406067E-1,-9.989041159E-1,1.695270985E0
1.155877742E1,1.475617668E0,-5.327912736E-1,-1.148411573E0,1.944264175E0
1.156880742E1,1.849947058E0,-3.655860490E-1,-1.309152408E0,2.295612621E0
1.157883742E1,2.185548293E0,-1.852661043E-1,-1.442970031E0,2.625472792E0
1.158886742E1,2.450575389E0,-1.270249128E-2,-1.529681608E0,2.888841794E0
1.159889642E1,2.605979178E0,2.182765603E-2,-1.559674316E0,3.037134817E0
1.160892642E1,2.774047744E0,-1.338041747E-1,-1.542778787E0,3.177012878E0
1.161895642E1,3.112797705E0,-5.700836456E-1,-1.559700921E0,3.528054971E0
1.162898642E1,3.786982839E0,-1.174518514E0,-1.810736507E0,4.358841527E0
1.163901642E1,4.784284525E0,-1.797179738E0,-2.664602778E0,5.763622246E0
1.164904542E1,6.310106387E0,-2.460228850E0,-5.825358176E0,8.933362552E0
1.165907542E1,8.313413340E0,-2.886958063E0,-1.088984741E1,1.400129083E1
1.166910542E1,8.189091010E0,-2.748839228E0,-8.699295074E0,1.225948871E1
1.167913542E1,5.997209013E0,-2.224503613E0,-3.907471442E0,7.495549702E0
1.168916442E1,4.236286983E0,-1.906777024E0,-1.567574782E0,4.902980391E0
1.169919442E1,3.935774597E0,-1.669233888E0,-1.216805285E0,4.444916034E0
1.170922442E1,5.129013264E0,-1.378604466E0,-2.507932774E0,5.873419288E0
1.171925442E1,5.110620847E0,-1.640363846E0,-3.104251707E0,6.200453019E0
1.172928342E1,3.785159092E0,-1.979541530E0,-1.694415507E0,4.595330014E0
1.173931342E1,2.880795683E0,-2.196238757E0,6.560212704E-1,3.681414450E0
1.174934342E1,1.795140083E0,-2.255388606E0,2.783154198E0,4.006900669E0
1.175937342E1,6.297753851E-1,-2.667706772E0,3.675621740E0,4.585135945E0
1.176940242E1,-1.956332177E-1,-3.236015203E0,4.104455366E0,5.230355686E0
1.177943242E1,-6.956575719E-1,-3.510381179E0,4.496072634E0,5.746423637E0
1.178946242E1,-9.442240249E-1,-3.797980574E0,4.607623476E0,6.045362648E0
1.179949242E1,-1.408248973E0,-3.784018008E0,4.699544045E0,6.195778537E0
1.180952142E1,-2.225519274E0,-3.424845185E0,4.579177941E0,6.136071316E0
1.181955142E1,-3.063457437E0,-2.696223643E0,4.027669730E0,5.733804745E0
1.182958142E1,-3.821657412E0,-1.756550944E0,2.412478148E0,4.848771743E0
1.183961142E1,-4.486200196E0,-8.670245522E-1,-3.119075568E0,5.532301164E0
1.184964142E1,-4.248741260E0,-4.298820323E-1,-4.604872946E0,6.280243283E0
1.185967042E1,-4.107312608E0,-3.464475274E-1,-1.312368962E0,4.325777969E0
1.186970042E1,-4.272721568E0,-2.183566672E-1,1.391227143E0,4.498815644E0
1.187973042E1,-4.067358291E0,-7.915434301E-2,2.866288741E0,4.976472649E0
1.188976042E1,-3.617209517E0,-6.414570987E-2,2.990720998E0,4.693903647E0
1.189978942E1,-3.126758224E0,-1.445595431E-1,2.595113590E0,4.065972085E0
1.190981942E1,-2.756568663E0,-8.566463292E-2,1.932237117E0,3.367424757E0
1.191984942E1,-2.293125951E0,1.914086044E-2,1.478270988E0,2.728383792E0
1.192987942E1,-2.166966426E0,1.725367159E-1,1.526109252E0,2.656034989E0
1.193990842E1,-2.123835902E0,2.812311924E-1,1.862420193E0,2.838728394E0
1.194993842E1,-2.090601790E0,3.057830662E-1,2.177363653E0,3.033979500E0
1.195996842E1,-2.059117750E0,3.731786585E-1,2.479911455E0,3.244871190E0
1.196999842E1,-2.166606823E0,5.410107046E-1,2.843400400E0,3.615494923E0
1.198002742E1,-2.510502917E0,8.079700130E-1,3.284424301E0,4.212230221E0
1.199005742E1,-3.092471906E0,1.142217910E0,3.570117212E0,4.859401316E0
1.200008742E1,-3.742448983E0,1.488091241E0,3.598826163E0,5.401100784E0
1.201011658E1,-4.251690303E0,1.754195101E0,3.405927981E0,5.723147412E0
1.202014558E1,-4.610340677E0,1.879939474E0,3.176059023E0,5.905655298E0
1.203017558E1,-4.761905477E0,1.854349719E0,2.926536697E0,5.888885607E0
1.204020558E1,-4.710085990E0,1.763851193E0,2.623748574E0,5.672753974E0
1.205023558E1,-4.503196882E0,1.665244333E0,2.317310035E0,5.331204990E0
1.206026558E1,-3.989261125E0,1.588467468E0,2.120585142E0,4.788978447E0
1.207029458E1,-3.107884874E0,1.495079248E0,1.818882556E0,3.899043998E0
1.208032458E1,-2.063920945E0,1.558029787E0,1.610401251E0,3.046410785E0
1.209035458E1,-1.196169291E0,1.754505588E0,1.382127706E0,2.533651087E0
1.210038458E1,-6.513736841E-1,1.981396267E0,1.254116368E0,2.433726917E0
1.211041358E1,-3.194287133E-1,2.127959066E0,1.161825670E0,2.445420900E0
1.212044358E1,3.193252176E-2,2.247638707E0,5.916391137E-1,2.324421709E0
1.213047358E1,4.697401625E-1,2.191798967E0,-3.812793911E-1,2.273766150E0
1.214050358E1,9.385032552E-1,2.019899012E0,-1.312443514E0,2.585205670E0
1.215053258E1,1.396425903E0,1.678585925E0,-2.122972853E0,3.045434245E0
1.216056258E1,1.862690772E0,1.078964485E0,-2.916549360E0,3.624919508E0
1.217059258E1,2.472919062E0,1.965360278E-1,-3.788996912E0,4.528846729E0
1.218062258E1,3.852997026E0,-1.061884768E0,-6.509334472E0,7.638365049E0
1.219065158E1,6.683362813E0,-2.322154453E0,-1.010168601E1,1.233303694E1
1.220068158E1,9.750653100E0,-3.792063777E0,-9.942709576E0,1.443303354E1
1.221071158E1,9.397066122E0,-5.627669077E0,-4.638279258E0,1.189492099E1
1.222074158E1,4.396430525E0,-6.333819185E0,6.132808283E-2,7.710358485E0
1.223077058E1,6.254781201E-1,-3.791583136E0,1.096711223E0,3.996260885E0
1.224080058E1,-1.139761787E0,4.188331336E-1,1.055133573E0,1.608659374E0
1.225083058E1,-2.934732739E0,4.014153306E0,1.559242792E0,5.211268665E0
1.226086058E1,-4.481936406E0,6.650875683E0,2.540593859E0,8.412878131E0
1.227089058E1,-5.536544899E0,8.075456806E0,3.679101710E0,1.045954690E1
1.228091958E1,-6.353062956E0,7.401237173E0,4.318180454E0,1.066707097E1
1.229094958E1,-6.785843453E0,3.732441473E0,4.737258586E0,9.078568699E0
1.230097958E1,-6.366519738E0,-1.749214443E0,4.856919515E0,8.196462159E0
1.231100958E1,-5.251922321E0,-9.833544399E0,-3.822724822E0,1.178535144E1
1.232103858E1,-1.209609994E0,-1.814962173E1,-1.481716840E1,2.346104014E1
1.233106858E1,3.410926181E0,-1.865472761E1,-6.570987514E0,2.007015586E1
1.234109858E1,5.336243849E0,-1.505374090E1,-1.662692024E0,1.605786904E1
1.235112858E1,4.033210844E0,-7.878510303E0,1.753803484E0,9.022945250E0
1.236115758E1,2.256425902E-1,-8.415254295E-1,4.476963934E0,4.560952279E0
1.237118758E1,-2.304121056E0,3.120819792E0,5.161558281E0,6.456792850E0
1.238121758E1,-3.450353371E0,5.401344994E0,4.949223661E0,8.097794822E0
1.239124758E1,-3.751215128E0,6.634482429E0,4.291196723E0,8.746561688E0
1.240127658E1,-3.607859527E0,7.068510722E0,3.633173293E0,8.728140831E0
1.241130658E1,-3.420083213E0,6.719293368E0,2.588676975E0,7.971644814E0
1.242133658E1,-2.811464662E0,5.560916094E0,1.884758749E0,6.510025875E0
1.243136658E1,-1.932375550E0,3.685615216E0,1.797351061E0,4.533023894E0
1.244139558E1,-1.188303032E0,1.750411953E0,1.979590062E0,2.897375177E0
1.245142558E1,-5.064264706E-1,1.202596843E-1,2.306106770E0,2.364118990E0
1.246145558E1,9.714681029E-2,-1.063867559E0,2.626288605E0,2.835250169E0
1.247148558E1,3.982494727E-1,-1.738437440E0,2.890020250E0,3.396024797E0
1.248151458E1,5.385963893E-1,-1.926963952E0,2.943107121E0,3.558813801E0
1.249154458E1,5.240575799E-1,-1.723573233E0,2.867483912E0,3.386414774E0
1.250157458E1,3.045256224E-1,-1.288288373E0,2.627397237E0,2.942046741E0
1.251160458E1,-5.772371292E-3,-8.050276941E-1,2.275814685E0,2.414008158E0
1.252163458E1,-3.169661584E-1,-2.380927742E-1,1.776849554E0,1.820535649E0
1.253166358E1,-5.731230283E-1,2.774000967E-1,1.269961445E0,1.420641718E0
1.254169358E1,-8.906283000E-1,8.002616286E-1,8.275248563E-1,1.455484397E0
1.255172358E1,-1.174264160E0,1.174744216E0,-1.032592045E0,1.955803319E0
1.256175358E1,-9.995011166E-1,9.779093957E-1,-4.443317885E0,4.658152327E0
1.257178258E1,-2.618144895E-1,4.116685402E-1,-6.490388909E0,6.508699256E0
1.258181258E1,5.478892229E-1,-1.720361942E-1,-4.875902501E0,4.909603268E0
1.259184258E1,7.494282746E-1,-6.919267559E-1,-2.181527748E0,2.408208605E0
1.260187258E1,6.683636463E-1,-9.696478647E-1,-2.637177582E-1,1.206844647E0
1.261190158E1,4.587855501E-1,-8.395122331E-1,6.898841773E-1,1.179493598E0
1.262193158E1,1.908208130E-1,-5.095328039E-1,8.534325533E-1,1.012118266E0
1.263196158E1,9.532627970E-2,-5.716764271E-2,8.209315360E-1,8.284224923E-1
1.264199158E1,1.092653109E-1,5.351582265E-1,7.091390584E-1,8.951041502E-1
1.265202058E1,1.168166976E-1,1.006571277E0,6.014533728E-1,1.178379411E0
1.266205058E1,1.089808439E-1,1.153729908E0,5.260282378E-1,1.272664619E0
1.267208058E1,6.816625535E-2,1.039162488E0,4.114567249E-1,1.119732982E0
1.268211058E1,8.220527396E-2,7.286589646E-1,1.651037353E-1,7.516387678E-1
1.269214058E1,9.796980590E-2,4.385499448E-1,-1.086972539E-1,4.623194025E-1
1.270216958E1,7.138514757E-2,2.586650330E-1,-3.241941941E-1,4.208388219E-1
1.271219958E1,3.390054837E-2,1.357945669E-1,-5.448261590E-1,5.625166265E-1
1.272222958E1,2.929981291E-2,1.056913465E-1,-7.292565501E-1,7.374579687E-1
1.273225958E1,8.222076908E-2,1.563533771E-1,-8.842581971E-1,9.017312197E-1
1.274228858E1,1.348030253E-1,2.276005304E-1,-9.710932964E-1,1.006477048E0
1.275231858E1,3.146322423E-1,2.300575304E-1,-9.932992673E-1,1.067034840E0
1.276234858E1,5.810043441E-1,1.272149473E-1,-9.536530986E-1,1.123923451E0
1.277237858E1,8.366476822E-1,-3.676787674E-2,-9.065245405E-1,1.234146654E0
1.278240758E1,1.091242468E0,-1.356887323E-1,-8.441233474E-1,1.386277671E0
1.279243758E1,1.254098534E0,-1.319079226E-1,-8.310244149E-1,1.510219988E0
1.280246758E1,1.351920552E0,7.291419446E-2,-8.500208491E-1,1.598605987E0
1.281249758E1,1.501057880E0,3.013350892E-1,-9.102597418E-1,1.781165459E0
1.282252658E1,1.712441888E0,4.007938886E-1,-9.647391272E-1,2.005944801E0
1.283255658E1,1.956154129E0,2.718031418E-1,-9.955492759E-1,2.211681326E0
1.284258658E1,2.226290230E0,-5.646890044E-2,-1.021170898E0,2.449968760E0
1.285261658E1,2.535228746E0,-4.523236459E-1,-1.032291425E0,2.774456174E0
1.286264658E1,2.780950967E0,-7.379928750E-1,-1.067891905E0,3.068992487E0
1.287267558E1,2.886545250E0,-8.055954587E-1,-1.165974270E0,3.215683989E0
1.288270558E1,2.752311305E0,-6.076344645E-1,-1.330569005E0,3.116865579E0
1.289273558E1,2.526914005E0,-3.722711706E-1,-1.514751036E0,2.969570830E0
1.290276558E1,2.406156577E0,-3.886959994E-1,-1.698237247E0,2.970636935E0
1.291279458E1,2.521691272E0,-7.567916733E-1,-1.824979740E0,3.203468676E0
1.292282458E1,2.674645955E0,-1.263099153E0,-2.025073798E0,3.584700036E0
1.293285458E1,2.831236145E0,-1.837925475E0,-2.656958420E0,4.295729997E0
1.294288458E1,3.114645425E0,-2.496764007E0,-6.243998351E0,7.410962288E0
1.295291358E1,4.278939790E0,-3.163449503E0,-1.306430062E1,1.410647685E1
1.296294358E1,5.567083152E0,-3.423518452E0,-1.114628992E1,1.292101669E1
1.297297358E1,5.060673346E0,-2.873246343E0,-5.263969924E0,7.846995516E0
1.298300358E1,3.796566133E0,-1.771504614E0,-2.477422587E0,4.867213338E0
1.299303258E1,3.028308070E0,-7.010390568E-1,-1.941575851E0,3.664945062E0
1.300306258E1,3.275736508E0,1.618795806E-1,-2.462685265E0,4.101398955E0
1.301309267E1,4.222860314E0,4.826350272E-1,-2.518307489E0,4.940380391E0
1.302312267E1,4.797147815E0,-1.431725836E-1,-1.515344382E0,5.032831623E0
1.303315167E1,4.400858037E0,-1.255688392E0,4.094465983E-1,4.594774348E0
1.304318167E1,3.458529825E0,-2.219083244E0,2.526200645E0,4.823634387E0
1.305321167E1,2.810525599E0,-2.702608218E0,3.731023523E0,5.396636161E0
1.306324167E1,1.882661791E0,-3.124736257E0,4.373183457E0,5.695008837E0
1.307327167E1,1.009121248E0,-3.631606239E0,4.627851918E0,5.968576291E0
1.308330067E1,4.391033837E-1,-4.122926720E0,4.569628268E0,6.170319200E0
1.309333067E1,-2.659132415E-1,-4.319106068E0,4.424517918E0,6.188840431E0
1.310336067E1,-9.589183702E-1,-4.271912021E0,3.853549004E0,5.832546329E0
1.311339067E1,-1.534144496E0,-4.042036339E0,2.966925169E0,5.243500935E0
1.312341967E1,-2.184693138E0,-3.304680811E0,2.844085693E-2,3.961642115E0
1.313344967E1,-2.426660862E0,-2.232223107E0,-2.977027988E0,4.442319054E0
1.314347967E1,-2.444435813E0,-1.316272563E0,-3.061409158E0,4.132803640E0
1.315350967E1,-2.798106113E0,-6.970740598E-1,-9.545216294E-1,3.037502528E0
1.316353867E1,-2.937859537E0,-1.585507607E-1,1.110871571E0,3.144867669E0
1.317356867E1,-2.880703297E0,1.270921558E-1,1.823262413E0,3.411581704E0
1.318359867E1,-3.078586231E0,1.334147501E-1,1.717873659E0,3.527971455E0
1.319362867E1,-3.197859197E0,2.974829435E-2,1.348959668E0,3.470861650E0
1.320365767E1,-3.319064084E0,1.837195158E-2,1.249845854E0,3.546637644E0
1.321368767E1,-3.299432057E0,1.057123965E-1,1.432810933E0,3.598662832E0
1.322371767E1,-3.279648003E0,2.334758127E-1,1.875768070E0,3.785380804E0
1.323374767E1,-3.287600801E0,3.161595351E-1,2.271028300E0,4.008222227E0
1.324377767E1,-3.358892686E0,3.354793203E-1,2.555533202E0,4.233846525E0
1.325380667E1,-3.386586853E0,2.941973931E-1,2.894744800E0,4.464870668E0
1.326383667E1,-3.378308658E0,2.602800339E-1,3.107644261E0,4.597626337E0
1.327386667E1,-3.364963557E0,3.719899195E-1,3.051336744E0,4.557632298E0
1.328389667E1,-3.448909986E0,6.398122770E-1,3.133910831E0,4.703800265E0
1.329392567E1,-3.614694337E0,8.995806795E-1,3.529446903E0,5.131496467E0
1.330395567E1,-3.948002294E0,1.220155447E0,3.913896655E0,5.691580488E0
1.331398567E1,-4.444123632E0,1.485292763E0,3.989104712E0,6.153802552E0
1.332401567E1,-4.929796872E0,1.615010319E0,3.712512116E0,6.379177199E0
1.333404467E1,-5.220756662E0,1.740492736E0,3.218684056E0,6.375385646E0
1.334407467E1,-5.354000673E0,1.943591094E0,2.664487880E0,6.288272037E0
1.335410467E1,-5.230669447E0,2.209782663E0,2.304266359E0,6.128024619E0
1.336413467E1,-4.831121307E0,2.472239615E0,2.054764498E0,5.802909524E0
1.337416367E1,-4.158792956E0,2.693623386E0,1.863070549E0,5.293599689E0
1.338419367E1,-3.337847680E0,2.793740582E0,1.515955270E0,4.609157618E0
1.339422367E1,-2.378801109E0,2.757918200E0,1.051187872E0,3.790752360E0
1.340425367E1,-1.409101789E0,2.642137483E0,6.935300624E-1,3.073669188E0
1.341428267E1,-7.885590112E-1,2.392796420E0,4.380464995E-1,2.557182973E0
1.342431267E1,-3.236816856E-1,2.103328255E0,1.594082549E-1,2.134050274E0
1.343434267E1,2.908244267E-1,1.735015649E0,-4.933672991E-1,1.827093167E0
1.344437267E1,9.527461955E-1,1.269874907E0,-1.700068888E0,2.326057139E0
1.345440267E1,1.731352953E0,8.371376789E-1,-3.038378145E0,3.595848202E0
1.346443167E1,2.631984378E0,3.746585888E-1,-4.377589919E0,5.121621259E0
1.347446167E1,4.320465546E0,-2.904516667E-1,-6.883155155E0,8.131949926E0
1.348449167E1,7.721158222E0,-1.175117269E0,-1.115349603E1,1.361608088E1
1.349452167E1,1.214956220E1,-2.334842327E0,-1.110275155E1,1.662331021E1
1.350455067E1,1.415916017E1,-4.056558484E0,-4.317944226E0,1.534868482E1
1.351458067E1,1.048718476E1,-5.321737491E0,4.023692746E-1,1.176706569E1
1.352461067E1,5.213007932E0,-3.882860511E0,5.149224749E-1,6.520521651E0
1.353464067E1,2.481040552E0,6.301368892E-2,2.221061942E-1,2.491759239E0
1.354466967E1,4.092556867E-1,3.795031239E0,1.624080373E0,4.148179044E0
1.355469967E1,-8.942164439E-1,5.788273380E0,4.051595367E0,7.121738326E0
1.356472967E1,-2.121645827E0,5.046117872E0,5.756300805E0,7.943531050E0
1.357475967E1,-3.444793254E0,1.012552979E0,5.918463975E0,6.922433093E0
1.358478867E1,-2.980743602E0,-5.273580993E0,3.138544749E0,6.822459384E0
1.359481867E1,-4.634663925E-1,-1.279164495E1,-5.500362328E0,1.393179699E1
1.360484867E1,1.125184386E0,-1.631317034E1,-4.604167771E0,1.698775816E1
1.361487867E1,1.302734797E0,-1.353999149E1,-1.519156913E0,1.368708607E1
1.362490767E1,1.162610659E-1,-7.138311274E0,-1.793539846E-1,7.141510508E0
1.363493767E1,-3.134912167E0,-9.073060209E-1,4.330623329E-1,3.292175799E0
1.364496767E1,-6.077188398E0,3.515987490E0,1.509107888E-1,7.022617811E0
1.365499767E1,-7.819044120E0,6.206624703E0,-2.906080797E-2,9.983009851E0
1.366502767E1,-8.044205192E0,7.374424181E0,1.031538888E0,1.096154376E1
1.367505667E1,-7.001939002E0,7.218082498E0,2.645731766E0,1.039844995E1
1.368508667E1,-5.556876837E0,5.886769143E0,3.190065444E0,8.701117667E0
1.369511667E1,-4.012176363E0,3.987237403E0,2.977571779E0,6.392304356E0
1.370514667E1,-2.636308101E0,1.972925990E0,2.819057271E0,4.334701981E0
1.371517567E1,-1.270304677E0,-2.146507019E-1,2.768876467E0,3.053919741E0
1.372520567E1,-9.596888870E-2,-2.180247207E0,2.865178939E0,3.601657711E0
1.373523567E1,6.470008439E-1,-3.428216690E0,2.988067532E0,4.593454837E0
1.374526567E1,8.640766785E-1,-3.775145443E0,2.860238042E0,4.814489929E0
1.375529467E1,8.452857739E-1,-3.140870479E0,2.534095556E0,4.123253047E0
1.376532467E1,6.992974636E-1,-1.920375894E0,2.329114394E0,3.098650412E0
1.377535467E1,5.133595142E-1,-6.460921866E-1,2.134207985E0,2.288190733E0
1.378538467E1,3.007149920E-1,4.360543531E-1,1.824053541E0,1.899406282E0
1.379541367E1,1.378831923E-2,1.153362118E0,1.501381962E0,1.893299260E0
1.380544367E1,-2.071238735E-1,1.584171519E0,1.196580643E0,1.996072377E0
1.381547367E1,-4.104716152E-1,1.832388162E0,9.699273616E-1,2.113502404E0
1.382550367E1,-3.983067754E-1,1.462023184E0,3.736815556E-1,1.560704322E0
1.383553367E1,-1.349996379E-1,6.471984798E-1,-6.847900830E-2,6.646654414E-1
1.384556267E1,-1.427042216E-2,1.858479023E-2,-2.077726221E-1,2.090896982E-1
1.385559267E1,4.514679059E-2,-4.209907562E-1,-1.844013742E-1,4.618174058E-1
1.386562267E1,1.355080533E-1,-4.793319350E-1,-3.187266089E-2,4.991366576E-1
1.387565267E1,-1.122987002E-2,1.389824688E-2,2.123159818E-1,2.130665327E-1
1.388568167E1,-2.000139517E-1,7.520273620E-1,3.193696564E-1,8.411585531E-1
1.389571167E1,-1.612749785E-1,1.288940338E0,2.955190100E-1,1.332181781E0
1.390574167E1,-8.695789084E-2,1.684096926E0,3.173723938E-1,1.715945619E0
1.391577167E1,1.311384290E-2,1.962963504E0,3.600504899E-1,1.995754005E0
1.392580067E1,1.017675725E-1,2.126389089E0,3.835901376E-1,2.163106236E0
1.393583067E1,8.014734641E-2,2.093464002E0,3.558966279E-1,2.125012361E0
1.394586067E1,3.949867263E-2,1.829525365E0,3.428840880E-1,1.861798245E0
1.395589067E1,5.813901141E-2,1.314920686E0,3.707690209E-1,1.367430519E0
1.396591967E1,2.050577599E-1,5.164085448E-1,4.127194311E-1,6.921443482E-1
1.397594967E1,3.158496326E-1,-3.843176043E-1,4.278491016E-1,6.561370780E-1
1.398597967E1,3.919410579E-1,-1.189666311E0,4.323706073E-1,1.325091720E0
1.399600967E1,4.147374514E-1,-1.768353549E0,4.020405149E-1,1.860300515E0
1.400603946E1,3.650358260E-1,-1.999587539E0,2.916852830E-1,2.053456059E0
1.401606846E1,1.925211833E-1,-1.730953004E0,8.693289399E-2,1.743794723E0
1.402609846E1,-4.303346068E-2,-1.151386344E0,-1.427433980E-1,1.160998738E0
1.403612846E1,-1.180798423E-1,-5.370521396E-1,-4.613410757E-1,7.177767327E-1
1.404615846E1,-4.936058655E-2,-8.091201603E-2,-7.887151319E-1,7.943895651E-1
1.405618746E1,7.992164388E-2,1.331650740E-1,-1.074653918E0,1.085818331E0
1.406621746E1,2.939908402E-1,2.531540322E-1,-1.295708198E0,1.352544754E0
1.407624746E1,6.553303488E-1,3.528987604E-1,-1.419402390E0,1.602715991E0
1.408627746E1,1.240444408E0,3.764583617E-1,-1.535461873E0,2.009494064E0
1.409630646E1,2.093921693E0,2.237068695E-1,-1.831913076E0,2.791139254E0
1.410633646E1,2.931603309E0,4.352433443E-2,-2.209538249E0,3.671273839E0
1.411636646E1,3.503315112E0,-4.427219331E-2,-2.418123342E0,4.257052654E0
1.412639646E1,3.846925278E0,-3.605919421E-2,-2.466647338E0,4.569954425E0
1.413642546E1,4.011008674E0,-9.529909015E-2,-2.335260403E0,4.642274620E0
1.414645546E1,4.211664065E0,-4.574820596E-1,-2.187338126E0,4.767793212E0
1.415648546E1,4.517225522E0,-1.203338855E0,-2.365072432E0,5.238980666E0
1.416651546E1,4.643014333E0,-1.948738398E0,-3.678462902E0,6.235884281E0
1.417654546E1,4.527078080E0,-2.378563712E0,-6.226289474E0,8.057213035E0
1.418657446E1,4.926414843E0,-2.990143878E0,-7.497354873E0,9.456260028E0
1.419660446E1,5.843017936E0,-3.419608419E0,-5.403980334E0,8.662423667E0
1.420663446E1,6.068301215E0,-3.296703454E0,-2.895834721E0,7.488550730E0
1.421666446E1,5.631735231E0,-2.818446237E0,-1.491831266E0,6.471911729E0
1.422669346E1,5.016148553E0,-2.211913973E0,-1.285858563E0,5.630962793E0
1.423672346E1,4.018891598E0,-1.226345894E0,-2.640886179E0,4.962831222E0
1.424675346E1,2.805163702E0,-3.621671820E-1,-4.723601244E0,5.505680446E0
1.425678346E1,1.772400407E0,-3.797819191E-1,-5.141909298E0,5.452051791E0
1.426681246E1,9.883210941E-1,-9.157295197E-1,-3.299673255E0,3.564152456E0
1.427684246E1,6.346608800E-1,-1.690404902E0,-4.053722584E-1,1.850564734E0
1.428687246E1,1.664537112E-1,-2.401401767E0,2.262949056E0,3.303842568E0
1.429690246E1,-2.712470716E-1,-2.823329832E0,4.061782386E0,4.954073321E0
1.430693146E1,-9.512830760E-1,-3.126024399E0,4.922262150E0,5.908098908E0
1.431696146E1,-1.676449060E0,-3.416366138E0,5.273690336E0,6.503372110E0
1.432699146E1,-2.191718275E0,-3.923777572E0,5.350016381E0,6.987298097E0
1.433702146E1,-2.724575037E0,-4.527456395E0,4.734869413E0,7.095079908E0
1.434705146E1,-3.232530555E0,-4.767789822E0,2.477883933E0,6.270644493E0
1.435708046E1,-2.892974556E0,-3.780448283E0,-1.901112242E0,5.125945645E0
1.436711046E1,-2.180844500E0,-2.050831368E0,-3.796624020E0,4.834909098E0
1.437714046E1,-2.003989031E0,-8.447449064E-1,-1.419820905E0,2.597201839E0
1.438717046E1,-1.912385674E0,5.209109008E-2,1.182885879E0,2.249255755E0
1.439719946E1,-1.687888845E0,7.339430934E-1,2.707257339E0,3.273665150E0
1.440722946E1,-1.226530666E0,1.163242158E0,2.648841316E0,3.142271489E0
1.441725946E1,-8.252514589E-1,1.379071074E0,1.789204574E0,2.405021831E0
1.442728946E1,-9.907630375E-1,1.392122059E0,1.402191696E0,2.210374805E0
1.443731846E1,-1.234866165E0,1.245248188E0,1.570615042E0,2.354223673E0
1.444734846E1,-1.513321976E0,9.907411104E-1,1.990541458E0,2.689603437E0
1.445737846E1,-2.139109414E0,6.535245824E-1,2.133005652E0,3.090727515E0
1.446740846E1,-2.925683880E0,3.248490822E-1,2.143226731E0,3.641232472E0
1.447743746E1,-3.413322662E0,1.988538641E-1,2.111485705E0,4.018542813E0
1.448746746E1,-3.695744055E0,2.842518640E-1,2.014231160E0,4.218583934E0
1.449749746E1,-3.731965802E0,3.705778170E-1,1.963008528E0,4.233001198E0
1.450752746E1,-3.605679685E0,4.442679369E-1,2.032056105E0,4.162637626E0
1.451755746E1,-3.470926215E0,4.926635867E-1,2.319833401E0,4.203768929E0
1.452758646E1,-3.384489457E0,5.717103410E-1,2.765776273E0,4.408076677E0
1.453761646E1,-3.376614427E0,6.365740889E-1,2.849973840E0,4.464202330E0
1.454764646E1,-3.633303978E0,6.168911916E-1,2.620160430E0,4.521801988E0
1.455767646E1,-4.120644844E0,5.707870656E-1,2.337240855E0,4.771604198E0
1.456770546E1,-4.493444311E0,5.674424583E-1,1.975511044E0,4.941222177E0
1.457773546E1,-4.606072502E0,6.651371527E-1,1.595510732E0,4.919752618E0
1.458776546E1,-4.426176480E0,8.807222396E-1,1.316097292E0,4.700938415E0
1.459779546E1,-4.052563374E0,1.197973450E0,1.196092693E0,4.391929874E0
1.460782446E1,-3.511397133E0,1.553259044E0,1.079541313E0,3.988475013E0
1.461785446E1,-2.890904057E0,1.852563395E0,8.947608197E-1,3.548226926E0
1.462788446E1,-2.371937647E0,1.969009525E0,6.730446348E-1,3.155324990E0
1.463791446E1,-1.925298957E0,2.066903025E0,4.605302131E-1,2.861983974E0
1.464794446E1,-1.553986437E0,2.104788305E0,2.677872741E-1,2.629965338E0
1.465797346E1,-1.224013440E0,2.073170655E0,6.075958729E-2,2.408305877E0
1.466800346E1,-7.903447509E-1,2.026401701E0,-3.567655241E-1,2.204139360E0
1.467803346E1,-2.627349874E-1,1.896060832E0,-8.850098567E-1,2.108866710E0
1.468806346E1,2.485443798E-1,1.571722797E0,-1.511334215E0,2.194588337E0
1.469809246E1,8.716116929E-1,9.774047810E-1,-2.289708838E0,2.637762994E0
1.470812246E1,1.820917094E0,2.704091656E-1,-3.001973380E0,3.521463383E0
1.471815246E1,3.591637889E0,-4.228209347E-1,-4.672863200E0,5.908831589E0
1.472818246E1,6.874429355E0,-9.580949360E-1,-7.308170550E0,1.007894249E1
1.473821146E1,1.079383964E1,-1.884934165E0,-7.069017091E0,1.303959177E1
1.474824146E1,1.277902315E1,-3.790317214E0,-4.541942872E0,1.408187425E1
1.475827146E1,1.032474910E1,-5.487193814E0,-2.216622297E0,1.190055269E1
1.476830146E1,5.082874054E0,-4.657452863E0,2.631970637E-1,6.899039681E0
1.477833046E1,1.560943747E0,-7.383992565E-1,1.626703581E0,2.372328683E0
1.478836046E1,-1.221463469E0,3.162634985E0,2.557408404E0,4.246712941E0
1.479839046E1,-3.547965912E0,5.849390817E0,3.594958230E0,7.728334861E0
1.480842046E1,-5.310513761E0,6.629666662E0,4.096255231E0,9.430447676E0
1.481845046E1,-6.472757800E0,4.151256480E0,4.020138516E0,8.677040831E0
1.482847946E1,-6.413781613E0,-1.383733644E0,3.268426319E0,7.330342692E0
1.483850946E1,-4.380768465E0,-9.085156928E0,-5.023040081E0,1.126774780E1
1.484853946E1,-6.148528522E-1,-1.590545802E1,-9.821734192E0,1.870369219E1
1.485856946E1,1.797981683E0,-1.640987627E1,-4.063330729E0,1.700080686E1
1.486859846E1,2.640221643E0,-1.205654001E1,-1.460330415E0,1.242833426E1
1.487862846E1,1.974497722E0,-5.494420388E0,-1.901305200E0,6.140216455E0
1.488865846E1,-2.296262105E0,9.221076626E-1,-2.158387392E0,3.283555745E0
1.489868846E1,-5.642835000E0,4.425527732E0,-7.291863835E-1,7.208231082E0
1.490871746E1,-7.089751318E0,5.760293868E0,1.284042710E0,9.224658523E0
1.491874746E1,-7.530906197E0,6.238949280E0,2.778815564E0,1.016665393E1
1.492877746E1,-6.968074268E0,6.012042230E0,2.951179787E0,9.664790371E0
1.493880746E1,-5.723583294E0,5.158984337E0,2.473358188E0,8.092714368E0
1.494883746E1,-4.562007885E0,3.761282279E0,2.428271477E0,6.391843450E0
1.495886646E1,-3.474744154E0,1.810012622E0,2.524949341E0,4.661047286E0
1.496889646E1,-2.089956550E0,-1.588729423E-1,2.707465500E0,3.423963847E0
1.497892646E1,-9.975019535E-1,-1.752321069E0,3.010316187E0,3.623208912E0
1.498895646E1,-3.406111291E-1,-2.724442890E0,3.222385343E0,4.233482291E0
1.499898546E1,4.218093663E-2,-2.877464524E0,3.389312825E0,4.446236920E0
1.500901554E1,3.051582912E-1,-2.366110897E0,3.446768736E0,4.191875127E0
1.501904554E1,5.876483890E-1,-1.552775479E0,3.320130908E0,3.712103388E0
1.502907554E1,8.859905809E-1,-6.738764012E-1,3.189705255E0,3.378358822E0
1.503910454E1,1.171334412E0,1.542688447E-1,2.979974985E0,3.205631622E0
1.504913454E1,1.331445795E0,7.616875470E-1,2.755908512E0,3.154036707E0
1.505916454E1,1.447490075E0,1.112710521E0,2.452010003E0,3.057074627E0
1.506919454E1,1.562219025E0,1.241058074E0,2.181655802E0,2.956412600E0
1.507922454E1,1.723020671E0,1.246538084E0,1.958885071E0,2.891347117E0
1.508925354E1,1.963888680E0,1.254736465E0,1.782521353E0,2.934042385E0
1.509928354E1,2.170448151E0,1.330548540E0,1.775876577E0,3.104020330E0
1.510931354E1,2.369047223E0,1.265670758E0,2.969501452E0,4.004028732E0
1.511934354E1,2.745834929E0,1.086500961E0,2.244496998E0,3.709159011E0
1.512937254E1,3.159844109E0,8.531836081E-1,1.876605392E-2,3.273055030E0
1.513940254E1,3.309920501E0,6.637080932E-1,-1.033477825E0,3.530461523E0
1.514943254E1,3.220182990E0,5.735738486E-1,-1.895233013E0,3.780274278E0
1.515946254E1,2.848089867E0,3.376930761E-1,-4.135077235E0,5.032346991E0
1.516949154E1,1.991200586E0,-1.355431366E-1,-6.767144058E0,7.055316464E0
1.517952154E1,1.233172080E0,-5.051625949E-1,-5.962658985E0,6.109763072E0
1.518955154E1,1.183255716E0,-5.414691263E-1,-3.703324678E0,3.925289362E0
1.519958154E1,1.205486830E0,-3.087253851E-1,-2.059347691E0,2.406121937E0
1.520961054E1,1.080451140E0,-1.778723001E-3,-1.165313827E0,1.589129996E0
1.521964054E1,8.900726683E-1,3.299139404E-1,-6.756744200E-1,1.165164574E0
1.522967054E1,6.585536264E-1,5.607666922E-1,-4.259094340E-1,9.641322564E-1
1.523970054E1,5.737459029E-1,5.700240040E-1,-4.438368510E-1,9.225523706E-1
1.524973054E1,5.488151295E-1,4.590666550E-1,-5.175212699E-1,8.830450187E-1
1.525975954E1,6.150623287E-1,4.707049531E-1,-5.787218834E-1,9.668421999E-1
1.526978954E1,7.389750610E-1,6.079315031E-1,-5.971153235E-1,1.127923563E0
1.527981954E1,8.646378650E-1,7.044415516E-1,-6.074824369E-1,1.269988759E0
1.528984954E1,9.276391286E-1,6.971717083E-1,-6.159500822E-1,1.313756921E0
1.529987854E1,9.184568073E-1,6.499647975E-1,-6.279026681E-1,1.288518104E0
1.530990854E1,8.409869009E-1,6.172046024E-1,-6.794657546E-1,1.244939436E0
1.531993854E1,7.835298210E-1,6.025982577E-1,-7.325476554E-1,1.230312850E0
1.532996854E1,7.483212505E-1,5.056256944E-1,-8.038766697E-1,1.209073917E0
1.533999754E1,8.489511010E-1,3.211337614E-1,-8.617439318E-1,1.251577991E0
1.535002754E1,1.017096558E0,1.450425231E-1,-8.501108962E-1,1.333495886E0
1.536005754E1,1.219065818E0,-2.315497398E-3,-7.929327285E-1,1.454258967E0
1.537008754E1,1.276757079E0,-3.466638744E-2,-7.028832686E-1,1.457859831E0
1.538011654E1,1.314956062E0,-3.381620228E-2,-6.110112315E-1,1.450375023E0
1.539014654E1,1.279547809E0,-8.872331142E-2,-5.455155458E-1,1.393808320E0
1.540017654E1,1.373641934E0,-2.902423364E-1,-4.848752417E-1,1.485340627E0
1.541020654E1,1.543983606E0,-5.680341965E-1,-4.035327244E-1,1.693926469E0
1.542023654E1,1.709779066E0,-8.290714449E-1,-3.523947304E-1,1.932585305E0
1.543026554E1,1.800746101E0,-1.005818741E0,-3.308980268E-1,2.088983332E0
1.544029554E1,1.770127887E0,-1.016879334E0,-4.516073620E-1,2.090776297E0
1.545032554E1,1.692677130E0,-1.018325935E0,-4.947641990E-1,2.036402512E0
1.546035554E1,1.806171440E0,-1.327005712E0,-4.855717912E-1,2.293246475E0
1.547038454E1,2.517737093E0,-2.302658082E0,-1.606660495E0,3.771285226E0
1.548041454E1,4.418957508E0,-3.536160969E0,-1.078721709E1,1.218177624E1
1.549044454E1,7.566619821E0,-3.755935001E0,-2.153259383E1,2.313035625E1
1.550047454E1,6.404582189E0,-2.997013187E0,-1.001977471E1,1.226363104E1
1.551050354E1,3.774888458E0,-2.210847441E0,-1.598196943E0,4.657452388E0
1.552053354E1,3.442226619E0,-1.571533347E0,-3.892213717E-2,3.784198209E0
1.553056354E1,5.120027263E0,-1.021883381E0,-6.025469483E-1,5.255662436E0
1.554059354E1,6.400217827E0,-1.165288099E0,-7.635025958E-1,6.550085557E0
1.555062254E1,5.639193939E0,-1.774462720E0,1.410318448E-1,5.913469050E0
1.556065254E1,4.092540495E0,-2.259775772E0,2.108926379E0,5.128649404E0
1.557068254E1,2.761211936E0,-2.460599563E0,3.742893371E0,5.261947582E0
1.558071254E1,1.737242854E0,-2.678357475E0,3.927273037E0,5.061134755E0
1.559074254E1,1.355256388E0,-3.015944717E0,4.195846177E0,5.342075211E0
1.560077154E1,8.384838541E-1,-3.217904037E0,4.438615555E0,5.546104003E0
1.561080154E1,3.668472934E-1,-3.385757133E0,4.190534567E0,5.399861874E0
1.562083154E1,-4.082394406E-2,-3.535375687E0,3.844064820E0,5.222775334E0
1.563086154E1,-3.622054812E-1,-3.379215268E0,3.604449431E0,4.954023046E0
1.564089054E1,-7.240501893E-1,-2.588996233E0,3.451713141E0,4.375097002E0
1.565092054E1,-1.300533320E0,-1.604726821E0,2.759177105E0,3.446678602E0
1.566095054E1,-1.966324484E0,-8.101656425E-1,9.505748320E-1,2.329461924E0
1.567098054E1,-1.989536176E0,-3.288748902E-1,-1.043858972E0,2.270694704E0
1.568100954E1,-2.364988232E0,-3.184802949E-1,-1.148602338E0,2.648374287E0
1.569103954E1,-3.057201209E0,-5.029073238E-1,3.941619766E-1,3.123260903E0
1.570106954E1,-3.495321676E0,-6.672023892E-1,1.824365197E0,3.998842460E0
1.571109954E1,-3.564658543E0,-6.051207465E-1,2.675048536E0,4.497648977E0
1.572112854E1,-3.363559641E0,-4.215134972E-1,3.073239244E0,4.575588109E0
1.573115854E1,-3.134021343E0,-7.409299314E-2,3.400727760E0,4.625205817E0
1.574118854E1,-2.894136690E0,3.170249230E-1,3.667180991E0,4.682387041E0
1.575121854E1,-2.709453845E0,6.141418308E-1,3.939387299E0,4.820485724E0
1.576124854E1,-2.758445034E0,7.331659985E-1,4.171977843E0,5.054893719E0
1.577127754E1,-2.875062488E0,6.877185148E-1,4.281438890E0,5.202851144E0
1.578130754E1,-3.137974938E0,5.630190396E-1,4.212943436E0,5.283253689E0
1.579133754E1,-3.487091427E0,3.608807945E-1,4.129197274E0,5.416669798E0
1.580136754E1,-3.896875995E0,2.849459285E-1,4.144093349E0,5.695642754E0
1.581139654E1,-4.354291103E0,3.593862462E-1,4.068122522E0,5.969809909E0
1.582142654E1,-4.784062916E0,5.285923880E-1,3.851558904E0,6.164509217E0
1.583145654E1,-5.144206084E0,7.436816311E-1,3.581361992E0,6.312057693E0
1.584148654E1,-5.471570638E0,9.786823976E-1,3.171812775E0,6.399710991E0
1.585151554E1,-5.693108191E0,1.185980811E0,2.720667343E0,6.420285208E0
1.586154554E1,-5.686876813E0,1.388333648E0,2.244936708E0,6.269591616E0
1.587157554E1,-5.249553030E0,1.535852467E0,1.890857103E0,5.787226485E0
1.588160554E1,-4.462031314E0,1.753058403E0,1.601625165E0,5.054516830E0
1.589163554E1,-3.498147343E0,1.868760182E0,7.702072325E-1,4.040113690E0
1.590166454E1,-2.566571576E0,1.837620835E0,2.589790285E-2,3.156708838E0
1.591169454E1,-1.765740721E0,1.761101832E0,-4.856460509E-1,2.540703061E0
1.592172454E1,-9.500532603E-1,1.572996905E0,-1.061108842E0,2.121997275E0
1.593175454E1,-7.486541033E-2,1.410646623E0,-1.652133121E0,2.173723206E0
1.594178354E1,6.443374372E-1,1.318648871E0,-2.308667558E0,2.735681172E0
1.595181354E1,1.168001499E0,1.210292364E0,-2.802836803E0,3.268781004E0
1.596184354E1,1.568539865E0,9.529031932E-1,-3.309060667E0,3.783942957E0
1.597187354E1,2.237654293E0,4.982196110E-1,-4.180269195E0,4.767595836E0
1.598190254E1,4.300180385E0,-1.923552686E-1,-7.505198328E0,8.651968206E0
1.599193254E1,8.339670846E0,-1.175838230E0,-1.106798869E1,1.390802211E1
1.600196254E1,1.175472779E1,-2.811176979E0,-7.501335658E0,1.422485072E1
1.601199296E1,9.841212437E0,-4.490690272E0,6.247975042E-1,1.083541108E1
1.602202196E1,4.199151608E0,-4.349375934E0,2.497523853E0,6.541220883E0
1.603205196E1,1.016803320E0,-1.251316429E0,1.008505536E0,1.901779486E0
1.604208196E1,-5.907743105E-1,2.597875230E0,6.862058401E-1,2.751154022E0
1.605211196E1,-2.041116804E0,5.924629864E0,1.955799203E0,6.564491401E0
1.606214096E1,-2.697388993E0,8.172859139E0,4.229172675E0,9.589443957E0
1.607217096E1,-3.046176284E0,8.268347095E0,5.657053674E0,1.047124682E1
1.608220096E1,-3.615581068E0,5.109858370E0,5.702139215E0,8.467435896E0
1.609223096E1,-3.435826549E0,-1.341220878E0,5.616324309E0,6.719142524E0
1.610226096E1,-1.073520727E0,-1.072850402E1,-4.402538234E0,1.164626928E1
1.611228996E1,3.048966867E0,-2.015668318E1,-1.552398100E1,2.562385728E1
1.612231996E1,4.189051128E0,-2.127503100E1,-6.407928550E0,2.261054271E1
1.613234996E1,3.185334461E0,-1.639552954E1,-5.096313295E-1,1.670986142E1
1.614237996E1,8.478269738E-1,-7.577056516E0,2.388838001E0,7.989814955E0
1.615240896E1,-2.548329140E0,-1.080863661E-1,4.082550819E0,4.813822313E0
1.616243896E1,-4.616131467E0,4.202769865E0,4.343923405E0,7.605367500E0
1.617246896E1,-5.468390923E0,6.602540844E0,4.104469399E0,9.504920512E0
1.618249896E1,-5.721783521E0,7.622437926E0,3.464884579E0,1.014129142E1
1.619252796E1,-5.711671346E0,7.828272781E0,2.936369959E0,1.012557716E1
1.620255796E1,-5.336063170E0,7.246616326E0,2.057034094E0,9.231381673E0
1.621258796E1,-4.491458889E0,5.964552898E0,1.407934685E0,7.598116497E0
1.622261796E1,-3.447334161E0,3.974471177E0,1.458485034E0,5.459643995E0
1.623264696E1,-2.272450343E0,1.840156773E0,1.850057863E0,3.460190978E0
1.624267696E1,-1.173934377E0,-5.076611102E-2,2.150642170E0,2.450706196E0
1.625270696E1,-4.093968970E-1,-1.602551656E0,2.512010622E0,3.007652739E0
1.626273696E1,-2.205701306E-2,-2.633645571E0,2.833802780E0,3.868722490E0
1.627276596E1,1.243661839E-1,-3.031348622E0,2.989008933E0,4.258957128E0
1.628279596E1,1.420342769E-1,-2.666070721E0,2.989928116E0,4.008463167E0
1.629282596E1,1.925917885E-1,-1.773514302E0,2.796247283E0,3.316842391E0
1.630285596E1,2.788212624E-1,-8.458529538E-1,2.420374228E0,2.579034687E0
1.631288596E1,3.297502184E-1,7.257096291E-2,1.963975073E0,1.992786952E0
1.632291496E1,3.849622598E-1,7.842952216E-1,1.464380196E0,1.705205060E0
1.633294496E1,4.356162505E-1,1.238078333E0,9.844360578E-1,1.640644333E0
1.634297496E1,5.693255541E-1,1.452208632E0,5.532986283E-1,1.655047090E0
1.635300496E1,8.049738997E-1,1.353500615E0,2.177959192E-1,1.589774184E0
1.636303396E1,1.041380191E0,1.048827935E0,-8.170387521E-3,1.478032305E0
1.637306396E1,1.368726326E0,6.466049874E-1,-3.425322318E-1,1.552043200E0
1.638309396E1,1.670322932E0,3.374872541E-1,-7.989984839E-1,1.882093229E0
1.639312396E1,1.885434979E0,2.760879815E-1,-1.073296194E0,2.187019514E0
1.640315296E1,2.105578263E0,4.034964716E-1,-1.118985022E0,2.418345861E0
1.641318296E1,2.249780834E0,6.457700050E-1,-1.065572753E0,2.571765540E0
1.642321296E1,2.356793505E0,8.674180698E-1,-9.154998703E-1,2.673018845E0
1.643324296E1,2.235866215E0,9.551526171E-1,-7.621373440E-1,2.547992854E0
1.644327196E1,1.959679123E0,9.013874692E-1,-5.885457905E-1,2.235895298E0
1.645330196E1,1.574509872E0,8.587495726E-1,-5.230825567E-1,1.868193653E0
1.646333196E1,1.100897098E0,7.598784184E-1,-6.128671378E-1,1.471392456E0
1.647336196E1,6.418485698E-1,6.314256155E-1,-7.170465405E-1,1.151009833E0
1.648339096E1,1.831317244E-1,5.108735704E-1,-7.692206611E-1,9.413976094E-1
1.649342096E1,-2.068357520E-1,3.498161083E-1,-7.912026836E-1,8.894683943E-1
1.650345096E1,-4.554457667E-1,2.401346219E-1,-8.029713745E-1,9.538650384E-1
1.651348096E1,-6.917682964E-1,2.164586610E-1,-7.896036163E-1,1.071854280E0
1.652351096E1,-9.007780431E-1,2.217731953E-1,-7.805052026E-1,1.212341868E0
1.653353996E1,-1.085800172E0,1.845533288E-1,-7.535634255E-1,1.334496078E0
1.654356996E1,-1.191030320E0,1.935808450E-1,-8.002084190E-1,1.447881307E0
1.655359996E1,-1.213617237E0,1.614141423E-1,-8.640445188E-1,1.498497332E0
