"Time (s)","Linear Acceleration x (m/s^2)","Linear Acceleration y (m/s^2)","Linear Acceleration z (m/s^2)","Absolute acceleration (m/s^2)"
-1.599333336E-3,3.693981412E-1,3.510668278E-3,-3.958928986E-1,5.414780685E-1
8.449666668E-3,6.161079571E-1,-2.229157412E-1,-4.089868610E-1,7.723669432E-1
1.849866667E-2,7.896632579E-1,-3.016373903E-1,-4.573735937E-1,9.611159037E-1
2.854766666E-2,9.734149334E-1,-3.000639045E-1,-2.904309091E-1,1.059209655E0
3.859666667E-2,1.013065487E0,-1.430848753E-1,-1.505582017E-1,1.034138644E0
4.864566667E-2,8.398674515E-1,1.402688563E-2,-1.282500507E-1,8.497188742E-1
5.869466667E-2,6.629169649E-1,2.297821265E-1,8.216902122E-2,7.064067356E-1
6.874366666E-2,3.228756469E-1,3.284696782E-1,1.943800132E-1,4.999245967E-1
7.879166667E-2,-3.008947939E-2,4.819760460E-1,1.612746862E-1,5.091324092E-1
8.884066666E-2,-3.771509644E-1,7.903932828E-1,7.372929633E-2,8.788631296E-1
9.888966667E-2,-5.616978613E-1,-1.205947298E-1,2.677288020E-1,6.338188129E-1
1.089386667E-1,-3.488437164E-1,-7.922211224E-1,3.682054554E-1,9.406814033E-1
1.189876667E-1,-4.686204207E-1,-4.474382973E-1,3.662004451E-1,7.442505590E-1
1.290366667E-1,-5.872607186E-1,-1.027186221E-1,5.506298129E-1,8.115537307E-1
1.390856667E-1,-5.457700458E-1,2.016096568E-1,6.998900789E-1,9.101414831E-1
1.491346667E-1,-5.434861234E-1,1.731921887E-1,4.105359346E-1,7.027890538E-1
1.591836667E-1,-6.386030728E-1,2.008465952E-1,-1.352146693E-1,6.829613797E-1
1.692326667E-1,-6.704853085E-1,2.722527927E-1,-6.531304801E-1,9.748084714E-1
1.792816667E-1,-4.969595361E-1,6.092757779E-1,-9.322645685E-1,1.219550319E0
1.893306667E-1,-4.644039935E-1,1.143338236E0,-7.729147857E-1,1.456121787E0
1.993796667E-1,-6.604456392E-1,1.193341870E0,-2.574382871E-1,1.387994140E0
2.094286667E-1,-3.867556009E-1,1.414435619E-1,-7.238765270E-2,4.181221691E-1
2.194776667E-1,2.759359539E-2,-4.815135312E-1,-1.127696934E-1,4.953117109E-1
2.295266667E-1,2.839156491E-1,-9.082901073E-1,7.646053076E-2,9.546964059E-1
2.395756667E-1,6.690755448E-1,-1.295201536E0,1.510334341E-1,1.465612569E0
2.496246667E-1,7.002607924E-1,-1.020047940E0,1.214624566E-1,1.243228099E0
2.596736667E-1,6.172043100E-1,-1.162429980E0,-2.812738770E-1,1.345845315E0
2.697226667E-1,9.043797818E-1,-1.127664190E0,6.658692241E-2,1.447053259E0
2.797716667E-1,1.005461768E0,-4.073936409E-1,1.605599225E0,1.937749163E0
2.898206667E-1,4.355514926E-1,2.960123688E-1,1.214435408E0,1.323700036E0
2.998696667E-1,-2.161972904E-1,1.143878519E0,5.734241599E-1,1.297695882E0
3.099186667E-1,-4.825698307E-1,1.624617879E0,5.198452458E-1,1.772708654E0
3.199666667E-1,-1.199293166E-2,9.592462528E-1,6.230673131E-1,1.143901255E0
3.300156667E-1,3.521254662E-1,8.064269328E-1,3.698261574E-1,9.545093654E-1
3.400646667E-1,3.673022068E-1,8.275096536E-1,3.957147047E-1,9.880654155E-1
3.501136667E-1,4.572443703E-1,7.175311285E-1,3.860150510E-1,9.343077406E-1
3.601626667E-1,5.584982648E-1,5.747128862E-1,4.001214588E-1,8.957189264E-1
3.702116667E-1,4.947910962E-1,4.354731399E-1,3.376825511E-1,7.405974546E-1
3.802606667E-1,3.524795151E-1,2.531154406E-1,4.818810287E-1,6.484740247E-1
3.903096667E-1,2.248453224E-1,4.203621805E-2,6.356750795E-1,6.755777301E-1
4.003586667E-1,4.328839928E-2,-2.021440923E-1,7.028499395E-1,7.326214281E-1
4.104076667E-1,-2.209630635E-1,-3.681886446E-1,7.860549411E-1,8.956952182E-1
4.204566667E-1,-4.302226326E-1,-4.144214094E-1,8.050662857E-1,1.002481093E0
4.305056667E-1,-6.373614165E-1,-5.418462718E-1,8.581537414E-1,1.198438485E0
4.405546667E-1,-6.993831253E-1,-5.390068638E-1,8.655051532E-1,1.236432095E0
4.506036667E-1,-6.498528233E-1,-4.628755313E-1,7.348616910E-1,1.084704639E0
4.606526667E-1,-6.666752627E-1,-3.211267447E-1,7.064883694E-1,1.023085582E0
4.707016667E-1,-5.816520694E-1,-1.861706686E-1,7.160061747E-1,9.410863350E-1
4.807506667E-1,-2.648905635E-1,-3.435999334E-1,7.704519385E-1,8.842081850E-1
4.907996667E-1,1.880961567E-2,-5.215558487E-1,7.145315069E-1,8.848330799E-1
5.008486667E-1,5.845022947E-2,-7.130504072E-1,5.859506500E-1,9.247677961E-1
5.108976667E-1,3.617876977E-2,-6.754580730E-1,4.697617972E-1,8.235463909E-1
5.209466667E-1,-1.282072198E-1,-7.848004210E-1,5.341776484E-1,9.579637530E-1
5.309956667E-1,-1.143411326E-1,-7.243138987E-1,4.980664140E-1,8.864393218E-1
5.410436667E-1,-3.442425424E-1,-4.789705771E-1,4.236284351E-1,7.262071280E-1
5.510926667E-1,-2.474588442E-1,-5.848963970E-1,4.172292423E-1,7.598815141E-1
5.611416667E-1,-1.493533829E-1,-4.939113826E-1,4.132712620E-1,6.610960769E-1
5.711906667E-1,-6.552916110E-2,-4.133952230E-1,4.310707712E-1,6.008424845E-1
5.812396667E-1,4.487211764E-2,-4.498666459E-1,4.061382437E-1,6.077349579E-1
5.912886667E-1,8.501413018E-2,-4.178028542E-1,4.134057480E-1,5.938778829E-1
6.013376667E-1,1.042625794E-1,-3.730950433E-1,4.726459363E-1,6.111176465E-1
6.113866667E-1,9.998329461E-2,-3.952682698E-1,5.855966011E-1,7.135524112E-1
6.214356667E-1,6.644074202E-2,-5.083733010E-1,7.095268750E-1,8.753777309E-1
6.314846667E-1,-9.849459350E-2,-3.562538928E-1,5.930032691E-1,6.987638358E-1
6.415336667E-1,-2.020142841E-1,-5.902097619E-1,8.192779434E-1,1.029744474E0
6.515826667E-1,-2.856627971E-1,-5.610847807E-1,6.740524024E-1,9.223697772E-1
6.616316667E-1,-3.077489001E-1,-6.544624758E-1,6.103469878E-1,9.463371298E-1
6.716806667E-1,-2.142890516E-1,-8.657674009E-1,7.432518607E-1,1.160989371E0
6.817296667E-1,-7.894296616E-2,-1.008631251E0,8.718353489E-1,1.335539542E0
6.917786667E-1,-1.266176543E-1,-8.209256887E-1,6.549679676E-1,1.057796793E0
7.018276667E-1,-6.156357944E-2,-9.803073388E-1,8.811958641E-1,1.319582776E0
7.118766667E-1,8.398005009E-2,-9.641362792E-1,9.506303805E-1,1.356580088E0
7.219256667E-1,1.531999737E-1,-9.487195104E-1,9.098723638E-1,1.323407216E0
7.319746667E-1,1.862370345E-1,-1.168200012E0,1.001848481E0,1.550185757E0
7.420236667E-1,2.214583227E-1,-1.136250826E0,9.808449903E-1,1.517289235E0
7.520716667E-1,1.716713279E-1,-1.068834184E0,9.571655211E-1,1.445006364E0
7.621206667E-1,8.454225987E-2,-1.141164241E0,9.664815974E-1,1.497828394E0
7.721696667E-1,1.921669883E-1,-1.258028448E0,8.717482254E-1,1.542565621E0
7.822186667E-1,1.464022931E-1,-1.020568927E0,8.545790461E-1,1.339141483E0
7.922676667E-1,-1.656624368E-1,-1.093650936E0,9.633404732E-1,1.466813308E0
8.023166667E-1,-1.257133824E-1,-1.143106102E0,9.666324556E-1,1.502289492E0
8.123656667E-1,-1.039383513E-1,-1.223241608E0,1.136840225E0,1.673179282E0
8.224146667E-1,-6.470499605E-2,-1.225657677E0,1.258401208E0,1.757838752E0
8.324635417E-1,-5.148970395E-2,-1.193092194E0,1.148649262E0,1.656959656E0
8.425125417E-1,1.769922942E-2,-1.164524453E0,1.060923486E0,1.575432990E0
8.525615417E-1,6.268390596E-2,-1.079608263E0,1.095301021E0,1.539210057E0
8.626105417E-1,1.696525767E-1,-1.002469456E0,1.067855945E0,1.474463741E0
8.726595417E-1,2.855531618E-1,-9.179836214E-1,1.056447735E0,1.428396427E0
8.827085417E-1,3.993741846E-1,-8.962132680E-1,1.212389760E0,1.559675252E0
8.927575417E-1,4.173932567E-1,-9.513571894E-1,1.317401660E0,1.677749912E0
9.028065417E-1,3.334751871E-1,-1.067518560E0,1.337899367E0,1.743782180E0
9.128555417E-1,3.249557939E-1,-1.137398050E0,1.316585974E0,1.769934806E0
9.229045417E-1,3.371741357E-1,-1.167360352E0,1.379503768E0,1.838327293E0
9.329535417E-1,3.276393735E-1,-1.146458895E0,1.424991013E0,1.858040620E0
9.430025417E-1,3.345868890E-1,-1.088066261E0,1.440173893E0,1.835738929E0
9.530515417E-1,3.576181944E-1,-1.002767664E0,1.563662995E0,1.891685947E0
9.630995417E-1,3.235603559E-1,-8.910875988E-1,1.731495041E0,1.974032292E0
9.731485417E-1,4.005389500E-1,-8.494454831E-1,1.744788101E0,1.981482928E0
9.831975417E-1,4.232087512E-1,-7.870305490E-1,1.865960535E0,2.068896192E0
9.932465417E-1,4.278359453E-1,-7.693859911E-1,1.905580684E0,2.099103652E0
1.003295542E0,4.873952454E-1,-8.158959138E-1,1.901435593E0,2.125722837E0
1.013344542E0,6.629590648E-1,-7.647544116E-1,1.973357807E0,2.217770292E0
1.023393542E0,8.165265360E-1,-5.740047884E-1,2.167254109E0,2.386040120E0
1.033442542E0,1.028328913E0,-3.672852498E-1,2.385527746E0,2.623566549E0
1.043491542E0,1.253227299E0,-1.408073848E-1,2.606497826E0,2.895554576E0
1.053540542E0,1.255511952E0,5.662443638E-2,2.739473743E0,3.014006134E0
1.063589542E0,1.252840506E0,3.809928775E-1,2.909664848E0,3.190754524E0
1.073638542E0,1.336737525E0,1.256929171E0,3.227371556E0,3.712501221E0
1.083687542E0,1.162148729E0,2.800995807E0,3.387166897E0,4.546324534E0
1.093736542E0,4.835806681E-1,4.562170730E0,3.470140934E0,5.752315197E0
1.103785542E0,-2.101018605E-1,5.521802314E0,3.368756646E0,6.471704947E0
1.113834542E0,-2.287505315E-1,5.235271790E0,3.232131775E0,6.156872041E0
1.123883542E0,3.323437509E-1,3.985394946E0,2.588914956E0,4.764064010E0
1.133932542E0,2.312948012E-1,1.736521307E0,2.040257848E0,2.689173780E0
1.143981542E0,5.622160707E-1,-5.289373738E-1,1.755545808E0,1.917759823E0
1.154030542E0,9.405268304E-1,-2.229724592E0,1.825417112E0,3.031239038E0
1.164078542E0,7.617433879E-1,-2.741005129E0,1.505867361E0,3.218850511E0
1.174127542E0,-6.287130922E-2,-2.486508576E0,3.986874291E-1,2.519053268E0
1.184176542E0,-7.470850030E-1,-1.995278726E0,-6.647483128E-1,2.231852037E0
1.194225542E0,-1.070633664E0,-1.086594517E0,-1.425986209E0,2.088152474E0
1.204274542E0,-8.017997387E-1,-3.461434722E-2,-2.121789084E0,2.268495072E0
1.214323542E0,-6.545531076E-1,4.311871308E-1,-2.472429942E0,2.593698504E0
1.224372542E0,-5.298068547E-1,5.903307992E-1,-2.718024986E0,2.831403465E0
1.234421542E0,-6.586344641E-1,6.034653997E-1,-3.032581800E0,3.161411428E0
1.244470542E0,-8.192794052E-1,3.638242829E-1,-3.260879610E0,3.381851961E0
1.254519542E0,-5.514181638E-1,6.624252141E-2,-3.296108208E0,3.342570774E0
1.264568542E0,-2.269321936E-1,-2.224848014E-1,-3.022742105E0,3.039402497E0
1.274617542E0,-4.088206539E-1,-6.456846356E-1,-2.629753665E0,2.738548395E0
1.284666542E0,-6.202989489E-1,-1.096663422E0,-2.224271479E0,2.556330389E0
1.294715542E0,-6.246416759E-1,-1.172158577E0,-2.049263145E0,2.442050857E0
1.304764542E0,-2.799351570E-1,-1.031981522E0,-1.903111405E0,2.182929814E0
1.314813542E0,2.711193100E-1,-8.375849909E-1,-1.821800901E0,2.023366704E0
1.324862542E0,7.613709202E-1,-4.228396457E-1,-1.615698536E0,1.835472910E0
1.334911542E0,6.276398358E-1,-1.484198749E-2,-1.436738361E0,1.567918737E0
1.344960542E0,6.427259445E-3,6.786529917E-1,-1.356154082E0,1.516497638E0
1.355009542E0,-2.085149261E-1,1.351059988E0,-1.305585022E0,1.890342248E0
1.365057542E0,-4.962727806E-1,1.283469098E0,-1.310228881E0,1.900073503E0
1.375106542E0,-8.828020942E-1,9.851242751E-1,-1.109987180E0,1.726812356E0
1.385155542E0,-8.761617038E-1,8.326242131E-1,-8.022189841E-1,1.450681809E0
1.395204542E0,-6.002646339E-1,4.367928565E-1,-3.056982815E-1,8.028431164E-1
1.405253542E0,-3.845547089E-1,-7.076592743E-2,-2.108693075E-1,4.442476848E-1
1.415302542E0,-6.173855737E-1,-5.899776274E-1,-5.347500908E-1,1.007569455E0
1.425351542E0,-7.673511600E-1,-9.428576767E-1,-6.570118618E-1,1.381836817E0
1.435400542E0,-4.791196811E-1,-1.109567057E0,-8.453205648E-1,1.474876802E0
1.445449542E0,-3.237898591E-1,-1.739985198E0,-6.284900209E-1,1.878134199E0
1.455498542E0,-2.840305468E-1,-1.957544305E0,-7.595863500E-1,2.118873399E0
1.465547542E0,-1.146524969E-1,-2.040056119E0,-7.774574876E-1,2.186187162E0
1.475596542E0,-2.924891290E-1,-1.895045171E0,-8.525056234E-1,2.098454652E0
1.485645542E0,-4.489878094E-1,-1.786328475E0,-7.015631135E-1,1.970976985E0
1.495694542E0,-5.807662162E-1,-1.345434381E0,3.129276328E-1,1.498468143E0
1.505743542E0,-7.236546251E-1,-7.343038666E-1,3.593809837E-1,1.091802581E0
1.515792542E0,-8.197503984E-2,-7.991184980E-1,-5.411486989E-1,9.685825702E-1
1.525841542E0,1.907879224E-1,-8.167437601E-1,-2.394652618E-1,8.722465320E-1
1.535890542E0,3.714604542E-1,-8.386117619E-1,6.684320587E-1,1.134924655E0
1.545939542E0,4.956626236E-1,-1.097698379E0,1.013128199E0,1.573865279E0
1.555987542E0,5.126558018E-1,-1.419668877E0,8.208536949E-1,1.718160784E0
1.566036542E0,3.677860638E-1,-1.553791725E0,6.370949297E-1,1.719135033E0
1.576085542E0,1.173656049E-1,-1.395620449E0,7.396042214E-1,1.583838857E0
1.586134542E0,-1.092713043E-1,-1.129863328E0,1.387312140E0,1.792530706E0
1.596183542E0,-2.650706577E-1,-9.770866925E-1,1.362745648E0,1.697656196E0
1.606232542E0,-2.871953523E-1,-9.895564646E-1,9.092092896E-1,1.374177827E0
1.616281542E0,-2.350934449E-1,-9.208709764E-1,4.156961755E-1,1.037340635E0
1.626330542E0,-5.633792281E-2,-8.283884901E-1,3.621597268E-2,8.310914804E-1
1.636379542E0,-1.102869072E0,-5.136585993E-1,-3.098421667E-1,1.255455103E0
1.646428542E0,-1.004480021E0,-4.961695772E-1,6.280213666E-1,1.284357893E0
1.656477542E0,-2.620874083E-1,-1.969207746E-1,7.783176130E-1,8.445388729E-1
1.666526542E0,8.458143622E-3,6.527597666E-2,5.180060041E-1,5.221711536E-1
1.676575542E0,3.002618328E-1,3.406810033E-1,1.739827323E-1,4.863031003E-1
1.686624542E0,9.893021107E-2,4.809703249E-1,-1.484023333E-1,5.129745535E-1
1.696673542E0,-7.220426939E-1,5.656239742E-1,-3.648171401E-1,9.871006422E-1
1.706722542E0,-1.714780775E0,5.773903263E-1,-1.715245811E-1,1.817490956E0
1.716771542E0,-2.449226729E0,5.493997049E-1,2.711903354E-1,2.524697170E0
1.726820542E0,-3.011970072E0,5.853507257E-1,9.275356328E-1,3.205451846E0
1.736869542E0,-3.301378888E0,4.954854530E-1,1.450981886E0,3.640049015E0
1.746918542E0,-3.180443850E0,2.714201492E-1,1.295871627E0,3.445021808E0
1.756966542E0,-3.113027208E0,1.131243271E-1,7.797612906E-2,3.116057732E0
1.767015542E0,-2.903830204E0,3.169068092E-1,-1.045553495E0,3.102554091E0
1.777064542E0,-2.258925879E0,9.801085335E-1,-4.736303151E-1,2.507525581E0
1.787113542E0,-1.919392100E0,2.160129862E0,1.098084880E0,3.091280876E0
1.797162542E0,-2.088245654E0,3.242495672E0,1.626684285E0,4.185767535E0
1.807211542E0,-2.229259738E0,3.782103630E0,9.046426141E-1,4.482441869E0
1.817260542E0,-1.738692817E0,3.851660353E0,3.854870474E-1,4.243458548E0
1.827309667E0,-9.976827787E-1,3.995907070E0,9.136730540E-1,4.218701541E0
1.837358667E0,-1.584727004E-2,4.330603448E0,1.656525550E0,4.636642563E0
1.847407667E0,1.144679295E0,4.974818094E0,1.833960478E0,5.424252648E0
1.857456667E0,1.946295139E0,4.237585942E0,1.573778678E0,4.921582947E0
1.867505667E0,1.307697621E0,2.299726288E0,5.147280550E-1,2.695136182E0
1.877554667E0,2.034913493E0,2.134538353E0,6.242743246E-1,3.014439473E0
1.887603667E0,3.439518188E0,2.228234721E0,1.814175109E0,4.481801721E0
1.897652667E0,2.290704473E0,2.067957863E0,1.566784092E0,3.461009838E0
1.907701667E0,1.018456766E0,1.533593103E0,-9.726039246E-2,1.843535076E0
1.917750667E0,3.611699393E-1,1.590229819E0,-1.167729896E0,2.005708781E0
1.927799667E0,-3.655183674E-1,1.758699211E0,-9.878484929E-1,2.049992985E0
1.937847667E0,-9.779722533E-1,2.192083141E0,-3.030848685E-1,2.419404609E0
1.947896667E0,-1.123138737E0,2.080380272E0,-1.734471273E-1,2.370549853E0
1.957945667E0,-1.499180193E0,1.726523738E0,-2.072855490E-1,2.295951386E0
1.967994667E0,-1.193143211E0,1.069889022E0,-4.042709354E-1,1.652781967E0
1.978043667E0,-4.454503901E-1,-2.668727696E-2,-4.824224809E-1,6.571679472E-1
1.988092667E0,4.970104069E-2,-7.372917938E-1,-5.523662898E-1,9.225930310E-1
1.998141667E0,4.298798396E-1,-1.523405499E0,-7.346333572E-1,1.745063656E0
2.008190667E0,7.907363681E-1,-1.984880038E0,-1.271884010E0,2.486503912E0
2.018239667E0,1.028060233E0,-2.017441428E0,-1.703576925E0,2.833575850E0
2.028288667E0,1.212569708E0,-1.913513017E0,-1.762181813E0,2.870042178E0
2.038337667E0,1.177628940E0,-2.025148643E0,-2.017693150E0,3.091783077E0
2.048386667E0,5.173574017E-1,-2.259259463E0,-1.807198357E0,2.939026693E0
2.058435667E0,6.076558068E-2,-2.697248075E0,-1.527083398E0,3.100132794E0
2.068484667E0,1.398466873E-1,-2.573642614E0,-1.351404681E0,2.910238480E0
2.078533667E0,-7.794163048E-2,-2.114430363E0,-1.151497441E0,2.408907847E0
2.088582667E0,-2.176257652E-1,-1.988347437E0,-7.218457890E-1,2.126487208E0
2.098631667E0,2.025082277E-1,-1.752786507E0,-7.000157940E-1,1.898233978E0
2.108680667E0,5.381360672E-1,-1.592993798E0,-8.167174476E-1,1.869290522E0
2.118729667E0,8.136422507E-1,-1.778759254E0,-7.853015274E-1,2.107770549E0
2.128777667E0,9.737727830E-1,-2.049839095E0,-6.890920258E-1,2.371691711E0
2.138826667E0,1.058138165E0,-2.302769179E0,-6.528711560E-1,2.616991214E0
2.148875667E0,1.176939992E0,-2.522178930E0,-6.687764597E-1,2.862487773E0
2.158924667E0,1.282574328E0,-2.750634908E0,-6.396462160E-1,3.101634502E0
2.168973667E0,1.372749211E0,-2.861966479E0,-4.586099875E-1,3.207119524E0
2.179022667E0,1.505788277E0,-2.892925147E0,-2.196284366E-1,3.268738425E0
2.189071667E0,1.565072466E0,-2.919137630E0,-1.400870079E-1,3.315183358E0
2.199120667E0,1.171377536E0,-2.872632385E0,-2.187396598E-1,3.109982185E0
2.209169667E0,4.518877360E-1,-2.988818314E0,-7.738263667E-2,3.023776697E0
2.219218667E0,2.751533040E-1,-2.740635585E0,2.428287265E-1,2.765096479E0
2.229267667E0,5.601349005E-1,-2.277326190E0,5.870168898E-1,2.417551346E0
2.239316667E0,3.694887730E-1,-1.856818414E0,1.026116765E0,2.153418722E0
2.249365667E0,2.247529364E-1,-1.612199562E0,1.453949641E0,2.182583531E0
2.259414667E0,1.405422136E-1,-1.327300411E0,1.770199223E0,2.216998824E0
2.269463667E0,1.534651449E-1,-9.702577293E-1,2.034478168E0,2.259215135E0
2.279512667E0,4.464273868E-1,-6.243265110E-1,2.391627561E0,2.511764996E0
2.289561667E0,6.897651865E-1,-5.274305463E-2,2.723916349E0,2.810387538E0
2.299609667E0,7.724801183E-1,5.726587594E-1,2.845778462E0,3.003850636E0
2.309658667E0,5.542617378E-1,1.165315581E0,2.751432761E0,3.039004560E0
2.319707667E0,1.843006559E-1,2.050686942E0,2.978899682E0,3.621205184E0
2.329756667E0,-1.923944449E-1,3.265518499E0,3.351893861E0,4.683569061E0
2.339805667E0,-5.040044808E-1,4.346464021E0,3.407077836E0,5.545624345E0
2.349854667E0,-9.671385321E-1,5.444752384E0,3.771851414E0,6.693844079E0
2.359903667E0,-1.193225949E0,4.055132348E0,3.828856504E0,5.703334871E0
2.369952667E0,-3.548648867E-1,1.070895912E0,3.300004792E0,3.487517566E0
2.380001667E0,-3.277082245E-1,-5.956324697E-2,3.126304773E0,3.143997772E0
2.390050667E0,-2.396422863E-1,-8.392391682E-1,2.810216281E0,2.942629157E0
2.400099667E0,-3.290881674E-1,-1.427215878E0,2.687673259E0,3.060854739E0
2.410148667E0,1.218559742E-1,-4.209814006E-1,3.034390928E0,3.065877121E0
2.420197667E0,3.130035004E-1,2.255105601E0,2.897816635E0,3.685215559E0
2.430246667E0,2.117580843E-1,4.567005208E0,2.067541833E0,5.017679472E0
2.440295667E0,9.705224620E-1,5.994096540E0,1.942177237E0,6.375198789E0
2.450344667E0,2.342912946E0,7.040915957E0,2.065798486E0,7.702678883E0
2.460393667E0,2.848574308E0,4.249755167E0,1.040265273E0,5.220818557E0
2.470442667E0,2.741481092E0,-4.878969365E-1,-5.700181568E-1,2.842302359E0
2.480490667E0,3.060986404E0,-1.804345500E0,-1.180585000E0,3.744206377E0
2.490539667E0,2.854447544E0,-1.897918493E0,-1.737841609E0,3.843183426E0
2.500588667E0,3.352016068E0,-1.268616586E0,-2.598464921E0,4.426897300E0
2.510637667E0,2.700330435E0,-1.466580504E0,-4.354483477E0,5.329556190E0
2.520686667E0,2.307866636E0,-1.703625457E0,-5.063995149E0,5.820020187E0
2.530735667E0,1.809101480E0,-1.562930338E0,-4.852532349E0,5.409498092E0
2.540784667E0,7.065942040E-1,-1.569961030E0,-4.609814135E0,4.920816941E0
2.550833667E0,4.068580359E-2,-1.093835708E0,-4.579129702E0,4.708137712E0
2.560882667E0,-3.298985915E-1,-1.484882873E-1,-3.896384536E0,3.913143788E0
2.570931667E0,-4.381786466E-1,3.151982528E-1,-3.107481709E0,3.154012212E0
2.580980667E0,-1.920292863E-1,3.216576719E-1,-2.927495640E0,2.951367416E0
2.591029667E0,4.269407366E-1,-3.526140010E-1,-2.934777762E0,2.986559147E0
2.601078667E0,6.554546021E-1,-1.157679702E0,-2.313625705E0,2.668839997E0
2.611127667E0,7.048707372E-1,-1.643249447E0,-1.274892402E0,2.196010505E0
2.621176667E0,4.252289642E-1,-1.391494653E0,-8.209213033E-1,1.670625281E0
2.631225667E0,-2.119814479E-1,-9.141876090E-1,-7.659437352E-1,1.211340136E0
2.641274667E0,-7.890649416E-1,-5.253764194E-1,-9.096118703E-1,1.313787509E0
2.651322667E0,-1.198509201E0,-3.394168353E-1,-1.176985746E0,1.713745471E0
2.661371667E0,-1.328561802E0,-2.170965922E-1,-1.549115999E0,2.052307913E0
2.671420667E0,-1.191202374E0,-2.464244717E-1,-1.848657455E0,2.212966900E0
2.681469667E0,-9.146099241E-1,-4.518997228E-1,-1.927908862E0,2.181182535E0
2.691518667E0,-6.941606846E-1,-5.607234228E-1,-1.624212959E0,1.853196576E0
2.701567667E0,-3.107559769E-1,-9.240676492E-1,-1.058991566E0,1.439421215E0
2.711616667E0,-9.346671894E-2,-1.147545893E0,-5.329690289E-1,1.268721242E0
2.721665667E0,-7.093973592E-2,-1.595939040E0,-1.060642235E0,1.917554645E0
2.731714667E0,1.302280176E-1,-1.970181892E0,-8.823261309E-1,2.162654717E0
2.741763667E0,3.482249348E-1,-2.085106577E0,-9.084799956E-1,2.300927192E0
2.751812667E0,5.366608147E-1,-2.281331533E0,-5.939525646E-1,2.417696846E0
2.761861667E0,8.838333969E-1,-2.719249393E0,-3.425162981E-1,2.879721541E0
2.771910667E0,8.516994385E-1,-3.225024192E0,-7.694070411E-1,3.423179833E0
2.781959667E0,7.597597200E-1,-3.694112974E0,-1.102487322E0,3.929272680E0
2.792008667E0,1.014464434E0,-3.965493363E0,-1.180469883E0,4.260021695E0
2.802057667E0,8.291419038E-1,-3.388114146E0,-1.395126359E0,3.756750101E0
2.812106667E0,-1.333603271E0,5.759307443E0,-2.837237434E0,6.557288782E0
2.822154667E0,-1.950701601E0,2.048188426E1,-1.937167928E0,2.066556168E1
2.832203292E0,9.428070983E-1,9.007141038E0,2.479352753E0,9.389604091E0
2.842252292E0,-2.681901473E-1,3.888322395E-1,-3.124763739E-1,5.663549680E-1
2.852301292E0,-1.173142956E-1,6.018305182E-2,-9.236729622E-2,1.609855928E-1
2.862350292E0,8.284880389E-1,-8.138271689E-1,1.655418087E0,2.022156308E0
2.872399292E0,5.925210200E-1,-1.463499021E0,1.743708705E0,2.352324508E0
2.882448292E0,1.204260376E0,-2.151850204E0,1.354572995E0,2.813462343E0
2.892497292E0,1.430549815E0,-2.374499897E0,8.047476125E-1,2.886579508E0
2.902546292E0,1.008490041E0,-1.532395009E0,4.225256503E-1,1.882502205E0
2.912595292E0,4.671255800E-1,-1.018441125E0,6.288453855E-2,1.122222392E0
2.922644292E0,7.070014626E-2,-7.740684414E-1,3.043942793E-1,8.347672370E-1
2.932693292E0,-2.232347068E-1,-7.589013487E-1,6.133366692E-1,1.000972957E0
2.942742292E0,-2.867550570E-1,-8.917699689E-1,7.595195456E-1,1.205965207E0
2.952791292E0,-2.918359950E-2,-6.807807934E-1,1.316147286E0,1.482078895E0
2.962840292E0,4.415656462E-2,-2.133502811E-1,1.647925465E0,1.662265467E0
2.972889292E0,-1.392243974E-1,2.403609091E-1,1.413429021E0,1.440464646E0
2.982938292E0,-6.606717803E-1,6.447385561E-1,9.288407314E-1,1.309549583E0
2.992986292E0,-1.479320125E0,9.597906286E-1,6.309870744E-1,1.872893689E0
3.003035292E0,-2.288000574E0,1.152148821E0,7.304751098E-1,2.663829465E0
3.013084292E0,-2.835460758E0,1.380205434E0,1.141692245E0,3.353843457E0
3.023133292E0,-3.280401417E0,1.487390744E0,1.525510497E0,3.911591359E0
3.033182292E0,-3.630842008E0,1.589328178E0,1.644417136E0,4.291047129E0
3.043231292E0,-3.812826947E0,1.737090241E0,1.911723769E0,4.605411991E0
3.053280292E0,-3.796683954E0,1.737707707E0,2.602387526E0,4.920046540E0
3.063329292E0,-3.583032249E0,1.607296087E0,3.047516173E0,4.970802313E0
3.073378292E0,-3.317334185E0,1.505558628E0,2.550513660E0,4.447081381E0
3.083427292E0,-3.388421710E0,1.770150983E0,1.775918677E0,4.215296352E0
3.093476292E0,-3.780195683E0,2.971615806E0,1.502674781E0,5.037699018E0
3.103525292E0,-3.750480133E0,4.085449576E0,2.097835088E0,5.929410724E0
3.113574292E0,-3.684451328E0,4.191599345E0,2.314112778E0,6.041506815E0
3.123623292E0,-3.373732334E0,3.052667570E0,1.853684306E0,4.912941549E0
3.133672292E0,-3.163608547E0,1.900151544E0,1.038479606E0,3.833723363E0
3.143721292E0,-2.179131997E0,1.197969941E0,1.142494483E0,2.736611387E0
3.153770292E0,-8.619683187E-1,2.167171079E-1,1.973741677E0,2.164627426E0
3.163818292E0,1.190899488E0,-4.542473799E-1,2.063276582E0,2.425220099E0
3.173867292E0,1.925730043E0,5.120699108E-1,1.168622181E0,2.310049695E0
3.183916292E0,2.247435954E0,1.125217130E0,7.608802658E-2,2.514532033E0
3.193965292E0,3.688057598E0,1.194959795E0,-8.139834358E-1,3.961346588E0
3.204014292E0,5.137383553E0,1.702599855E0,-1.744677004E0,5.686427163E0
3.214063292E0,5.157838867E0,2.641296653E0,-1.060096543E0,5.890972286E0
3.224112292E0,3.429794853E0,3.794220815E0,1.478684825E-1,5.116783112E0
3.234161292E0,2.258347443E0,4.465880536E0,-5.827795587E-1,5.038239192E0
3.244210292E0,1.119481012E0,4.107122281E0,-1.230077734E0,4.431115254E0
3.254259292E0,-5.777633786E-3,3.486500566E0,-1.341274672E0,3.735604011E0
3.264308292E0,-1.303897223E0,3.242306222E0,-1.359828472E0,3.749910810E0
3.274357292E0,-2.085484599E0,2.548784931E0,-1.006938483E0,3.443758956E0
3.284406292E0,-1.418222715E0,1.961594671E0,-7.603268999E-1,2.537184722E0
3.294455292E0,-3.670754810E-1,1.779087868E0,-4.636573040E-1,1.874800295E0
3.304504292E0,-2.228843124E-1,1.291255251E0,1.402308494E-2,1.310425193E0
3.314553292E0,-1.341061834E-1,7.138696021E-1,3.688148814E-1,8.146279482E-1
3.324601292E0,4.637572914E-1,-2.031907439E-2,3.758075666E-1,5.972562409E-1
3.334650292E0,6.898125489E-1,-5.204939944E-1,-3.017777234E-1,9.153278894E-1
3.344699292E0,1.070802064E-1,-1.024153855E0,-1.582606219E0,1.888120688E0
3.354748292E0,5.725254428E-1,-1.584248117E0,-2.410008869E0,2.940369063E0
3.364797292E0,1.019630449E0,-2.240809743E0,-2.944294690E0,3.837935094E0
3.374846292E0,1.352267291E0,-2.659447580E0,-2.985620764E0,4.220807933E0
3.384895292E0,1.877971740E0,-2.832142171E0,-2.639221476E0,4.302708116E0
3.394944292E0,2.126206217E0,-3.252581534E0,-2.906687738E0,4.852718117E0
3.404993292E0,2.224845091E0,-3.299506609E0,-3.323569656E0,5.184862081E0
3.415042292E0,2.132973931E0,-2.955395045E0,-2.935017498E0,4.679558245E0
3.425091292E0,1.714374832E0,-3.084010985E0,-2.618494266E0,4.393940946E0
3.435140292E0,1.537660426E0,-2.842667744E0,-1.918518233E0,3.758440062E0
3.445189292E0,1.224126145E0,-2.979889031E0,-2.028260531E0,3.806844394E0
3.455238292E0,1.190398674E0,-3.077068001E0,-2.115332004E0,3.919186902E0
3.465287292E0,1.419699867E0,-2.973565267E0,-1.799733801E0,3.754554550E0
3.475336292E0,1.821324499E0,-2.972071888E0,-1.814178178E0,3.929589890E0
3.485384292E0,2.071164329E0,-3.038475208E0,-1.946460615E0,4.160620410E0
3.495433292E0,2.238531522E0,-3.221585444E0,-1.919163181E0,4.367244379E0
3.505482292E0,2.301133567E0,-3.412408742E0,-1.697117506E0,4.451961022E0
3.515531292E0,2.223082740E0,-3.482578254E0,-1.355524337E0,4.348320870E0
3.525580292E0,2.000628344E0,-3.508321205E0,-9.758880132E-1,4.154899381E0
3.535629292E0,1.567328760E0,-3.557676383E0,-6.574445558E-1,3.942818032E0
3.545678292E0,1.043386078E0,-3.128204241E0,-3.994186234E-1,3.321724178E0
3.555727292E0,8.828235827E-1,-2.495757701E0,5.241677999E-2,2.647816365E0
3.565776292E0,6.899743706E-1,-1.782260567E0,5.060554647E-1,1.977020358E0
3.575825292E0,2.461120842E-1,-8.237779605E-1,9.958328658E-1,1.315623192E0
3.585874292E0,-4.586531107E-1,4.051547420E-1,1.718688177E0,1.824390882E0
3.595923292E0,-9.308488845E-1,1.788584331E0,2.406913937E0,3.139864369E0
3.605972292E0,-1.464862299E0,3.456198540E0,3.138897629E0,4.893241076E0
3.616021292E0,-1.623169231E0,4.768958096E0,4.189187953E0,6.551865031E0
3.626070292E0,-1.574706046E0,5.241388562E0,5.060994358E0,7.454228135E0
3.636119292E0,-2.494232455E0,5.573841949E0,5.685809112E0,8.343700310E0
3.646167292E0,-2.985122874E0,5.364285341E0,5.788145911E0,8.437366228E0
3.656216292E0,-2.894444253E0,4.530616815E0,5.022033775E0,7.356977607E0
3.666265292E0,-2.183897332E0,3.094176369E0,3.551822151E0,5.192184083E0
3.676314292E0,-8.135529345E-1,9.920976645E-1,2.228132980E0,2.571128688E0
3.686363292E0,1.174870078E-1,-1.173691133E0,1.988243941E0,2.311810555E0
3.696412292E0,4.125172636E-1,-2.752817089E0,2.148233117E0,3.516116884E0
3.706461292E0,4.405132936E-1,-3.815975965E0,2.163731162E0,4.408793154E0
3.716510292E0,8.943541458E-1,-4.245386127E0,2.111885070E0,4.825270071E0
3.726559292E0,1.970713111E0,-2.955063508E0,2.720994787E0,4.474362875E0
3.736608292E0,2.758668398E0,9.250295162E-1,3.274390479E0,4.380361166E0
3.746657292E0,2.759887542E0,4.377157810E0,2.528153615E0,5.759170985E0
3.756706292E0,3.579680040E0,6.173564546E0,1.248636357E0,7.244729197E0
3.766755292E0,5.290156680E0,8.443572360E0,7.252076456E-1,9.990275173E0
3.776804292E0,5.393429033E0,6.497082801E0,4.917408961E-1,8.458307796E0
3.786853292E0,3.169846357E0,2.330951005E0,6.366284680E-1,3.985794063E0
3.796902292E0,1.732383379E0,1.385416473E0,4.725865871E-2,2.218730347E0
3.806950292E0,7.756847580E-1,6.321834147E-1,-1.264559788E0,1.612592376E0
3.816999292E0,-1.594418764E-2,-4.749459386E-1,-2.705341499E0,2.746761818E0
3.827048292E0,7.376774177E-2,-1.630387911E0,-4.067452139E0,4.382667375E0
3.837097417E0,4.565554221E-1,-2.600854971E0,-4.620558979E0,5.321884507E0
3.847146417E0,4.470722616E-1,-3.397918757E0,-4.816695934E0,5.911538311E0
3.857195417E0,1.357657693E-1,-3.477180689E0,-4.170725954E0,5.431774376E0
3.867244417E0,-2.145998311E-1,-2.530926365E0,-3.576976288E0,4.387071998E0
3.877293417E0,-4.508704667E-1,-1.868987054E0,-3.913793744E0,4.360524997E0
3.887342417E0,-1.050099851E0,-9.999738640E-1,-4.547764944E0,4.773345097E0
3.897391417E0,-1.215836401E0,-2.027095181E-1,-5.015505944E0,5.164750640E0
3.907440417E0,-7.947314782E-1,5.188485879E-1,-5.497888956E0,5.579210065E0
3.917489417E0,-8.101276356E-1,8.862548751E-1,-4.955750324E0,5.099138727E0
3.927538417E0,-9.164587406E-1,1.565178008E0,-3.173783579E0,3.655486428E0
3.937587417E0,-1.122932404E0,2.361035514E0,-2.225847011E0,3.433636672E0
3.947636417E0,-1.855727616E0,1.900338070E0,-1.595410598E0,3.098442309E0
3.957684417E0,-2.078962615E0,5.021717441E-1,-7.591159415E-1,2.269475496E0
3.967733417E0,-1.507052445E0,-1.933709300E-1,-3.295993602E-1,1.554746001E0
3.977782417E0,-5.138902952E-1,-3.857782388E-1,-3.416911098E-1,7.277780565E-1
3.987831417E0,1.589131419E-1,-4.925700313E-1,-5.230305165E-1,7.358257563E-1
3.997880417E0,7.394447386E-1,-5.449417877E-1,-6.792939927E-1,1.142444923E0
4.007929417E0,1.292568828E0,-4.690542841E-1,-7.775235611E-1,1.579648373E0
4.017978417E0,1.185265696E0,-2.827263254E-1,-6.694868964E-1,1.390324297E0
4.028027417E0,8.107948029E-1,-4.242973566E-2,-6.755269240E-1,1.056184226E0
4.038076417E0,5.965649544E-1,-7.525951266E-2,-7.849078636E-1,9.887538083E-1
4.048125417E0,9.601961330E-2,-2.980799443E-1,-7.876076692E-1,8.475831876E-1
4.058174417E0,-4.311843534E-1,-4.127689862E-1,-7.086966435E-1,9.265792546E-1
4.068223417E0,-7.781544757E-1,-4.432850200E-1,-7.427302891E-1,1.163475088E0
4.078272417E0,-1.039931251E0,-7.970836669E-1,-8.012587251E-1,1.535843391E0
4.088321417E0,-7.710944744E-1,-1.054872787E0,-6.212877861E-1,1.446838553E0
4.098370417E0,-6.090899096E-1,-1.242480701E0,-6.852995217E-1,1.544145150E0
4.108418417E0,-5.645829505E-1,-1.594337488E0,-4.794547997E-1,1.757993981E0
4.118467417E0,-2.987028189E-1,-1.355391020E0,-4.838413808E-1,1.469833553E0
4.128516417E0,-1.116296326E-1,-1.345094073E0,-3.533770992E-1,1.395211316E0
4.138565417E0,3.048382292E-1,-1.280134431E0,-5.172417365E-1,1.413934058E0
4.148614417E0,7.640365197E-1,-8.850702292E-1,-4.776859438E-1,1.263045912E0
4.158663417E0,9.499861635E-1,-6.597729170E-1,-3.448722875E-1,1.206942794E0
4.168712417E0,7.185302715E-1,-6.294849247E-1,-2.715236449E-1,9.931073010E-1
4.178761417E0,4.891187122E-1,-6.799592596E-1,-1.612720732E-1,8.529890920E-1
4.188810417E0,3.842931922E-1,-7.995090920E-1,-9.666032195E-2,8.923223989E-1
4.198859417E0,3.960626871E-1,-1.178819726E0,1.841662431E-1,1.257139134E0
4.208908417E0,2.163501220E-1,-1.136024539E0,5.653427597E-1,1.287234075E0
4.218957417E0,-2.687240712E-1,-7.313650560E-1,1.050089765E0,1.307591674E0
4.229006417E0,-1.194722544E0,-4.734636694E-1,1.589562067E0,2.044073719E0
4.239055417E0,-1.898504968E0,-5.383174771E-1,1.898985171E0,2.738658705E0
4.249104417E0,-2.145640461E0,-5.666735494E-1,1.955426882E0,2.957800905E0
4.259153417E0,-2.064504643E0,-4.443000966E-1,1.932581810E0,2.862595754E0
4.269201417E0,-1.772443092E0,-3.865272671E-1,1.666561565E0,2.463409282E0
4.279250417E0,-1.585531727E0,-1.788441074E-1,1.204935730E0,1.999441468E0
4.289299417E0,-1.664121083E0,1.444730043E-2,7.980513811E-1,1.845641815E0
4.299348417E0,-2.116355559E0,3.031810552E-1,5.596089435E-1,2.209986827E0
4.309397417E0,-2.525035880E0,7.080697489E-1,7.417659371E-1,2.725323039E0
4.319446417E0,-2.970107809E0,1.202954693E0,1.155470624E0,3.406428151E0
4.329495417E0,-3.359713050E0,1.625379771E0,1.313274111E0,3.956541428E0
4.339544417E0,-3.702058463E0,1.830463259E0,1.290190619E0,4.326710580E0
4.349593417E0,-3.904719742E0,1.900885954E0,1.418090421E0,4.568499110E0
4.359642417E0,-3.650480174E0,1.851110362E0,1.660019992E0,4.416818023E0
4.369691417E0,-3.549527119E0,1.910160223E0,1.949454828E0,4.477524871E0
4.379740417E0,-3.895043477E0,1.950397838E0,2.269544277E0,4.911847579E0
4.389789417E0,-3.521907796E0,2.229654425E0,2.625278206E0,4.926183009E0
4.399838417E0,-3.014244639E0,2.444757702E0,2.821276875E0,4.798136531E0
4.409887417E0,-2.917244301E0,2.386854479E0,3.094735948E0,4.876964138E0
4.419935417E0,-3.252749934E0,2.054722690E0,3.358214993E0,5.106845936E0
4.429984417E0,-3.750111466E0,1.591745417E0,2.976895841E0,5.045681157E0
4.440033417E0,-4.066090615E0,1.837947110E0,1.972220377E0,4.878605916E0
4.450082417E0,-3.933468162E0,2.729061021E0,1.741158149E0,5.094269088E0
4.460131417E0,-4.595153411E0,3.290507745E0,2.539413306E0,6.196087155E0
4.470180417E0,-4.337752254E0,3.136663992E0,3.345520688E0,6.312468954E0
4.480229417E0,-3.530874209E0,2.105161357E0,2.307930078E0,4.714373581E0
4.490278417E0,-2.716559089E0,1.680879203E0,6.751755063E-1,3.265104921E0
4.500327417E0,-1.430872435E0,1.375637589E0,4.079127274E-2,1.985305676E0
4.510376417E0,-2.371456714E-1,8.822261435E-1,-6.123672739E-1,1.099797580E0
4.520425417E0,1.142514437E0,9.059979987E-1,-1.530445547E0,2.113867353E0
4.530474417E0,2.389732333E0,9.668429554E-1,-2.184412179E0,3.378943990E0
4.540523417E0,2.568825970E0,5.394290328E-1,-2.672929505E0,3.746251818E0
4.550572417E0,3.162321867E0,-5.711443305E-2,-2.649860485E0,4.126172832E0
4.560621417E0,4.412341676E0,2.016077857E0,-1.892453685E0,5.207178693E0
4.570669417E0,4.206585174E0,3.897083863E0,-7.732838181E-1,5.786241381E0
4.580718417E0,2.652677966E0,4.802731029E0,-1.678467373E-1,5.489180108E0
4.590767417E0,2.709943257E0,4.535898605E0,-1.402610795E0,5.466761898E0
4.600816417E0,2.149901181E0,3.685819868E0,-1.766728608E0,4.618297648E0
4.610865417E0,1.787490317E0,2.982127930E0,-1.613155582E0,3.832816139E0
4.620914417E0,2.004264143E0,2.728507875E0,-1.036623627E0,3.540680516E0
4.630963417E0,1.645287201E0,2.870001723E0,-2.345053612E-1,3.316454828E0
4.641012417E0,1.123586634E0,2.457415169E0,9.789233029E-2,2.703871141E0
4.651061417E0,1.002287315E0,1.468060434E0,-5.166805865E-1,1.851145626E0
4.661110417E0,7.070909250E-1,4.799733746E-1,-8.279138424E-1,1.189871147E0
4.671159417E0,1.985707127E-1,6.189242685E-1,-2.007392988E-1,6.802895296E-1
4.681208417E0,-2.014368716E-1,1.864753085E-1,-3.862138563E-1,4.738259140E-1
4.691257417E0,3.020379245E-1,-2.806488097E-2,-1.676865967E0,1.704081575E0
4.701306417E0,6.622647080E-1,-3.935211217E-1,-2.195954290E0,2.327158925E0
4.711355417E0,4.136025068E-1,-3.367043120E-1,-2.431193623E0,2.489003668E0
4.721403417E0,-3.837624112E-1,-8.841586483E-1,-3.767640542E0,3.888974846E0
4.731452417E0,-2.219611832E-1,-1.961608704E0,-5.751241794E0,6.080621485E0
4.741501417E0,8.376414165E-1,-2.256277383E0,-4.739880477E0,5.315909867E0
4.751550417E0,1.071846669E0,-2.769517322E0,-3.759101853E0,4.790608335E0
4.761599417E0,1.564320952E0,-2.673886110E0,-2.704664683E0,4.112417539E0
4.771648417E0,1.872622268E0,-2.281703416E0,-2.042671579E0,3.589622795E0
4.781697417E0,1.503686788E0,-2.151401723E0,-2.078674055E0,3.348206857E0
4.791746417E0,1.211516040E0,-2.427521864E0,-2.614385428E0,3.767710801E0
4.801795417E0,1.229170392E0,-2.948759624E0,-2.970766790E0,4.362510572E0
4.811844417E0,1.359118328E0,-3.489125966E0,-2.826608073E0,4.691579247E0
4.821893417E0,1.850110780E0,-3.688724765E0,-2.448077166E0,4.798195713E0
4.831942833E0,2.224377021E0,-4.013049352E0,-2.140912988E0,5.063193326E0
4.841991833E0,2.417530142E0,-4.266093457E0,-2.037519012E0,5.309942476E0
4.852040833E0,2.549958467E0,-4.197093973E0,-1.839897449E0,5.244340628E0
4.862089833E0,2.456089606E0,-4.053548922E0,-1.795420018E0,5.068250986E0
4.872137833E0,2.067844134E0,-3.951689256E0,-2.036287296E0,4.902886220E0
4.882186833E0,1.640399660E0,-3.943376269E0,-2.151429790E0,4.782235626E0
4.892235833E0,1.172705584E0,-4.010400563E0,-1.949222547E0,4.610641995E0
4.902284833E0,8.585579301E-1,-4.112582996E0,-1.575861456E0,4.487070308E0
4.912333833E0,4.269455606E-1,-4.002396895E0,-1.129081555E0,4.180465114E0
4.922382833E0,-7.107129827E-2,-3.393947328E0,-6.458755472E-1,3.455587478E0
4.932431833E0,-2.640168433E-1,-2.795032817E0,-2.143448925E-1,2.815645054E0
4.942480833E0,-1.209088714E-1,-1.754881564E0,3.040674931E-1,1.785128931E0
4.952529833E0,-1.676753408E-1,-5.033189678E-1,8.091540742E-1,9.675615324E-1
4.962578833E0,-5.142651017E-1,8.604633915E-1,1.074593107E0,1.469563264E0
4.972627833E0,-8.401601046E-1,2.804950279E0,1.428561615E0,3.257975346E0
4.982676833E0,-9.686058178E-1,5.047279129E0,2.078784275E0,5.543876613E0
4.992725833E0,-5.648617896E-1,6.821571695E0,2.844362851E0,7.412375413E0
5.002774833E0,-3.168511145E-2,7.732594206E0,3.670671487E0,8.559663911E0
5.012822833E0,-3.817093076E-1,8.032894923E0,4.139175548E0,9.044660141E0
5.022871833E0,-1.002613516E0,7.975762364E0,4.630423816E0,9.276790601E0
5.032920833E0,-6.379698924E-1,7.008797786E0,4.813321506E0,8.526330741E0
5.042969833E0,1.312677987E-1,4.239272279E0,4.176339866E0,5.952350407E0
5.053018833E0,1.597988489E-1,1.008531264E0,2.308648555E0,2.524386882E0
5.063067833E0,1.307856958E-1,-1.459084373E0,2.640503186E0,3.019650506E0
5.073116833E0,1.150119691E0,-3.123970857E0,3.394786404E0,4.754633944E0
5.083165833E0,2.347416618E0,-4.087109016E0,3.047496877E0,5.612669784E0
5.093214833E0,2.666911258E0,-4.050282667E0,2.796087654E0,5.597795237E0
5.103263833E0,3.081145849E0,-2.954631398E0,2.777527715E0,5.092933011E0
5.113312833E0,3.704148843E0,2.232882088E-1,2.844885592E0,4.675890323E0
5.123361833E0,3.470427447E0,4.970437360E0,2.599071862E0,6.595778101E0
5.133410833E0,3.558656961E0,7.966989201E0,2.202859560E0,8.999419234E0
5.143459833E0,3.468061956E0,8.139829972E0,2.228223027E0,9.124103439E0
5.153507833E0,2.713883988E0,5.506329997E0,1.561394275E0,6.334255159E0
5.163556833E0,2.157807640E0,1.434410877E0,-6.264797482E-1,2.665735405E0
5.173605833E0,2.903953580E0,-1.848986653E0,-1.734149677E0,3.854733861E0
5.183654833E0,2.908552708E0,-3.209833125E0,-1.533215958E0,4.594938380E0
5.193703833E0,2.683453324E0,-3.194940852E0,-1.374957850E0,4.393071577E0
5.203752833E0,1.958550611E0,-3.091334038E0,-3.063422939E0,4.772507384E0
5.213801833E0,8.928913186E-1,-2.779085121E0,-4.856751115E0,5.666445130E0
5.223850833E0,5.008103661E-1,-2.025952050E0,-4.944049460E0,5.366462317E0
5.233899833E0,-1.830865547E-2,-1.049592751E0,-4.571479205E0,4.690458642E0
5.243948833E0,1.452926378E-1,3.433765697E-1,-4.342570360E0,4.358547321E0
5.253997833E0,1.379103819E-1,1.314362277E0,-4.016253626E0,4.228103672E0
5.264046833E0,1.277952835E-1,1.776567133E0,-3.859561695E0,4.250733924E0
5.274095833E0,2.899170850E-1,1.886795919E0,-4.001706339E0,4.433700980E0
5.284144833E0,9.538627213E-1,1.523461048E0,-4.049515805E0,4.430504024E0
5.294193833E0,1.562244168E0,1.181245735E0,-3.102491987E0,3.668978721E0
5.304241833E0,1.718431922E0,8.441385502E-1,-2.401096835E0,3.070967954E0
5.314290833E0,1.871642860E0,8.848866266E-1,-2.174433321E0,3.002370997E0
5.324339833E0,2.194650654E0,1.018943401E0,-1.441582780E0,2.816540086E0
5.334388833E0,2.047294241E0,3.875207090E-1,-9.877468975E-1,2.305911955E0
5.344437833E0,1.710837266E0,-4.821999943E-1,-1.490860482E0,2.319945250E0
5.354486833E0,1.512305145E0,-4.577352440E-1,-1.932881919E0,2.496521764E0
5.364535833E0,9.198504911E-1,-5.823844332E-1,-2.376841853E0,2.614320897E0
5.374584833E0,6.975378902E-1,-8.565568668E-1,-2.655405985E0,2.876009339E0
5.384633833E0,7.505399765E-1,-6.406548607E-1,-3.066553538E0,3.221412657E0
5.394682833E0,4.236132324E-1,-1.977779764E-1,-2.945240770E0,2.982114601E0
5.404731833E0,-5.895469800E-2,4.473511738E-1,-2.116894380E0,2.164449247E0
5.414780833E0,-3.582545176E-1,1.163180178E0,-1.063799585E0,1.616478884E0
5.424829833E0,-9.714406210E-1,1.212821869E0,-3.600563371E-1,1.595078159E0
5.434878833E0,-1.378316783E0,6.291153806E-1,-5.180311471E-1,1.601218157E0
5.444926833E0,-1.508809972E0,-3.470357573E-1,-8.376406125E-1,1.760279280E0
5.454975833E0,-1.883625705E0,-1.169677019E0,-9.924888432E-1,2.429243551E0
5.465024833E0,-1.855785649E0,-1.151464112E0,-7.384301736E-1,2.305447700E0
5.475073833E0,-9.192935438E-1,-5.995892805E-1,1.761946974E-1,1.111599072E0
5.485122833E0,-2.593012100E-1,-3.762513703E-1,7.439997196E-3,4.570093705E-1
5.495171833E0,4.100390674E-1,-6.314408183E-3,3.249379965E-1,5.232175552E-1
5.505220833E0,6.829088876E-1,6.926962495E-2,5.581629270E-1,8.847082473E-1
5.515269833E0,7.240650997E-1,2.091268373E-1,5.142129153E-1,9.123701140E-1
5.525318833E0,6.362554157E-1,4.685134166E-1,5.602685094E-1,9.686209672E-1
5.535367833E0,1.104589469E0,9.669423580E-2,4.781256545E-1,1.207506444E0
5.545416833E0,1.899707887E0,-1.033685401E0,3.132668809E-1,2.185298996E0
5.555465833E0,1.085344236E0,-1.837776956E0,9.575170118E-2,2.136484177E0
5.565514833E0,-5.963909997E-1,-1.883386407E0,1.946187258E-1,1.985120408E0
5.575563833E0,-1.417435679E0,-1.319274523E0,1.268991977E0,2.315156541E0
5.585611833E0,-1.623783920E0,-1.343203669E0,1.442071899E0,2.553515552E0
5.595660833E0,-7.627331753E-1,-1.159009944E0,1.399391903E0,1.970625191E0
5.605709833E0,-2.483328567E-1,-1.331682900E0,5.761063508E-1,1.472055393E0
5.615758833E0,-1.061595623E-1,-1.268793756E0,1.854584046E-1,1.286663230E0
5.625807833E0,1.158650632E-1,-1.204172668E0,6.069469050E-1,1.353455235E0
5.635856833E0,2.098105229E-1,-8.923342252E-1,8.107866168E-1,1.223787466E0
5.645905833E0,1.785621254E-1,-5.365843624E-1,1.137626091E0,1.270433129E0
5.655954833E0,-2.978003012E-1,-4.293709856E-1,1.638333839E0,1.719645961E0
5.666003833E0,-7.783431215E-1,-3.237679321E-1,1.871620055E0,2.052706828E0
5.676052833E0,-9.205926490E-1,-1.299075902E-1,1.550708634E0,1.808055330E0
5.686101833E0,-1.084763973E0,1.962068295E-1,1.240132459E0,1.659258423E0
5.696150833E0,-1.676357259E0,6.438527030E-1,6.559922536E-1,1.911817407E0
5.706199833E0,-2.142446858E0,8.351478714E-1,4.244974776E-1,2.338321752E0
5.716248833E0,-2.296008921E0,1.017767526E0,7.844333620E-1,2.631129682E0
5.726296833E0,-2.215840671E0,1.281253588E0,1.137673015E0,2.801046327E0
5.736345833E0,-2.128947538E0,1.376584838E0,1.229482487E0,2.817628546E0
5.746394833E0,-2.049765421E0,1.368594618E0,1.193487027E0,2.738430352E0
5.756443833E0,-2.064963942E0,1.345650728E0,1.446681844E0,2.857925878E0
5.766492833E0,-2.141246133E0,1.134248739E0,2.063326868E0,3.182573325E0
5.776541833E0,-1.753074044E0,1.225486938E0,2.780687842E0,3.508177834E0
5.786590833E0,-1.291410787E0,1.557836244E0,3.271841093E0,3.847016990E0
5.796639833E0,-1.060383934E0,1.870414944E0,2.619447362E0,3.388859784E0
5.806688833E0,-1.490577330E0,1.917086250E0,1.089939709E0,2.661768028E0
5.816737833E0,-1.300444150E0,1.990789234E0,4.607393973E-1,2.422122531E0
5.826786833E0,-1.029740285E0,2.455838760E0,9.554407386E-1,2.829200607E0
5.836835833E0,-1.744976089E0,2.972595799E0,1.593753351E0,3.797540925E0
5.846884833E0,-1.862470771E0,2.871525507E0,1.509876358E0,3.740879940E0
5.856933833E0,-1.698126881E0,2.121489707E0,1.122775479E0,2.940234388E0
5.866981833E0,-1.345433943E0,1.657197395E0,1.292151921E0,2.495225899E0
5.877030833E0,-8.229783538E-1,1.059994948E0,1.250064832E0,1.833996932E0
5.887079833E0,5.872618881E-1,4.341230178E-1,1.357203072E0,1.541213645E0
5.897128833E0,2.241208085E0,4.267350608E-1,1.424147844E0,2.689482027E0
5.907177833E0,2.452757862E0,8.979966688E-1,5.809899453E-1,2.675811739E0
5.917226833E0,2.564214563E0,1.750989658E0,-1.271045519E0,3.355103250E0
5.927275833E0,2.973805588E0,2.112862140E0,-2.073058389E0,4.195864295E0
5.937324833E0,3.784523792E0,1.743773024E0,-1.733583081E0,4.513166848E0
5.947373833E0,6.495310510E0,3.188307770E0,-1.601407941E0,7.410726851E0
5.957422833E0,9.681143155E0,5.199706101E0,-1.390705864E0,1.107680184E1
5.967471833E0,8.725281270E0,5.553449784E0,-1.306603753E0,1.042490053E1
5.977520833E0,4.676627052E0,5.161738375E0,-8.697517667E-1,7.019319894E0
5.987569833E0,3.183958027E0,4.534085383E0,-9.785877458E-1,5.626113486E0
5.997618833E0,2.699184088E0,3.753700195E0,-1.000291952E0,4.730374603E0
6.007666833E0,2.271901728E0,3.460554716E0,-8.010213281E-1,4.216469088E0
6.017715833E0,2.048920936E0,3.082075557E0,-6.368487619E-1,3.755375226E0
6.027764833E0,1.667106525E0,2.590521187E0,-4.423874724E-1,3.112193898E0
6.037813833E0,1.414005556E0,1.877657890E0,-5.879916206E-2,2.351269489E0
6.047862833E0,1.329879034E0,1.182200586E0,-3.375343242E-1,1.811106261E0
6.057911833E0,1.579870745E0,2.517635643E-2,-1.593886667E0,2.244348487E0
6.067960833E0,1.922912854E0,-6.760895723E-1,-2.829910581E0,3.487561448E0
6.078009833E0,2.077105101E0,-9.751512641E-1,-4.029734674E0,4.637245641E0
6.088058833E0,2.310000285E0,-1.459324694E0,-4.677723113E0,5.417270844E0
6.098107833E0,2.867868074E0,-2.026903977E0,-4.299096311E0,5.551147279E0
6.108156833E0,3.078686510E0,-2.563153878E0,-4.069559768E0,5.710462778E0
6.118205833E0,3.204213951E0,-2.252562647E0,-1.752539755E0,4.290969717E0
6.128254833E0,2.237542027E0,-2.227221984E0,-8.862437654E-1,3.279106601E0
6.138302833E0,2.264632616E0,-2.670194178E0,-1.034959217E0,3.650977734E0
6.148351833E0,2.199417450E0,-2.369734417E0,-9.536317563E-1,3.370829549E0
6.158400833E0,1.468080022E0,-2.107065795E0,-1.325756747E0,2.890089301E0
6.168449833E0,9.391964427E-1,-2.260748164E0,-1.404719301E0,2.822464975E0
6.178498833E0,5.703584647E-1,-2.436319000E0,-1.042969025E0,2.710856587E0
6.188547833E0,6.021768196E-1,-2.722574705E0,-1.032632318E0,2.973442357E0
6.198596833E0,9.553637016E-1,-3.023709235E0,-1.132588715E0,3.367238414E0
6.208645833E0,1.100287380E0,-3.206196742E0,-1.203210216E0,3.596949359E0
6.218694833E0,8.886955029E-1,-3.405103816E0,-1.446614016E0,3.804892089E0
6.228743833E0,8.460204765E-1,-3.587674938E0,-1.830507405E0,4.115570370E0
6.238792833E0,8.680850910E-1,-3.800832261E0,-1.956664299E0,4.362159188E0
6.248841833E0,9.336629301E-1,-4.033073142E0,-1.571806996E0,4.428090183E0
6.258890833E0,9.193702886E-1,-4.036608953E0,-1.072500096E0,4.276647054E0
6.268939833E0,8.287757219E-1,-3.680354476E0,-3.751161334E-1,3.791119937E0
6.278987833E0,4.626869586E-1,-3.421670732E0,2.084538227E-1,3.459098555E0
6.289036833E0,-1.919883558E-1,-3.007856848E0,7.064351597E-1,3.095660347E0
6.299085833E0,-2.264160307E-1,-2.543981443E0,1.099137964E0,2.780505361E0
6.309134833E0,-6.154896140E-2,-2.044624549E0,1.488499961E0,2.529804331E0
6.319183833E0,-2.931986886E-1,-1.097352809E0,2.145593684E0,2.427698687E0
6.329232833E0,-4.557373966E-1,-2.339266330E-1,2.678067746E0,2.726621553E0
6.339281833E0,-6.881330824E-1,7.545071661E-1,3.322713039E0,3.476094093E0
6.349330833E0,-6.352016012E-1,1.777090459E0,4.116982733E0,4.528915808E0
6.359379833E0,-5.083247691E-1,2.581483145E0,4.780691411E0,5.456872701E0
6.369428833E0,-5.023755196E-1,2.765938241E0,5.095413993E0,5.819453520E0
6.379477833E0,-8.937352180E-1,2.527250805E0,4.650085371E0,5.367406565E0
6.389526833E0,-1.155581136E0,2.782574739E0,3.602009095E0,4.696015275E0
6.399575833E0,2.010009617E-1,3.441478760E0,3.046250251E0,4.600414985E0
6.409624833E0,1.159172350E0,3.377534194E0,3.374870787E0,4.913366524E0
6.419672833E0,1.651171693E0,2.842239727E0,3.452085609E0,4.766716866E0
6.429721833E0,1.955215359E0,2.364310539E0,2.944097639E0,4.252122098E0
6.439770833E0,2.225501879E0,1.325172025E0,2.362903699E0,3.506031004E0
6.449819833E0,2.678149899E0,-2.385085112E-1,2.273207411E0,3.520915382E0
6.459868833E0,3.568731129E0,-1.482329979E0,2.712954281E0,4.721574416E0
6.469917833E0,4.572693671E0,-2.204106186E0,2.748846245E0,5.772674178E0
6.479966833E0,5.456841502E0,-2.138931366E0,2.726930003E0,6.464386577E0
6.490015833E0,5.726570637E0,-1.317389381E-1,3.078409937E0,6.502889676E0
6.500064833E0,5.564724385E0,3.054328764E0,3.007087062E0,7.024076757E0
6.510113833E0,5.390716510E0,5.919797725E0,2.101148120E0,8.277599472E0
6.520162833E0,6.073069035E0,6.804297851E0,-5.573884633E-1,9.137358406E0
6.530211833E0,7.720413287E0,5.202203447E0,-2.829321181E0,9.729992825E0
6.540260833E0,6.239702402E0,1.924170737E0,-2.765911344E0,7.091303452E0
6.550308833E0,3.004430965E0,-3.806514001E-1,-1.905229559E0,3.577904496E0
6.560357833E0,1.212875225E0,-1.355216773E0,-1.686422364E0,2.480261922E0
6.570406833E0,-7.986945748E-2,-1.553633265E0,-2.807331850E0,3.209558781E0
6.580455833E0,-3.072594881E-1,-1.855620319E0,-4.095294241E0,4.506569658E0
6.590504833E0,-3.122581266E-1,-2.284798347E0,-5.069509658E0,5.569356947E0
6.600553833E0,-6.560488254E-1,-1.980664195E0,-5.666817940E0,6.038729691E0
6.610602833E0,-6.732526495E-1,-8.125343496E-1,-5.447576004E0,5.548834609E0
6.620651833E0,6.416073722E-1,1.026644769E0,-5.006736875E0,5.151026464E0
6.630700833E0,2.767746785E0,2.292922468E0,-4.743443770E0,5.951317040E0
6.640749833E0,4.800589194E0,2.486890399E0,-4.596228130E0,7.096167521E0
6.650798833E0,5.313762474E0,2.101833706E0,-4.235731205E0,7.113029973E0
6.660847833E0,5.426561696E0,2.025065027E0,-3.399434355E0,6.715996884E0
6.670896833E0,5.139465162E0,2.172765110E0,-2.808153968E0,6.246658233E0
6.680945833E0,4.378153591E0,2.103773813E0,-2.435144441E0,5.433601160E0
6.690993833E0,3.926201243E0,1.114089294E0,-1.905329400E0,4.504057202E0
6.701042833E0,3.767379464E0,2.188320458E-1,-1.937141177E0,4.241880647E0
6.711091833E0,3.568516829E0,-1.061380738E-1,-1.420421706E0,3.842287791E0
6.721140833E0,3.650447137E0,-8.458932996E-2,-1.227528786E0,3.852239164E0
6.731189833E0,3.667351730E0,3.497377557E-1,-1.792537633E0,4.096947202E0
6.741238833E0,3.055087148E0,3.701538938E-1,-2.530723466E0,3.984361009E0
6.751287833E0,2.688902929E0,2.633322805E-1,-2.813663800E0,3.900800793E0
6.761336833E0,2.809757567E0,5.878726298E-1,-3.368819504E0,4.425977481E0
6.771385833E0,2.762139597E0,8.378200489E-1,-4.081346585E0,4.998874627E0
6.781434833E0,2.707929184E0,5.117629319E-1,-4.423104646E0,5.211394868E0
6.791483833E0,2.151977381E0,-4.666662812E-2,-4.187288193E0,4.708138362E0
6.801532833E0,1.535321248E0,-4.708938181E-2,-3.573034095E0,3.889216038E0
6.811581833E0,8.657138988E-1,1.743780041E-1,-3.603834888E0,3.710457404E0
6.821630833E0,-3.701079932E-1,1.982153481E-1,-3.020913681E0,3.049948970E0
6.831679167E0,-9.967137489E-1,7.886736166E-1,-1.872221149E0,2.262886741E0
6.841728167E0,-2.583672928E0,6.822069293E-1,-1.528004919E0,3.078241564E0
6.851777167E0,-4.048550722E0,3.133511174E-1,-1.383547118E0,4.289889800E0
6.861826167E0,-3.731693029E0,5.829568756E-1,-1.276522021E0,3.986838353E0
6.871875167E0,-2.223010527E0,1.101315467E0,-1.119545331E0,2.721773926E0
6.881924167E0,-1.714565012E0,1.046038229E0,-9.576078629E-1,2.225071230E0
6.891973167E0,-1.562284660E0,8.424802798E-1,-9.486312175E-1,2.012562438E0
6.902022167E0,-1.150481926E0,5.249647754E-1,-1.021186978E0,1.625429027E0
6.912071167E0,-1.462365100E0,2.771317095E-1,-8.121653903E-1,1.695560760E0
6.922120167E0,-1.391054796E0,3.252209651E-1,-3.677349007E-1,1.475137648E0
6.932169167E0,-1.043170754E0,1.906736094E-1,-1.216338531E-1,1.067406409E0
6.942218167E0,-5.308103831E-1,-1.533590180E-1,6.721966423E-2,5.565942278E-1
6.952266167E0,-3.877421723E-1,-3.620110613E-1,3.612948505E-1,6.418177075E-1
6.962315167E0,-4.854232720E-1,-5.245817828E-1,8.941410879E-1,1.144687767E0
6.972364167E0,-6.063831604E-1,-6.920150489E-1,1.252263239E0,1.553946133E0
6.982413167E0,-8.829813114E-1,-7.027762645E-1,1.357639275E0,1.765427675E0
6.992462167E0,-1.171970736E0,-6.947340041E-1,1.435354618E0,1.978993083E0
7.002511167E0,-1.321401302E0,-5.794649184E-1,1.312014766E0,1.950195821E0
7.012560167E0,-1.405346269E0,-3.781786126E-1,1.254019597E0,1.921088844E0
7.022609167E0,-1.496711791E0,-2.269327784E-1,1.330082517E0,2.015133785E0
7.032658167E0,-1.701487276E0,1.832201636E-1,1.435213115E0,2.233487243E0
7.042707167E0,-1.418408364E0,4.069627011E-1,1.788146228E0,2.318397692E0
7.052756167E0,-7.598253550E-1,8.169361335E-1,1.488827113E0,1.860463756E0
7.062805167E0,-3.365229021E-1,8.050048900E-1,1.821430188E0,2.019625823E0
7.072854167E0,1.705539250E-1,4.970244402E-1,2.549044839E0,2.602643181E0
7.082903167E0,5.920526581E-1,5.530881286E-2,2.925046826E0,2.984875935E0
7.092951167E0,5.104503782E-1,-2.429371923E-1,2.711605036E0,2.769906125E0
7.103000167E0,8.636907622E-2,-1.922716534E-1,2.838506280E0,2.846321470E0
7.113049167E0,-9.495140009E-1,2.325373346E-1,3.025129231E0,3.179159844E0
7.123098167E0,-1.455848963E0,6.334581077E-1,2.877265134E0,3.286247104E0
7.133147167E0,-1.542731717E0,6.796324003E-1,2.609051890E0,3.106295722E0
7.143196167E0,-1.520937974E0,8.814987499E-1,2.393111292E0,2.969389504E0
7.153245167E0,-1.049769483E0,1.328314319E0,2.425535126E0,2.957981668E0
7.163294167E0,-4.347545171E-1,1.883154273E0,2.365418294E0,3.054584295E0
7.173343167E0,-6.604035392E-2,2.606194063E0,2.082065001E0,3.336405775E0
7.183392167E0,1.580527242E-1,3.398181297E0,1.597937618E0,3.758459980E0
7.193441167E0,4.752960406E-1,3.767880278E0,9.952978456E-1,3.925996168E0
7.203490167E0,6.403722940E-1,3.631778732E0,2.782795179E-1,3.698287837E0
7.213539167E0,8.300825746E-1,2.989263287E0,9.248058602E-2,3.103753331E0
7.223588167E0,1.537572864E0,2.119105797E0,-3.238268428E-1,2.638106047E0
7.233636167E0,2.343902149E0,1.067891028E0,-1.071042823E0,2.789516313E0
7.243685167E0,2.786299415E0,-2.882642233E-1,-1.260407095E0,3.071674908E0
7.253734167E0,2.858597606E0,-1.664301762E0,-1.174472832E0,3.510109266E0
7.263783167E0,3.089908779E0,-2.999682441E0,-6.543490398E-1,4.355892982E0
7.273832167E0,4.221065218E0,-3.404227318E0,-5.642492207E-1,5.452020946E0
7.283881167E0,5.971323974E0,-1.491593723E0,-1.219512838E0,6.274454032E0
7.293930167E0,7.833259286E0,2.152441358E0,-1.254537660E0,8.219903867E0
7.303979167E0,6.994618288E0,5.266750860E0,-1.972429562E-1,8.757982325E0
7.314028167E0,5.218637631E0,6.048684391E0,8.580759734E-1,8.034740566E0
7.324077167E0,2.414198837E0,6.085327138E0,6.789032525E-1,6.581828927E0
7.334126167E0,8.921216789E-1,5.946130661E0,3.508399558E-1,6.022909563E0
7.344175167E0,8.231892921E-1,4.757727349E0,4.918157405E-1,4.853400134E0
7.354224167E0,4.590808345E-1,3.214678128E0,2.230948122E-1,3.254947308E0
7.364272167E0,-7.238557693E-1,2.030146258E0,-7.473345329E-1,2.281221144E0
7.374321167E0,-1.949071543E0,1.114793884E0,-1.328571158E0,2.608974244E0
7.384370167E0,-2.163131676E0,-5.294010580E-2,-1.195801794E0,2.472222327E0
7.394419167E0,-1.395856822E0,-3.570999849E-1,-8.365186049E-1,1.666043230E0
7.404468167E0,-1.399827959E0,-8.086664164E-1,-9.562975019E-1,1.878287677E0
7.414517167E0,-1.860261254E0,-1.664297084E0,-1.864453708E0,3.115548804E0
7.424566167E0,-1.198779781E0,-2.131087326E0,-1.562631546E0,2.901796599E0
7.434615167E0,-1.033090593E0,-1.938723872E0,-1.676666577E0,2.763537087E0
7.444664167E0,-2.206334560E0,-2.039784223E0,-2.245964356E0,3.751398107E0
7.454713167E0,-2.452427641E0,-2.286066608E0,-2.241276351E0,4.032842862E0
7.464762167E0,-2.043086731E0,-2.442469686E0,-1.886005960E0,3.700929618E0
7.474811167E0,-1.516764524E0,-2.650220674E0,-1.520676604E0,3.411260995E0
7.484860167E0,-8.823379715E-1,-2.775074515E0,-1.143975583E0,3.128616147E0
7.494908167E0,-5.229615194E-1,-3.035084993E0,-8.850018167E-1,3.204443459E0
7.504957167E0,-2.243833923E-1,-3.279358274E0,-7.641515636E-1,3.374680164E0
7.515006167E0,3.643049971E-1,-3.194207026E0,-6.356315178E-1,3.277148774E0
7.525055167E0,8.651421142E-1,-3.182634802E0,-3.884089011E-1,3.320918041E0
7.535104167E0,5.730554198E-1,-3.226279589E0,1.225982782E-1,3.279070423E0
7.545153167E0,4.398065114E-1,-3.125871202E0,5.540537962E-1,3.204914374E0
7.555202167E0,4.630244160E-1,-3.200249539E0,5.162769824E-1,3.274527545E0
7.565251167E0,1.947714843E-1,-3.302713807E0,3.976071560E-1,3.332258374E0
7.575300167E0,-2.219368442E-1,-3.331549936E0,1.638497999E-1,3.342951943E0
7.585349167E0,-2.382783502E-1,-3.332776097E0,-1.319973850E-1,3.343889411E0
7.595398167E0,-1.964780307E-1,-3.410686737E0,-2.844085693E-1,3.428159254E0
7.605447167E0,-1.404196414E-1,-3.508418269E0,-1.482304251E-1,3.514354661E0
7.615496167E0,-1.085621101E-1,-3.296157324E0,3.989555240E-2,3.298185940E0
7.625545167E0,-2.486679387E-1,-2.809888253E0,4.457212624E-1,2.855866800E0
7.635593167E0,1.260274509E-1,-2.265240580E0,7.139643270E-1,2.378432859E0
7.645642167E0,9.076677442E-1,-2.230374218E0,1.177348858E0,2.680406726E0
7.655691167E0,5.288132301E-1,-1.610065328E0,2.224953264E0,2.796850161E0
7.665740167E0,5.114220027E-1,-6.201773268E-1,2.977498982E0,3.084099961E0
7.675789167E0,7.078050162E-1,1.164122164E-1,3.433226877E0,3.507361762E0
7.685838167E0,8.374760865E-1,1.041688485E0,3.920412207E0,4.141993840E0
7.695887167E0,1.966404006E-1,1.977649956E0,3.928282559E0,4.402405099E0
7.705936167E0,-5.913153242E-1,2.869891795E0,3.616997848E0,4.654955011E0
7.715985167E0,-6.179409130E-1,3.178332421E0,2.870686432E0,4.327180206E0
7.726034167E0,1.633491321E-1,2.658040155E0,2.586932166E0,3.712691535E0
7.736083167E0,1.203152475E0,1.932462088E0,2.747558103E0,3.568061257E0
7.746132167E0,1.909562345E0,8.343561584E-1,2.879492631E0,3.554441779E0
7.756181167E0,1.795538424E0,-1.299982220E-1,2.962280726E0,3.466405180E0
7.766229167E0,1.253057291E0,-3.288374680E-1,2.748165629E0,3.038206869E0
7.776278167E0,1.235277370E0,-7.526161766E-1,2.402812116E0,2.804611801E0
7.786327167E0,1.241354089E0,-1.047497109E0,2.046020864E0,2.612357468E0
7.796376167E0,1.327923725E0,-1.364710897E0,1.782024339E0,2.607954754E0
7.806425167E0,1.335247070E0,-1.446032803E0,1.606156172E0,2.540400216E0
7.816474167E0,1.731070679E0,-9.921637380E-1,1.580442749E0,2.545347493E0
7.826523167E0,2.798656628E0,3.261261141E-1,1.493963014E0,3.189163316E0
7.836571417E0,3.684695449E0,2.839179879E0,1.731186308E0,4.963358638E0
7.846620417E0,3.398173696E0,5.782926686E0,1.713527424E0,6.922860807E0
7.856669417E0,3.021131782E0,7.490042930E0,1.889694091E0,8.294511685E0
7.866718417E0,3.746392930E0,7.455382975E0,2.594181251E0,8.737732638E0
7.876767417E0,5.813326360E0,4.692995748E0,2.736137322E0,7.956470317E0
7.886816417E0,3.658747260E0,8.167431754E-1,2.458081752E0,4.482819071E0
7.896865417E0,1.673362900E0,-7.417304152E-1,2.611852999E0,3.189370391E0
7.906913417E0,3.786324296E-1,-1.176893653E0,3.100267121E0,3.337678446E0
7.916962417E0,-1.494889652E-1,-1.668665539E0,1.489848329E0,2.241972273E0
7.927011417E0,-7.381788164E-2,-2.659699010E0,-1.471731023E0,3.040631531E0
7.937060417E0,6.089781547E-1,-3.360458570E0,-3.141004673E0,4.639983464E0
7.947109417E0,1.318674014E0,-3.311855344E0,-4.309756955E0,5.592968084E0
7.957158417E0,2.032540400E0,-2.781941485E0,-5.167721246E0,6.210938881E0
7.967207417E0,1.365648791E0,-2.285744426E0,-5.664133483E0,6.258756451E0
7.977256417E0,4.336928089E-1,-1.566316461E0,-5.945447121E0,6.163584848E0
7.987305417E0,-3.262494904E-1,-7.553573513E-1,-5.742759823E0,5.801404471E0
7.997354417E0,-1.217949658E0,5.311961532E-2,-5.503772424E0,5.637174289E0
8.007403417E0,-1.598929306E0,7.568992621E-1,-5.308270769E0,5.595284620E0
8.017452417E0,-1.293486256E0,9.239489508E-1,-4.694843760E0,4.956646678E0
8.027501417E0,-1.000101991E0,7.002795035E-1,-3.276306612E0,3.496395342E0
8.037549417E0,-7.800109667E-1,4.457472825E-1,-1.927265814E0,2.126372796E0
8.047598417E0,-7.009798537E-1,3.489249927E-1,-1.513029615E0,1.703637292E0
8.057647417E0,-7.304134217E-1,7.191367739E-1,-2.241233374E0,2.464505732E0
8.067696417E0,-8.530725110E-1,1.114284591E0,-2.906838012E0,3.227858436E0
8.077745417E0,-9.934102913E-1,1.173703412E0,-2.852244313E0,3.240330435E0
8.087794417E0,-1.547319296E0,4.880378544E-1,-2.063743336E0,2.625150378E0
8.097843417E0,-1.946412668E0,-2.765686226E-1,-7.792077054E-1,2.114752261E0
8.107892417E0,-2.314426042E0,-5.221984577E-1,-1.280073912E-1,2.376056613E0
8.117941417E0,-1.954767608E0,-1.787254089E-1,-1.594039426E-1,1.969382845E0
8.127990417E0,-1.762503702E0,1.671888524E-1,-1.238147914E-1,1.774739845E0
8.138039417E0,-2.138526154E0,1.108538532E-1,-1.519714737E-1,2.146783179E0
8.148088417E0,-1.918850063E0,-4.093694150E-2,-5.541548069E-1,1.997685898E0
8.158137417E0,-1.694885623E0,-2.086432725E-1,-1.415778140E0,2.218241879E0
8.168185417E0,-1.306413280E0,-3.735745150E-1,-1.228574268E0,1.831848331E0
8.178234417E0,-1.299820106E0,-5.514052999E-1,-8.977055506E-1,1.673157305E0
8.188283417E0,-1.402813839E0,-9.066031855E-1,-7.235625315E-1,1.820263371E0
8.198332417E0,-7.945727263E-1,-7.002350646E-1,-3.503347929E-1,1.115531008E0
8.208381417E0,-2.209237410E-1,4.795184612E-2,-1.788078547E-1,2.882341544E-1
8.218430417E0,-3.408037949E-1,5.283310175E-2,-3.192018048E-1,4.699237762E-1
8.228479417E0,-7.878384150E-1,-2.728047699E-1,-4.415004498E-1,9.434163756E-1
8.238528417E0,-4.660742506E-1,1.348806471E-1,3.454494077E-1,5.956116934E-1
8.248577417E0,2.722417561E-1,1.866823000E-1,3.981222957E-1,5.171723284E-1
8.258626417E0,7.756153954E-1,-6.544332397E-1,2.467829061E-1,1.044396433E0
8.268675417E0,6.553583423E-1,-1.539376000E0,4.450701749E-1,1.731259797E0
8.278724417E0,-1.244932877E-1,-1.733514669E0,3.013222253E-1,1.763906678E0
8.288773417E0,-3.811552839E-1,-1.213144051E0,4.759353240E-1,1.357760020E0
8.298821417E0,-7.960837930E-2,-8.010849166E-1,6.247924610E-1,1.019038840E0
8.308870417E0,-1.341183163E-2,-7.855237216E-1,7.966316772E-1,1.118860770E0
8.318919417E0,-2.236134602E-1,-9.043824130E-1,7.640813971E-1,1.204877965E0
8.328968417E0,-4.303793380E-1,-1.158781902E0,6.229705417E-1,1.384230533E0
8.339017417E0,-5.231748696E-1,-1.386686488E0,6.319683103E-1,1.611209268E0
8.349066417E0,-5.404321226E-1,-1.068345357E0,7.092121486E-1,1.391549694E0
8.359115417E0,-4.420947462E-1,-9.357726055E-1,8.098626105E-1,1.314152039E0
8.369164417E0,-3.496678083E-1,-8.798428184E-1,1.054743125E0,1.417347530E0
8.379213417E0,9.615234509E-2,-6.852521592E-1,9.870603613E-1,1.205447615E0
8.389262417E0,1.282659113E-1,-5.120751733E-1,9.761191244E-1,1.109721439E0
8.399311417E0,-2.336087637E-1,-1.099989903E-1,1.070515404E0,1.101215721E0
8.409360417E0,-3.721535319E-1,1.093043411E-1,1.459917601E0,1.510564495E0
8.419409417E0,-5.605571791E-1,-9.608846426E-2,1.393628887E0,1.505210556E0
8.429458417E0,-1.317870899E0,1.305782658E-1,8.964342928E-1,1.599196308E0
8.439506417E0,-2.020038322E0,6.879722840E-1,9.317408042E-1,2.328519189E0
8.449555417E0,-2.641250460E0,8.877891845E-1,1.162822767E0,3.019359272E0
8.459604417E0,-3.134148228E0,9.712125796E-1,1.121348612E0,3.467500786E0
8.469653417E0,-2.987066196E0,1.046373274E0,1.359367858E0,3.444610640E0
8.479702417E0,-2.741419989E0,1.116437536E0,1.651695750E0,3.389677739E0
8.489751417E0,-2.750398973E0,1.180231828E0,1.809602294E0,3.497470820E0
8.499800417E0,-3.043432185E0,1.315872028E0,2.112677660E0,3.931590716E0
8.509849417E0,-3.382746987E0,1.286222552E0,2.599152846E0,4.455663940E0
8.519898417E0,-3.625013211E0,1.235198579E0,3.112098670E0,4.934733472E0
8.529947417E0,-3.832713912E0,1.518006181E0,3.525440683E0,5.424276054E0
8.539996417E0,-3.778184826E0,1.722251762E0,3.284023182E0,5.293924817E0
8.550045417E0,-4.153204772E0,1.537087984E0,2.090161202E0,4.896991240E0
8.560094417E0,-3.937286102E0,2.318676530E0,1.890948758E0,4.945115762E0
8.570142417E0,-3.857581244E0,4.575357370E0,2.067673834E0,6.331674597E0
8.580191417E0,-4.127749796E0,5.452001762E0,2.798719486E0,7.388874904E0
8.590240417E0,-3.755543822E0,4.968295525E0,2.589880332E0,6.745038914E0
8.600289417E0,-2.934395354E0,3.998468150E0,1.530362809E0,5.190417514E0
8.610338417E0,-1.925438413E0,2.852745420E0,1.029288733E0,3.592339740E0
8.620387417E0,-3.846836765E-1,1.589615861E0,9.386114287E-1,1.885696564E0
8.630436417E0,1.615926870E0,5.780691880E-1,1.756737836E-1,1.725179676E0
8.640485417E0,2.802580695E0,-1.352987230E-2,-8.822103560E-1,2.938185957E0
8.650534417E0,2.583940438E0,-2.180210370E-1,-1.788703029E0,3.150196801E0
8.660583417E0,2.156087389E0,-3.427427316E-1,-1.977496759E0,2.945620281E0
8.670632417E0,2.775572113E0,4.801306647E-1,-2.309082418E0,3.642277807E0
8.680681417E0,4.581031801E0,2.765137757E0,-2.624089467E0,5.959671527E0
8.690730417E0,6.001597348E0,4.229868786E0,-1.581301705E0,7.510757336E0
8.700779417E0,5.672375718E0,4.642413824E0,-8.550846840E-1,7.379635643E0
8.710827417E0,3.181646038E0,4.353318127E0,-1.217304345E0,5.527755430E0
8.720876417E0,1.272913997E0,3.961137187E0,-1.769056385E0,4.521114724E0
8.730925417E0,2.613880813E-1,3.476663210E0,-1.266297580E0,3.709315350E0
8.740974417E0,-1.594400492E-1,2.876948215E0,-6.047753222E-1,2.944147644E0
8.751023417E0,-1.258328117E-2,2.456636905E0,-4.090736921E-1,2.490494832E0
8.761072417E0,-1.003001845E0,2.045973501E0,6.213730824E-1,2.361805406E0
8.771121417E0,-1.996381365E0,1.421361061E0,1.065320884E0,2.672211520E0
8.781170417E0,-2.313076505E0,7.724475932E-1,5.683338663E-1,2.503997122E0
8.791219417E0,-1.996927495E0,1.549535537E-1,9.467723876E-2,2.005166777E0
8.801268417E0,-1.398369517E0,-9.916094220E-1,-1.090328549E0,2.031635522E0
8.811317417E0,-1.060930649E0,-1.270256730E0,-3.122795566E0,3.534257793E0
8.821366417E0,-9.810275696E-1,-2.352804973E0,-4.138146146E0,4.860283928E0
8.831415417E0,6.070275235E-1,-2.938006010E0,-3.720893222E0,4.779687029E0
8.841463792E0,1.220354983E0,-2.740640262E0,-2.421747739E0,3.855546322E0
8.851512792E0,2.319273676E0,-2.187079094E0,-2.267038599E0,3.911752722E0
8.861561792E0,2.509127945E0,-2.080435821E0,-2.472029408E0,4.090827012E0
8.871610792E0,2.030072875E0,-2.124089963E0,-2.177038840E0,3.656836360E0
8.881659792E0,1.530109040E0,-2.200780290E0,-2.056200574E0,3.378258184E0
8.891708792E0,8.102736698E-1,-2.903379968E0,-2.717197898E0,4.058241377E0
8.901757792E0,2.762410323E-1,-3.475048209E0,-3.283942198E0,4.789211368E0
8.911806792E0,3.584145851E-1,-3.482274783E0,-2.882216848E0,4.534520112E0
8.921855792E0,5.184093158E-1,-3.458188933E0,-2.620139965E0,4.369548300E0
8.931904792E0,6.471766989E-1,-3.604414932E0,-2.460675285E0,4.411980002E0
8.941953792E0,1.039415672E0,-3.945155577E0,-2.408401177E0,4.737618990E0
8.952002792E0,1.558469498E0,-4.299307396E0,-2.407173554E0,5.167915999E0
8.962051792E0,1.935120964E0,-4.308984538E0,-2.223568059E0,5.220756248E0
8.972099792E0,2.052977150E0,-4.138344659E0,-2.149283277E0,5.095098654E0
8.982148792E0,1.809231872E0,-4.023394246E0,-2.313841467E0,4.981453961E0
8.992197792E0,1.241320321E0,-3.933088093E0,-2.434608105E0,4.789297935E0
9.002246792E0,6.761447554E-1,-3.877049548E0,-2.171906739E0,4.495093304E0
9.012295792E0,4.635358281E-2,-3.484969180E0,-1.643967485E0,3.853542258E0
9.022344792E0,-5.659676443E-1,-2.938200138E0,-1.063474626E0,3.175581475E0
9.032393792E0,-1.268760720E0,-2.557215446E0,-5.052543962E-1,2.899032012E0
9.042442792E0,-1.768595039E0,-1.839346933E0,1.361003762E-1,2.555317762E0
9.052491792E0,-2.154429119E0,-8.597050077E-1,7.912346971E-1,2.450859007E0
9.062540792E0,-2.415305569E0,3.266751677E-1,1.433538473E0,2.827622713E0
9.072589792E0,-2.286154608E0,1.949026666E0,2.232254682E0,3.742748830E0
9.082638792E0,-1.664557870E0,4.241638062E0,3.419981471E0,5.697237894E0
9.092687792E0,-8.098398064E-1,6.008958408E0,4.466610269E0,7.530871726E0
9.102736792E0,-3.381615112E-1,6.633110088E0,4.972176322E0,8.296688497E0
9.112784792E0,-4.459694036E-1,6.896827700E0,4.783830781E0,8.405364833E0
9.122833792E0,-7.190215107E-1,7.635012948E0,4.283571077E0,8.784042112E0
9.132882792E0,-7.176665647E-1,7.829572617E0,3.599131096E0,8.647022453E0
9.142931792E0,-6.487191213E-1,5.715800065E0,1.953226721E0,6.075055679E0
9.152980792E0,-1.056891538E-2,2.763931476E0,1.182079256E0,3.006117143E0
9.163029792E0,-5.921109840E-1,-1.179447716E-1,5.244879350E-1,7.997461976E-1
9.173078792E0,-5.927006757E-1,-2.723257660E0,2.616741271E0,3.822925745E0
9.183127792E0,6.530556357E-1,-5.463157665E0,3.223680502E0,6.376887117E0
9.193176792E0,2.250633797E0,-6.417133237E0,3.093408922E0,7.470885505E0
9.203225792E0,4.129351349E0,-6.137656209E0,3.638012449E0,8.243633961E0
9.213274792E0,5.815592741E0,-3.362622625E0,3.921466460E0,7.778576286E0
9.223323792E0,6.149868704E0,2.615540253E0,3.803240145E0,7.689380436E0
9.233372792E0,4.981555840E0,7.903666195E0,3.030199059E0,9.821707807E0
9.243420792E0,4.139529305E0,9.780026003E0,1.824819526E0,1.077564744E1
9.253469792E0,3.035051956E0,9.580405569E0,1.140895854E0,1.011421547E1
9.263518792E0,1.988643014E0,5.944652485E0,-2.638719785E-1,6.274011685E0
9.273567792E0,1.807827225E0,2.369891707E0,-1.155841922E0,3.196966770E0
9.283616792E0,9.643364733E-1,1.202532524E-1,-1.290477863E0,1.615468599E0
9.293665792E0,-4.515396074E-1,-2.106990951E0,-1.122576528E0,2.429707172E0
9.303714792E0,-8.922395003E-1,-3.006021407E0,-3.032751369E0,4.362320127E0
9.313763792E0,-4.476661194E-1,-3.520365300E0,-5.456641527E0,6.509094681E0
9.323812792E0,-4.463637252E-1,-3.798360059E0,-6.045988240E0,7.154072512E0
9.333861792E0,3.380577231E-1,-3.805646274E0,-5.274696642E0,6.513037022E0
9.343910792E0,7.908166212E-1,-3.534217939E0,-4.416998691E0,5.711914285E0
9.353959792E0,6.004301101E-2,-2.694825574E0,-3.590059141E0,4.489344570E0
9.364008792E0,-8.004034967E-1,-2.017803370E0,-3.878669519E0,4.444800720E0
9.374057792E0,-1.108778414E0,-1.630635833E0,-4.909926864E0,5.291100509E0
9.384105792E0,-7.486936451E-1,-9.508508205E-1,-6.123316498E0,6.241767730E0
9.394154792E0,6.173666433E-1,4.576218081E-1,-6.680912245E0,6.724964514E0
9.404203792E0,2.287624452E-1,2.407175308E0,-6.240490022E0,6.692573566E0
9.414252792E0,-7.426247469E-1,3.923867034E0,-3.342251218E0,5.207577865E0
9.424301792E0,-1.088835462E0,4.050589646E0,-1.178425038E0,4.356779168E0
9.434350792E0,-1.671555818E0,2.791172485E0,-5.021904552E-1,3.291950477E0
9.444399792E0,-2.174656392E0,1.280004038E0,-2.380484815E-1,2.534602107E0
9.454448792E0,-2.651440988E0,1.270342684E-1,6.975304350E-2,2.655398747E0
9.464497792E0,-1.337939713E0,-8.188253689E-1,1.023992179E-1,1.571955235E0
9.474546792E0,7.029477341E-1,-1.152073976E0,-2.250821346E-1,1.368236797E0
9.484595792E0,1.173572434E0,-1.229841360E0,-5.180182832E-1,1.777111412E0
9.494644792E0,1.352551905E0,-7.904184258E-1,-1.089175624E0,1.907999340E0
9.504693792E0,8.914790699E-1,-3.946326774E-1,-1.457566436E0,1.753559180E0
9.514742792E0,2.096735519E-1,-5.391974831E-1,-1.302927462E0,1.425593524E0
9.524790792E0,-8.206018992E-2,-5.788439441E-1,-1.143189132E0,1.284007624E0
9.534839792E0,-1.628741920E-1,-6.843405783E-2,-9.083854169E-1,9.254054724E-1
9.544888792E0,-5.185576889E-1,2.035088325E-1,-9.670172755E-1,1.115992981E0
9.554937792E0,-1.095581979E0,-1.935562867E-1,-7.368379768E-1,1.334426511E0
9.564986792E0,-1.382296398E0,-4.726205009E-1,-4.393662161E-1,1.525501931E0
9.575035792E0,-1.181668928E0,-5.469263327E-1,-1.005096171E-1,1.305975517E0
9.585084792E0,-1.031135650E0,-8.985123932E-1,9.387587786E-2,1.370904055E0
9.595133792E0,-6.766272969E-1,-1.210887610E0,1.848853044E-3,1.387110926E0
9.605182792E0,3.542791419E-2,-1.211848308E0,-2.413274539E-1,1.236151446E0
9.615231792E0,9.390127670E-1,-2.135540566E0,-3.160455143E-1,2.354179953E0
9.625280792E0,4.859420662E-1,-2.441570969E0,-1.035694504E0,2.696307029E0
9.635329792E0,1.152495999E0,-1.678437991E0,-1.454905368E0,2.502428969E0
9.645378792E0,2.024454724E0,-5.360277075E-1,-1.007898595E0,2.324134723E0
9.655427792E0,1.993982983E0,1.720940816E-1,-4.369624257E-1,2.048541108E0
9.665475792E0,1.049831902E0,9.510613203E-2,2.543667448E-1,1.084386758E0
9.675524792E0,4.183235122E-1,-2.591111755E-1,4.854276574E-1,6.912113806E-1
9.685573792E0,-2.136499509E-3,-4.094015747E-1,9.818057609E-1,1.063746570E0
9.695622792E0,-8.112146330E-1,-4.373103350E-1,1.821684688E0,2.041529968E0
9.705671792E0,-1.030442097E0,-8.705802441E-2,2.508345587E0,2.713150862E0
9.715720792E0,-1.096321798E0,4.664557815E-1,2.918008533E0,3.151868696E0
9.725769792E0,-1.422993165E0,7.725838333E-1,2.806862319E0,3.240412227E0
9.735818792E0,-1.874101321E0,8.719607717E-1,2.222358416E0,3.035036784E0
9.745867792E0,-2.080927279E0,5.997448164E-1,1.390828217E0,2.573782298E0
9.755916792E0,-2.303583989E0,3.279878676E-1,7.890035458E-1,2.456949700E0
9.765965792E0,-2.734805911E0,-7.876199484E-4,5.988766511E-1,2.799610193E0
9.776014792E0,-2.864237537E0,-2.821106136E-1,9.151338346E-1,3.020084933E0
9.786063792E0,-2.812703979E0,1.606119043E-1,1.314783862E0,3.108979971E0
9.796111792E0,-3.234754251E0,7.190250921E-1,1.716499271E0,3.731889856E0
9.806160792E0,-3.854022920E0,1.283773738E0,2.008619295E0,4.531679507E0
9.816209792E0,-4.373583407E0,1.555704934E0,2.037902005E0,5.069664115E0
9.826258792E0,-4.604619761E0,1.502681213E0,2.025175978E0,5.249943973E0
9.836308208E0,-4.738304360E0,1.639214868E0,2.188166091E0,5.470523232E0
9.846357208E0,-4.155007177E0,2.102697340E0,2.364230286E0,5.222547806E0
9.856406208E0,-3.530903445E0,2.322574283E0,2.461399462E0,4.890819742E0
9.866455208E0,-3.842812346E0,2.077107001E0,2.555989870E0,5.061093206E0
9.876504208E0,-4.025763538E0,1.844995344E0,2.220811096E0,4.954067198E0
9.886553208E0,-4.361999196E0,1.304775767E0,1.891064533E0,4.930071181E0
9.896602208E0,-4.064350191E0,1.150934354E0,2.037393297E0,4.689836224E0
9.906651208E0,-3.770015096E0,2.722157214E0,1.860401587E0,5.008417693E0
9.916700208E0,-3.527537787E0,3.490063275E0,2.198450028E0,5.427453088E0
9.926749208E0,-3.235941820E0,3.068999428E0,1.755881438E0,4.793036259E0
9.936797208E0,-2.786088915E0,2.606265399E0,6.864759084E-1,3.876359110E0
9.946846208E0,-2.708786970E0,2.331071457E0,-1.505973780E-1,3.576884197E0
9.956895208E0,-1.632198794E0,1.795497494E0,-5.608239583E-1,2.490463343E0
9.966944208E0,7.547029017E-1,4.751891828E-1,-9.787081254E-1,1.324103781E0
9.976993208E0,2.973587487E0,-1.162232929E0,-1.569880924E0,3.557742829E0
9.987042208E0,4.110490862E0,-3.941070127E-1,-3.212451509E0,5.231758802E0
9.997091208E0,4.664669789E0,2.152947727E0,-3.500466641E0,6.216718978E0
1.000714021E1,5.339006658E0,4.677559099E0,-1.985014378E0,7.370538196E0
1.001718921E1,4.633753805E0,6.417544881E0,1.949736518E-1,7.917990361E0
1.002723821E1,3.847660273E0,6.807583986E0,-3.043143918E-1,7.825617966E0
1.003728721E1,2.870811562E0,5.587167753E0,-1.332799279E0,6.421398325E0
1.004733621E1,1.298444110E0,4.018027087E0,-1.364462537E0,4.437595835E0
1.005738521E1,5.627211971E-1,3.043810793E0,-1.098859198E0,3.284650792E0
1.006743321E1,4.367657400E-1,2.358555125E0,-6.272404709E-1,2.479309823E0
1.007748221E1,-2.952024563E-1,1.551969148E0,-6.066025771E-1,1.692252763E0
1.008753121E1,-1.144991244E0,8.670233828E-1,-7.559046507E-1,1.622999179E0
1.009758021E1,-1.933407583E0,2.044402939E-1,-6.003301227E-1,2.034762142E0
1.010762921E1,-1.898110427E0,5.928433478E-2,-3.845965165E-1,1.937589303E0
1.011767821E1,-1.840979622E0,-4.587947595E-1,-5.550764742E-1,1.976817769E0
1.012772721E1,-7.640200013E-1,-9.824918586E-1,-1.706710448E0,2.112315641E0
1.013777621E1,3.122258207E-1,-1.309724851E0,-2.214874126E0,2.592013029E0
1.014782521E1,6.116266510E-1,-1.062917386E0,-2.219383206E0,2.535654225E0
1.015787421E1,-1.663611791E-1,-8.582747787E-1,-3.126824006E0,3.246742983E0
1.016792321E1,4.263864206E-1,-9.787320989E-1,-3.201785310E0,3.375077936E0
1.017797221E1,4.098934717E-1,-2.580845214E0,-6.271548092E0,6.794195328E0
1.018802121E1,2.069908348E0,-3.196951125E0,-4.972849336E0,6.263724737E0
1.019807021E1,3.417187672E0,-2.769470544E0,-3.141263412E0,5.405060083E0
1.020811821E1,3.158457735E0,-3.013396500E0,-2.643196414E0,5.103224570E0
1.021816721E1,3.076859840E0,-2.801208061E0,-2.526361443E0,4.867888168E0
1.022821621E1,2.795033401E0,-2.942790202E0,-2.208107436E0,4.620385734E0
1.023826521E1,2.371858856E0,-3.446731898E0,-1.986503225E0,4.631616378E0
1.024831421E1,2.484060346E0,-3.488000962E0,-2.107930014E0,4.772847730E0
1.025836321E1,2.381520503E0,-3.315559555E0,-2.305861479E0,4.688450942E0
1.026841221E1,2.463719637E0,-3.113974457E0,-2.490457200E0,4.687123685E0
1.027846121E1,2.580596415E0,-3.094731855E0,-2.441267206E0,4.711329821E0
1.028851021E1,2.526120538E0,-3.167308665E0,-2.396438358E0,4.707020922E0
1.029855921E1,2.286718280E0,-3.297730810E0,-2.142475948E0,4.549100150E0
1.030860821E1,1.858154649E0,-3.621577095E0,-2.146383058E0,4.601686602E0
1.031865721E1,1.453218739E0,-3.861407077E0,-2.095326340E0,4.627386064E0
1.032870621E1,1.129483039E0,-3.899208156E0,-1.779361517E0,4.432345157E0
1.033875521E1,9.834079711E-1,-3.924664595E0,-1.521898672E0,4.322760575E0
1.034880321E1,7.215107435E-1,-4.062308636E0,-1.167397774E0,4.287860395E0
1.035885221E1,1.621720876E-1,-3.865840436E0,-6.248378500E-1,3.919367857E0
1.036890121E1,-2.469681897E-1,-3.391168731E0,-3.096042216E-2,3.400290752E0
1.037895021E1,-5.041700301E-1,-2.955141860E0,5.457489958E-1,3.047112207E0
1.038899921E1,-1.021269350E0,-1.940019030E0,1.498790768E0,2.655755766E0
1.039904821E1,-1.459830185E0,-5.931257683E-1,2.441331233E0,2.905684177E0
1.040909721E1,-1.808044011E0,1.175380978E0,3.160815040E0,3.826394556E0
1.041914621E1,-2.365360407E0,3.828259796E0,4.330902826E0,6.245576211E0
1.042919521E1,-2.428858099E0,7.202762209E0,6.054408231E0,9.717766931E0
1.043924421E1,-2.723116157E0,9.710186275E0,7.148998815E0,1.236168529E1
1.044929321E1,-3.196005338E0,1.004260575E1,6.846672623E0,1.256762930E1
1.045934221E1,-2.656010002E0,9.657987011E0,5.822543911E0,1.158590177E1
1.046939121E1,-1.257949218E0,7.987987722E0,4.026984144E0,9.033658472E0
1.047944021E1,7.281776657E-1,4.348687717E0,2.303984815E0,4.974904381E0
1.048948821E1,1.095817038E0,8.496764481E-2,2.913592131E0,3.114009246E0
1.049953721E1,6.453205734E-1,-3.325983387E0,3.841480350E0,5.122067494E0
1.050958621E1,2.529455205E0,-4.185821126E0,4.024735013E0,6.333856176E0
1.051963521E1,4.385331925E0,-1.692248529E0,3.061355363E0,5.609522068E0
1.052968421E1,4.973736359E0,1.429745384E0,1.642636074E0,5.429592849E0
1.053973321E1,4.699036506E0,4.032663837E0,7.560473228E-1,6.238183170E0
1.054978221E1,5.383871759E0,6.203694078E0,7.926283810E-1,8.252281811E0
1.055983121E1,4.235747577E0,4.884749338E0,1.247439725E0,6.584712560E0
1.056988021E1,2.358954197E0,1.985251921E0,1.730614450E0,3.535663512E0
1.057992921E1,1.307674963E0,6.461658615E-1,1.138572171E0,1.850375831E0
1.058997821E1,1.784500051E-1,-5.854302478E-1,-2.085880163E-1,6.465925610E-1
1.060002721E1,2.867620736E-2,-1.147853456E0,-1.759043028E0,2.100624254E0
1.061007621E1,9.371861699E-1,-1.815591450E0,-4.748485824E0,5.169410784E0
1.062012521E1,3.690885311E-1,-3.158256590E0,-7.245812919E0,7.912813399E0
1.063017321E1,-3.256485428E-1,-3.508739866E0,-8.018948729E0,8.759043392E0
1.064022221E1,-6.654724905E-1,-3.080983881E0,-7.168188207E0,7.830596241E0
1.065027121E1,-7.874918944E-1,-2.602399220E0,-4.960376056E0,5.656673563E0
1.066032021E1,-3.722508515E-1,-2.145114797E0,-3.269409236E0,3.927992482E0
1.067036921E1,5.443154047E-1,-1.335357875E0,-3.521081584E0,3.804927783E0
1.068041821E1,1.263992900E0,-5.541458899E-1,-4.074029087E0,4.301449607E0
1.069046721E1,1.655222352E0,-1.959273326E-1,-4.441894673E0,4.744320482E0
1.070051621E1,2.117646624E0,5.165021002E-1,-4.761589435E0,5.236786762E0
1.071056521E1,1.911969059E0,1.429646566E0,-5.168503019E0,5.693236202E0
1.072061421E1,1.128323537E0,1.934679353E0,-5.147923159E0,5.614019153E0
1.073066321E1,3.837578796E-1,2.195390911E0,-3.607152599E0,4.240113351E0
1.074071221E1,-5.229547951E-1,2.425651340E0,-1.437791153E0,2.867840571E0
1.075076121E1,-1.581078634E0,1.556733459E0,-3.668800378E-1,2.248961910E0
1.076080921E1,-2.359053162E0,2.904937667E-1,-5.310680991E-1,2.435477730E0
1.077085821E1,-1.850496112E0,-9.199833691E-2,-7.616283439E-1,2.003216735E0
1.078090721E1,2.378042872E-1,1.513627785E-1,-1.227810622E0,1.259754140E0
1.079095621E1,9.177816731E-1,3.356009424E-1,-1.315657289E0,1.638873179E0
1.080100521E1,9.263786151E-1,5.361101532E-1,-1.010638016E0,1.472066790E0
1.081105421E1,5.990386190E-1,4.796646416E-1,-1.111430419E0,1.350630598E0
1.082110321E1,-3.270112364E-1,-9.788706779E-2,-1.501807785E0,1.540111960E0
1.083115221E1,-1.095279459E0,-7.080738419E-1,-2.040004079E0,2.421285258E0
1.084120117E1,2.043278081E-1,1.471486902E-1,-1.089007151E0,1.117738415E0
1.085125017E1,-1.251896180E-1,2.162592709E-1,-1.148346450E0,1.175219163E0
1.086129917E1,-1.424633163E-1,-6.032923222E-2,-1.183492236E0,1.193561596E0
1.087134817E1,-5.673233943E-1,-3.177207416E-1,-1.070037614E0,1.252111336E0
1.088139717E1,-8.912220117E-1,-6.040974838E-1,-6.332914621E-1,1.249107089E0
1.089144617E1,-1.281007713E0,-5.887912273E-1,-3.209449329E-1,1.445912003E0
1.090149517E1,-9.995326915E-1,-2.262246805E-1,-1.867448652E-1,1.041689422E0
1.091154317E1,-8.449310672E-1,2.575558162E-1,-2.669680792E-1,9.227759544E-1
1.092159217E1,1.167176604E-1,6.391474485E-2,-2.573546720E-1,2.897232024E-1
1.093164117E1,8.982837671E-1,-1.531246616E0,-6.570206326E-1,1.892962238E0
1.094169017E1,4.267736524E-2,-2.381127716E0,-1.312007019E0,2.718998525E0
1.095173917E1,-5.322851971E-2,-1.528575023E0,-8.801217306E-1,1.764649862E0
1.096178817E1,1.506202552E-1,-1.513251809E0,-2.108973742E-2,1.520875497E0
1.097183717E1,3.668348680E-1,-1.457020306E0,3.717110074E-1,1.547787151E0
1.098188617E1,5.260342312E-1,-1.442067221E0,7.163973534E-1,1.693958397E0
1.099193517E1,9.893159247E-1,-9.803470999E-1,1.102666904E0,1.776429210E0
1.100198417E1,7.501395884E-1,-5.118594110E-1,1.094768266E0,1.422401847E0
1.101203317E1,1.498196252E-1,-7.525495183E-1,8.269388922E-1,1.128097792E0
1.102208217E1,-2.769562930E-2,-8.978113121E-1,1.036877396E0,1.371840710E0
1.103213117E1,-2.994422724E-1,-5.669349200E-1,1.070815951E0,1.248089612E0
1.104217917E1,-4.226329467E-1,-1.264442843E-1,1.254426563E0,1.329734096E0
1.105222817E1,-3.905517960E-1,7.809541225E-2,1.977850954E0,2.017553963E0
1.106227717E1,-6.980794886E-1,3.523005903E-2,2.397499774E0,2.497310813E0
1.107232617E1,-1.490543270E0,6.039705992E-2,2.032372731E0,2.521092217E0
1.108237517E1,-2.120741555E0,-7.246922135E-2,1.426720765E0,2.557015580E0
1.109242417E1,-2.684594408E0,-4.384300768E-2,8.556243820E-1,2.817989075E0
1.110247317E1,-3.550049568E0,3.417902201E-1,2.597379971E-1,3.575910557E0
1.111252217E1,-4.382991284E0,1.005729863E0,2.118811682E-2,4.496949421E0
1.112257117E1,-4.757548132E0,1.454785500E0,4.825579901E-1,4.998352458E0
1.113262017E1,-4.755428808E0,1.565637599E0,9.720728512E-1,5.100024497E0
1.114266917E1,-4.579203084E0,1.668586017E0,1.397965182E0,5.070264967E0
1.115271817E1,-4.542672312E0,1.870696780E0,1.920072277E0,5.274661669E0
1.116276717E1,-4.425226600E0,1.918384917E0,2.450336384E0,5.409896445E0
1.117281617E1,-4.274697050E0,1.965159134E0,2.998379681E0,5.578993278E0
1.118286517E1,-4.780832329E0,1.803752008E0,3.687334882E0,6.301294914E0
1.119291317E1,-4.865192448E0,1.678626856E0,3.160711251E0,6.039700431E0
1.120296217E1,-5.501749873E0,1.289650775E0,1.688767243E0,5.897828887E0
1.121301117E1,-5.942152800E0,2.184233839E0,1.436949007E0,6.491908796E0
1.122306017E1,-5.212641311E0,3.767718310E0,2.054567008E0,6.751931301E0
1.123310917E1,-4.729625630E0,4.121772480E0,2.035584168E0,6.595602314E0
1.124315817E1,-3.466532909E0,2.914724151E0,1.324151101E0,4.718669667E0
1.125320717E1,-2.474516521E0,1.913610665E0,1.251107537E0,3.369036637E0
1.126325617E1,-2.441966533E0,1.375706586E0,1.058246777E0,2.995939819E0
1.127330517E1,-1.174447762E0,1.182284786E0,4.485855210E-1,1.725790784E0
1.128335417E1,6.618364725E-1,1.607193176E0,1.241563419E-1,1.742559101E0
1.129340317E1,2.309404892E0,1.312063152E0,1.997760431E-1,2.663601160E0
1.130345217E1,4.002937762E0,6.730034119E-1,-9.129261453E-2,4.060145153E0
1.131350117E1,4.784785924E0,1.858730453E-1,-6.796417558E-1,4.836386879E0
1.132355017E1,4.735351809E0,-1.844720525E-1,-1.173462507E0,4.882069330E0
1.133359817E1,4.430904539E0,4.743542004E-1,-1.531468810E0,4.712040286E0
1.134364717E1,3.896158249E0,1.845645554E0,-1.145087138E0,4.460681693E0
1.135369617E1,3.377536241E0,3.112502713E0,-9.120948905E-1,4.682663909E0
1.136374517E1,2.299778767E0,3.578328164E0,-1.484492864E0,4.505234055E0
1.137379417E1,7.696935546E-1,3.276748661E0,-2.361912158E0,4.111950753E0
1.138384317E1,-4.573917201E-1,2.164004227E0,-2.607924255E0,3.419559971E0
1.139389217E1,1.467856512E-1,2.096389949E0,-2.905914736E0,3.586187014E0
1.140394117E1,6.276459754E-1,3.721218327E0,-2.071038176E0,4.304718857E0
1.141399017E1,-5.450787587E-1,4.185128231E0,-2.596157902E-1,4.228452379E0
1.142403917E1,-5.044417794E-1,3.635580592E0,5.585096669E-1,3.712659531E0
1.143408817E1,-7.895028980E-1,2.633378354E0,7.770277172E-1,2.856880896E0
1.144413717E1,-5.397313339E-1,1.114792714E0,8.667678595E-2,1.241606046E0
1.145418617E1,2.727702713E-1,6.344831246E-1,-7.524808136E-1,1.021371544E0
1.146423517E1,8.565328932E-1,6.281581914E-1,-6.133261442E-1,1.226539958E0
1.147428317E1,1.543928934E0,9.157043767E-1,-4.665762341E-1,1.854703330E0
1.148433217E1,2.554820427E0,3.803473449E-1,-8.401358387E-1,2.716173732E0
1.149438117E1,3.954926274E0,-3.870172638E-1,-1.607151076E0,4.286508927E0
1.150443017E1,4.212539393E0,-4.751377273E-1,-1.990312686E0,4.683224166E0
1.151447917E1,2.412160498E0,-7.076996201E-1,-4.017489728E0,4.739154010E0
1.152452817E1,2.559011126E0,-1.736641760E0,-5.469043472E0,6.282905303E0
1.153457717E1,2.620927293E0,-2.201229356E0,-3.893913795E0,5.184325915E0
1.154462617E1,1.873351270E0,-2.680110471E0,-3.520943882E0,4.805151708E0
1.155467517E1,1.062841080E0,-3.512759827E0,-2.661306702E0,4.533394548E0
1.156472417E1,1.893032121E0,-3.106665437E0,-2.556593887E0,4.446471978E0
1.157477317E1,1.826808018E0,-2.128575363E0,-2.617325408E0,3.836463593E0
1.158482217E1,1.109691896E0,-2.386090833E0,-3.073608788E0,4.046222504E0
1.159487117E1,1.201213246E0,-2.803958007E0,-2.819049378E0,4.153568726E0
1.160492017E1,1.715413005E0,-2.968561220E0,-2.265481777E0,4.109428814E0
1.161496917E1,2.207562475E0,-3.288651254E0,-2.006914685E0,4.440300182E0
1.162501717E1,2.496666359E0,-3.708940929E0,-2.267591161E0,5.013138278E0
1.163506617E1,2.545639129E0,-3.918688740E0,-2.549649734E0,5.323261574E0
1.164511517E1,2.524717499E0,-3.821958252E0,-2.609869623E0,5.271905042E0
1.165516417E1,2.340646711E0,-3.767006704E0,-2.616013293E0,5.149028266E0
1.166521317E1,1.887057143E0,-3.892639979E0,-2.667357693E0,5.082167622E0
1.167526217E1,1.309602205E0,-4.086988564E0,-2.611794527E0,5.023943083E0
1.168531117E1,6.187947527E-1,-4.050283252E0,-2.350127825E0,4.723431185E0
1.169536017E1,1.375162795E-2,-3.469276423E0,-1.932945653E0,3.971441414E0
1.170540917E1,-2.029676726E-1,-2.975808259E0,-1.647162988E0,3.407312223E0
1.171545817E1,-8.389291196E-1,-2.185720786E0,-1.044602153E0,2.563663605E0
1.172550717E1,-1.307261419E0,-1.090008706E0,1.279797632E-1,1.706877329E0
1.173555617E1,-1.756203620E0,3.944256860E-1,1.274952044E0,2.205748284E0
1.174560517E1,-2.282464577E0,2.474444600E0,2.586850889E0,4.245505641E0
1.175565417E1,-2.231736911E0,4.325890008E0,4.262065018E0,6.469866476E0
1.176570217E1,-1.551113408E0,6.059106469E0,5.685694506E0,8.452564464E0
1.177575117E1,-1.009590268E0,7.182604517E0,6.720880888E0,9.888342635E0
1.178580017E1,-1.058948442E0,7.081856992E0,6.550599443E0,9.704865961E0
1.179584917E1,-1.513071131E0,6.674945746E0,5.520690758E0,8.793310606E0
1.180589817E1,-1.541275614E0,5.767368999E0,4.209864292E0,7.304863657E0
1.181594717E1,-7.514999431E-1,4.057847210E0,2.558531070E0,4.855610917E0
1.182599617E1,-4.083230558E-1,1.440313641E0,9.915114811E-1,1.795640866E0
1.183604479E1,-6.762011079E-1,-1.002077692E0,1.724785945E0,2.106251219E0
1.184609379E1,-3.859595025E-1,-3.052952330E0,3.362941006E0,4.558382923E0
1.185614279E1,1.019144107E0,-4.437380038E0,3.458627766E0,5.717613343E0
1.186619179E1,2.218792638E0,-4.083639863E0,2.670228676E0,5.359969821E0
1.187624079E1,3.313643715E0,-1.708994955E-1,1.727087994E0,3.740624847E0
1.188628979E1,3.044082103E0,5.267281203E0,4.254267463E-1,6.098497769E0
1.189633879E1,3.467468464E0,7.410372863E0,-4.783671445E-1,8.195474278E0
1.190638679E1,3.392758882E0,7.149186510E0,-1.068577783E0,7.985207516E0
1.191643579E1,2.172751662E0,3.761036696E0,-8.552465057E-1,4.426928213E0
1.192648479E1,1.104643556E0,-9.047969806E-1,2.280232841E-1,1.445990864E0
1.193653379E1,3.717243098E-1,-1.759163480E0,9.100811094E-2,1.800310415E0
1.194658279E1,-3.390641020E-1,2.161078280E-1,-1.245586450E0,1.308874579E0
1.195663179E1,-9.944460525E-1,2.533500894E0,-1.421163133E0,3.070383426E0
1.196668079E1,-8.069239461E-1,3.140053039E0,-4.144953766E-1,3.268465352E0
1.197672979E1,-3.576480152E-1,1.395946139E0,-4.916996732E-1,1.522611668E0
1.198677879E1,1.029267976E0,-1.148686684E0,-1.489614440E0,2.144253913E0
1.199682779E1,2.970574417E0,-3.249847376E0,-1.845446164E0,4.774043556E0
1.200687679E1,3.730174800E0,-4.635297763E0,-2.189117433E0,6.339749563E0
1.201692579E1,4.187702760E0,-4.741991907E0,-2.743399563E0,6.895620553E0
1.202697479E1,4.033094192E0,-3.813516042E0,-3.222263137E0,6.418078613E0
1.203702379E1,3.078816611E0,-2.361940663E0,-3.590086330E0,5.286453942E0
1.204707279E1,1.808827099E0,-7.009870166E-1,-3.226958451E0,3.765169201E0
1.205712079E1,1.122524487E0,3.268453217E-1,-3.089131099E0,3.302971395E0
1.206716979E1,7.124089676E-1,7.659700477E-1,-3.302994474E0,3.464680237E0
1.207721879E1,1.296445824E0,5.872680277E-1,-3.651894908E0,3.919437706E0
1.208726779E1,1.538176297E0,4.338552153E-1,-3.763771439E0,4.089033152E0
1.209731679E1,1.032689766E0,1.571070832E-1,-3.175689479E0,3.343072607E0
1.210736579E1,4.285975452E-1,-2.356924921E-1,-2.352022031E0,2.402343531E0
1.211741479E1,-2.035789990E-1,-4.417904717E-1,-1.685280548E0,1.754079176E0
1.212746379E1,-8.634741229E-1,-5.034528691E-1,-9.823043092E-1,1.401418606E0
1.213751279E1,-9.864723507E-1,1.024040419E-1,-8.074820629E-1,1.278922034E0
1.214756179E1,-6.600223008E-1,1.356276289E0,-6.844721407E-1,1.656386706E0
1.215761079E1,-4.225374909E-1,2.436662232E0,-7.551802538E-1,2.585760619E0
1.216765979E1,-7.903959140E-1,2.166551274E0,-1.307151053E0,2.650908146E0
1.217770879E1,-1.528243486E0,8.132863015E-1,-1.619907362E0,2.370878027E0
1.218775779E1,-1.583587820E0,-2.931133193E-1,-1.126160944E0,1.965172836E0
1.219780679E1,-1.057050875E0,-7.716155344E-1,-2.173760891E-1,1.326649708E0
1.220785479E1,-4.065339540E-1,-1.016458919E0,-1.460716331E-1,1.104443530E0
1.221790379E1,6.687089244E-1,-9.580054736E-1,-4.427149165E-1,1.249376889E0
1.222795279E1,1.558486454E0,-5.509112102E-1,-4.900655957E-1,1.724107734E0
1.223800179E1,1.346032844E0,-4.420489186E-1,-6.982499349E-1,1.579482395E0
1.224805079E1,9.569067818E-1,1.542963266E-1,-4.461372918E-1,1.067012853E0
1.225809979E1,9.488156971E-1,8.716508693E-1,-7.131884015E-1,1.472638503E0
1.226814879E1,1.307501885E0,8.646587688E-1,-6.630350786E-1,1.702002198E0
1.227819779E1,1.657685345E0,6.000874633E-1,-6.417137915E-1,1.876118935E0
1.228824679E1,1.078769773E0,3.133540410E-1,-2.359088391E-1,1.147862343E0
1.229829579E1,2.976995829E-1,-4.449871445E-1,2.172614837E-1,5.777898863E-1
1.230834479E1,6.830730481E-1,-1.260222323E0,1.857046455E-1,1.445418731E0
1.231839379E1,8.388805877E-1,-1.083203716E0,2.285080183E-1,1.388980506E0
1.232844279E1,-3.555158280E-2,-7.808629060E-1,2.290383607E-1,8.145362875E-1
1.233849179E1,-1.579468165E-1,-8.914214748E-1,4.570277309E-1,1.014127107E0
1.234854079E1,1.334031288E-1,-5.288765627E-1,6.964934313E-1,8.846524251E-1
1.235858879E1,-1.839319890E-1,-3.246508616E-1,7.130749655E-1,8.048012580E-1
1.236863779E1,-3.926936676E-1,-4.005073750E-1,9.287202787E-1,1.084958907E0
1.237868679E1,-1.088944513E-1,-6.017907572E-1,1.073940557E0,1.235863438E0
1.238873579E1,1.665698516E-1,-6.113690811E-1,1.047588326E0,1.224319799E0
1.239878479E1,2.555193771E-1,-4.095214427E-1,9.963597000E-1,1.107127190E0
1.240883379E1,1.309937835E-1,-1.506961960E-1,9.798074750E-1,9.999456999E-1
1.241888279E1,1.201683216E-2,-3.911389661E-1,1.110893864E0,1.177802730E0
1.242893179E1,-8.811863624E-2,-6.810649681E-1,1.182235742E0,1.367221904E0
1.243898079E1,-7.205359396E-1,-9.317421198E-1,1.068103867E0,1.590019273E0
1.244902979E1,-1.266844441E0,-9.169849169E-1,8.339053380E-1,1.772330186E0
1.245907879E1,-1.469101384E0,-6.315665334E-1,6.084344367E-1,1.710943490E0
1.246912779E1,-1.783341717E0,-4.573826569E-1,4.266118307E-1,1.889842382E0
1.247917679E1,-2.128164449E0,-5.445716590E-1,1.849871922E-1,2.204509577E0
1.248922579E1,-2.089686701E0,-4.609599835E-1,-4.570644222E-2,2.140412038E0
1.249927379E1,-2.052035602E0,-2.089216000E-1,-2.040035069E-1,2.072707355E0
1.250932279E1,-2.106294986E0,2.090151554E-1,-2.211300015E-1,2.128159858E0
1.251937179E1,-2.641315657E0,4.776116842E-1,-1.168712229E-4,2.684150020E0
1.252942079E1,-3.313112788E0,6.472663075E-1,2.244734395E-1,3.383202380E0
1.253946979E1,-3.253591641E0,9.273724955E-1,6.509377011E-1,3.445228324E0
1.254951879E1,-2.790507656E0,1.235978013E0,7.367189129E-1,3.139638416E0
1.255956779E1,-2.465769379E0,7.248261148E-1,9.088000575E-1,2.726042749E0
1.256961679E1,-2.500413839E0,1.460459054E-2,1.912317846E0,3.147894885E0
1.257966579E1,-1.846348536E0,-8.213116050E-2,2.216631507E0,2.886035980E0
1.258971479E1,-1.535887112E0,5.758349669E-1,1.746426637E0,2.395942639E0
1.259976379E1,-8.736746637E-1,2.221584098E0,1.184437876E0,2.664889568E0
1.260981279E1,-7.979185031E-1,3.945473081E0,8.954250634E-1,4.123738330E0
1.261986179E1,-1.520295365E0,4.637651267E0,1.220831970E0,5.030858572E0
1.262991079E1,-1.910342949E0,4.169950613E0,1.480945358E0,4.819864879E0
1.263995979E1,-2.418235901E0,3.490661445E0,1.277930031E0,4.434601150E0
1.265000879E1,-2.784073380E0,2.727513848E0,1.376972508E0,4.133575893E0
1.266005679E1,-2.531289477E0,2.004201577E0,1.142160095E0,3.424730655E0
1.267010579E1,-2.091067228E0,1.585187765E0,7.502165524E-1,2.729140392E0
1.268015479E1,-3.394779387E-1,1.349085383E0,6.875740886E-1,1.551784382E0
1.269020379E1,1.999445452E0,1.539450259E0,6.078052032E-1,2.595595574E0
1.270025279E1,3.052104483E0,1.770690681E0,4.067650652E-1,3.551921323E0
1.271030179E1,2.878225247E0,1.518096228E0,3.796386623E-1,3.276113893E0
1.272035079E1,3.082497433E0,9.727112210E-1,5.554796398E-2,3.232807313E0
1.273039979E1,3.370991744E0,6.425113517E-1,-6.054177850E-1,3.484671702E0
1.274044879E1,3.500045933E0,-5.071909940E-1,-1.040094607E0,3.686375053E0
1.275049779E1,4.808141750E0,-5.791474146E-1,-7.694913872E-1,4.903647195E0
1.276054679E1,5.949695123E0,-2.295043838E-1,-6.712064163E-1,5.991832973E0
1.277059579E1,3.421767211E0,6.452583736E-1,-2.895355542E-1,3.494092164E0
1.278064479E1,5.313065194E-1,1.419430895E0,-1.934260400E-1,1.527901933E0
1.279069379E1,-4.740393278E-1,2.210358029E0,-3.184523745E-1,2.282938417E0
1.280074279E1,-1.290836444E0,2.842570095E0,-7.837492378E-1,3.218808217E0
1.281079079E1,-2.509631975E0,2.898429131E0,-1.011352692E0,3.965094998E0
1.282083979E1,-3.228251855E0,2.764460649E0,-7.832868692E-1,4.321734726E0
1.283088879E1,-2.121946667E0,1.994371823E0,-6.532925941E-1,2.984454362E0
1.284093792E1,-1.063980702E0,7.907827073E-1,-1.059884582E0,1.697276510E0
1.285098692E1,-9.795267355E-1,2.302861565E-1,-1.068073169E0,1.467407453E0
1.286103592E1,-9.817125709E-1,-5.768862963E-2,-9.885562983E-1,1.394392737E0
1.287108492E1,-1.097592398E0,-4.624328971E-1,-1.202678120E0,1.692627519E0
1.288113392E1,-1.053240537E0,-9.308486652E-1,-1.198988526E0,1.847530339E0
1.289118292E1,-5.773011562E-1,-1.264723510E0,-1.142820173E0,1.799677785E0
1.290123192E1,-3.979253908E-1,-1.552173216E0,-1.684728133E0,2.325058105E0
1.291128092E1,2.896315947E-2,-1.813150823E0,-2.198464208E0,2.849842038E0
1.292132992E1,6.409441517E-1,-1.768271104E0,-1.690831456E0,2.529130901E0
1.293137892E1,1.209046907E0,-1.042891842E0,-1.079562655E0,1.927400670E0
1.294142792E1,9.127934866E-1,-1.087585620E0,-1.867028822E0,2.345598229E0
1.295147692E1,7.324511763E-1,-1.092789642E0,-1.793691289E0,2.224410566E0
1.296152492E1,6.523849601E-1,-8.909396642E-1,-1.415144594E0,1.794996892E0
1.297157392E1,7.026688220E-1,-9.517711723E-1,-1.496451297E0,1.907610632E0
1.298162292E1,8.280123679E-1,-1.119724841E0,-1.255129690E0,1.874763649E0
1.299167192E1,7.250984488E-1,-1.426936966E0,-1.306031749E0,2.065825694E0
1.300172092E1,6.108793768E-1,-1.769648123E0,-1.768343024E0,2.575240793E0
1.301176992E1,9.398042607E-1,-1.982740542E0,-1.687915742E0,2.768312059E0
1.302181892E1,1.161433468E0,-2.296904422E0,-1.563913840E0,3.011731084E0
1.303186792E1,1.608996896E0,-2.704284030E0,-1.372945531E0,3.433220435E0
1.304191692E1,1.715585205E0,-3.203198875E0,-1.660024816E0,3.994921528E0
1.305196592E1,1.875600840E0,-3.200298656E0,-1.616325942E0,4.046269831E0
1.306201492E1,1.810039958E0,-3.227381204E0,-1.467343858E0,3.980619560E0
1.307206392E1,1.607865606E0,-3.416403560E0,-1.383502971E0,4.021333804E0
1.308211292E1,1.002749830E0,-3.622516158E0,-1.317213380E0,3.982860984E0
1.309216192E1,6.338225354E-1,-3.739589109E0,-1.046295506E0,3.934589178E0
1.310220992E1,4.848424973E-1,-3.567011463E0,-7.515981764E-1,3.677436994E0
1.311225892E1,-1.916307986E-2,-3.220438805E0,-8.177874881E-1,3.322705178E0
1.312230792E1,-5.286279099E-1,-2.582980033E0,-6.076414812E-1,2.705635135E0
1.313235692E1,-9.232674578E-1,-2.137857233E0,-3.164121348E-1,2.350100633E0
1.314240592E1,-1.226475556E0,-1.746774400E0,-1.248237285E-1,2.138000013E0
1.315245492E1,-9.924479127E-1,-1.320866135E0,-1.076568881E-1,1.655666093E0
1.316250392E1,-1.634515315E0,-5.547288573E-1,5.155858415E-1,1.801441972E0
1.317255292E1,-2.575271063E0,6.091255045E-1,1.279476619E0,2.939407313E0
1.318260192E1,-3.046126582E0,1.592865744E0,2.069717290E0,4.012460354E0
1.319265092E1,-2.778829890E0,2.847739618E0,3.191628112E0,5.100784890E0
1.320269992E1,-2.532064233E0,4.081530188E0,4.398121247E0,6.512580783E0
1.321274892E1,-2.822826387E0,5.003648375E0,5.290972366E0,7.810200667E0
1.322279792E1,-2.327619554E0,5.380856935E0,5.257087752E0,7.874541623E0
1.323284692E1,-2.013050315E0,5.664534017E0,4.818767018E0,7.704533261E0
1.324289592E1,-2.108230999E0,5.570651123E0,4.088212678E0,7.224283686E0
1.325294492E1,-2.040326699E0,4.463515338E0,3.172366799E0,5.843784160E0
1.326299292E1,-1.754705856E0,2.511106642E0,2.607778659E0,4.023078267E0
1.327304192E1,-1.439754501E0,-9.401153326E-2,2.989774919E0,3.319711622E0
1.328309092E1,-1.126232207E-1,-1.961165485E0,2.659451088E0,3.306287063E0
1.329313992E1,1.066189927E0,-2.461021732E0,1.749198071E0,3.202043538E0
1.330318892E1,2.536519226E0,-2.319345451E0,1.390851460E0,3.707797310E0
1.331323792E1,4.137953772E0,1.430416059E-1,8.148767442E-1,4.219851470E0
1.332328692E1,4.773780295E0,3.932532608E0,2.752518296E-2,6.185026164E0
1.333333592E1,4.705190993E0,4.847245882E0,-1.655340904E-1,6.757367568E0
1.334338492E1,4.929056030E0,4.063309679E0,-2.801401019E-3,6.387964209E0
1.335343392E1,3.819799167E0,1.298239750E0,1.809713244E-2,4.034429282E0
1.336348292E1,2.532948039E0,-2.196290213E0,3.743258822E-1,3.373371657E0
1.337353192E1,2.788463470E0,-3.361066681E0,1.200950267E0,4.529302297E0
1.338358092E1,2.423601891E0,-1.965740932E0,8.688675946E-1,3.239276838E0
1.339362992E1,1.762356499E0,9.218468767E-1,4.975395799E-1,2.050182364E0
1.340367892E1,8.163916115E-1,3.168475184E0,-3.798734280E-1,3.293938991E0
1.341372692E1,5.137242343E-1,4.015389993E0,-2.293850129E0,4.652850502E0
1.342377592E1,1.010581736E0,3.450294022E0,-3.291960485E0,4.874711081E0
1.343382492E1,1.988174652E0,1.927700116E0,-3.373037978E0,4.364201116E0
1.344387392E1,3.094282789E0,1.902947098E-1,-3.825499033E0,4.923945664E0
1.345392292E1,3.159873930E0,-1.184168758E0,-3.681167531E0,4.993801488E0
1.346397192E1,2.305582713E0,-2.470553278E0,-3.747825205E0,5.046339160E0
1.347402092E1,1.982258146E0,-2.908751221E0,-3.756693969E0,5.148099708E0
1.348406992E1,1.125634621E0,-2.837204105E0,-4.212054659E0,5.201748253E0
1.349411892E1,-7.808459491E-2,-2.494886466E0,-5.206821578E0,5.774213940E0
1.350416792E1,-4.994149281E-1,-1.407915389E0,-5.624402238E0,5.819410756E0
1.351421692E1,-6.575398654E-1,3.012117130E-1,-5.758985846E0,5.804223044E0
1.352426592E1,-1.438927559E0,1.798079624E0,-3.835401585E0,4.473690666E0
1.353431492E1,-2.336257645E0,2.717012249E0,-1.534302663E0,3.897991791E0
1.354436392E1,-2.658165870E0,2.559132748E0,-1.162994529E0,3.868793415E0
1.355441292E1,-3.117273163E0,1.938440866E0,-1.143300229E0,3.844747116E0
1.356446092E1,-2.484078180E0,1.253537201E0,-7.586545962E-1,2.884017461E0
1.357450992E1,-3.820278347E-2,6.682817852E-1,-1.016294612E0,1.216928402E0
1.358455892E1,1.312183312E0,7.968176186E-2,-5.234392369E-1,1.414978043E0
1.359460792E1,2.013585774E0,-1.610907912E-1,-2.350700560E-1,2.033650865E0
1.360465692E1,2.439824260E0,-2.091221595E-1,3.319581270E-2,2.448994989E0
1.361470592E1,1.940885587E0,-1.863835073E-1,-2.113996500E-1,1.961240803E0
1.362475492E1,1.295423146E0,-2.816445905E-1,-5.527413887E-1,1.436303535E0
1.363480392E1,6.505580706E-1,-1.686553341E-1,-8.180305861E-1,1.058699421E0
1.364485292E1,-4.229451149E-1,-3.156327009E-1,-8.135530807E-1,9.697294402E-1
1.365490192E1,-9.436801607E-1,-6.184880662E-1,-3.242615832E-1,1.173969892E0
1.366495092E1,-8.298989721E-1,-5.497329962E-1,2.356439602E-1,1.022969573E0
1.367499992E1,-7.065897455E-1,-6.353578681E-1,-3.032950759E-2,9.507200261E-1
1.368504892E1,-6.696017211E-1,-9.818667912E-1,-3.164524806E-1,1.229866266E0
1.369509792E1,-9.820702013E-1,-1.637157817E0,-6.298527145E-1,2.010338788E0
1.370514692E1,-5.899060721E-1,-1.563740178E0,-5.351852699E-1,1.754906206E0
1.371519492E1,-1.499821047E-1,-1.125689000E0,-3.715059163E-1,1.194858570E0
1.372524392E1,2.689893886E-1,-7.934203863E-1,-1.346638615E-1,8.485314114E-1
1.373529292E1,4.058939762E-1,-5.977351284E-1,2.072655223E-2,7.228186451E-1
1.374534192E1,-3.227866962E-1,-2.738344646E-1,1.272963698E-1,4.420191523E-1
1.375539092E1,-1.093392709E0,-1.619819069E-1,2.192659092E-1,1.126864363E0
1.376543992E1,-1.297593925E0,-9.828701735E-2,6.386369866E-1,1.449574949E0
1.377548892E1,-1.025942810E0,-2.092847121E-1,8.583782744E-1,1.353946824E0
1.378553792E1,-9.886324583E-1,-2.349522346E-1,8.559025633E-1,1.328595457E0
1.379558692E1,-1.326344099E0,-2.575476301E-1,8.034735042E-1,1.571969823E0
1.380563592E1,-1.338198598E0,-3.751830840E-1,6.601400491E-1,1.538610646E0
1.381568492E1,-1.010973354E0,-5.933046931E-1,8.396016224E-1,1.441876716E0
1.382573392E1,-8.110394358E-1,-9.228198534E-1,1.078671466E0,1.634904762E0
1.383578292E1,-9.269669911E-1,-1.071964783E0,1.035319186E0,1.755067553E0
1.384583179E1,-1.377042236E0,-6.749324083E-1,8.563200545E-1,1.756434773E0
1.385588079E1,-1.776094240E0,-3.730207837E-1,8.600599337E-1,2.008322270E0
1.386592979E1,-2.013215937E0,-3.820371902E-1,9.586241090E-1,2.262288887E0
1.387597779E1,-2.147332646E0,-4.344639105E-1,8.592202735E-1,2.353307430E0
1.388602679E1,-2.131407169E0,-4.271046048E-1,5.311136709E-1,2.237721295E0
1.389607579E1,-2.099275842E0,-3.453219384E-1,3.056316233E-1,2.149329428E0
1.390612479E1,-2.044330726E0,-1.734208149E-1,3.110157394E-1,2.075112933E0
1.391617379E1,-1.912884880E0,1.730249584E-2,2.986956195E-1,1.936142302E0
1.392622279E1,-1.852760592E0,3.579408145E-1,1.674443758E-1,1.894434232E0
1.393627179E1,-1.818500440E0,6.958297724E-1,3.456247876E-1,1.977518500E0
1.394632079E1,-1.821738336E0,8.667976803E-1,3.029840040E-1,2.040065707E0
1.395636979E1,-2.128560306E0,9.027036774E-1,-6.860300582E-2,2.313082203E0
1.396641879E1,-2.281814659E0,9.786870754E-1,-3.883030665E-1,2.513023239E0
1.397646779E1,-1.791914612E0,1.429103944E0,-3.635213971E-3,2.292009877E0
1.398651679E1,-1.711530892E0,1.682846206E0,4.154978818E-1,2.435969589E0
1.399656579E1,-2.193791844E0,2.181024887E0,-1.305087205E-1,3.096227501E0
1.400661479E1,-2.332705754E0,2.969458768E0,-8.295368832E-1,3.866178080E0
1.401666379E1,-2.425027296E0,3.725821840E0,-7.839625150E-1,4.514100464E0
1.402671179E1,-2.906847367E0,4.386998089E0,-1.814940655E-1,5.265781418E0
1.403676079E1,-3.121744237E0,4.665571722E0,3.035926992E-1,5.621833784E0
1.404680979E1,-3.131211464E0,4.035869281E0,4.428078872E-1,5.127260956E0
1.405685879E1,-3.230815859E0,2.554951404E0,3.026584603E-1,4.130078684E0
1.406690779E1,-3.933626037E0,6.364097822E-1,-7.670596763E-2,3.985513144E0
1.407695679E1,-7.583796309E-1,1.348623453E0,8.027608748E-1,1.743086316E0
1.408700579E1,2.326390176E0,2.506224802E0,9.753550395E-1,3.555920621E0
1.409705479E1,1.313224117E0,8.911583501E-1,-2.566652852E-1,1.607668453E0
1.410710379E1,7.704577857E-1,-4.735788596E-1,-1.758119168E0,1.977085012E0
1.411715279E1,1.725346109E0,-1.216581044E0,-2.504615064E0,3.275665619E0
1.412720179E1,1.110577310E0,-1.086348349E0,-2.947334073E0,3.331713198E0
1.413725079E1,-8.360460768E-1,-1.743756652E-2,-3.176789340E0,3.285006488E0
1.414729979E1,-2.267830019E0,1.214628659E0,-3.523541508E0,4.362765239E0
1.415734879E1,-3.788553986E0,1.681289678E0,-3.568169504E0,5.469159889E0
1.416739779E1,-5.619463094E0,1.924466021E0,-4.325067889E0,7.347662702E0
1.417744579E1,-7.291856818E0,1.902002773E0,-5.502036386E0,9.330658862E0
1.418749479E1,-8.316908221E0,1.226008510E0,-5.951150495E0,1.030001221E1
1.419754379E1,-6.582124706E0,8.417984945E-1,-5.387039196E0,8.547115399E0
1.420759279E1,-3.184829847E0,2.410690069E-1,-5.267978191E0,6.160588416E0
1.421764179E1,-1.513526921E0,-5.106104457E-1,-4.992372605E0,5.241685892E0
1.422769079E1,-9.283307811E-1,-3.330556494E-1,-4.506831804E0,4.613486427E0
1.423773979E1,8.637199983E-2,-4.444234729E-2,-4.064742832E0,4.065903286E0
1.424778879E1,9.266543113E-1,-2.582598209E-2,-3.268901113E0,3.397803656E0
1.425783779E1,6.606046835E-1,3.098579907E-1,-1.962164190E0,2.093441862E0
1.426788679E1,3.183414236E-2,3.772898358E-1,-1.304946506E0,1.358766505E0
1.427793579E1,-4.936896269E-1,4.088975447E-1,-1.758598639E0,1.871789471E0
1.428798479E1,-1.192949961E0,5.596644920E-1,-2.560650685E0,2.879806571E0
1.429803379E1,-1.929617564E0,2.337518013E-1,-3.319761364E0,3.846931162E0
1.430808279E1,-2.229973537E0,2.629510421E-1,-4.212546995E0,4.773623090E0
1.431813179E1,-2.872040647E0,8.114648938E-1,-5.343107311E0,6.120121607E0
1.432818079E1,-2.696471857E0,9.640848237E-1,-5.274155189E0,6.001427579E0
1.433822879E1,-1.782875694E0,7.848337501E-1,-5.127264361E0,5.484838155E0
1.434827779E1,-9.234460902E-1,6.460202658E-1,-5.123578277E0,5.246060353E0
1.435832679E1,-4.099645154E-1,7.586306226E-1,-4.842078989E0,4.918263948E0
1.436837579E1,-3.169034471E-1,7.164967561E-1,-4.520887341E0,4.588269580E0
1.437842479E1,-1.975886728E-1,8.236879134E-1,-3.923606833E0,4.013999707E0
1.438847379E1,-1.821961699E-1,9.946464658E-1,-3.001672833E0,3.167421164E0
1.439852279E1,-3.432463230E-1,1.069048777E0,-2.135384445E0,2.412581616E0
1.440857179E1,-5.794837756E-1,1.219664866E0,-1.886349192E0,2.319848509E0
1.441862079E1,-9.329315896E-1,1.154366085E0,-1.915549894E0,2.423273366E0
1.442866979E1,-1.033163537E0,8.828494567E-1,-2.456404186E0,2.807271199E0
1.443871879E1,-8.548667291E-1,7.027230549E-1,-2.726987891E0,2.942971249E0
1.444876779E1,-5.409767908E-1,5.174084187E-1,-3.225292287E0,3.311023663E0
1.445881679E1,-3.020978585E-2,3.397056878E-1,-3.861154477E0,3.876187106E0
1.446886579E1,4.393969139E-1,1.776670629E-1,-4.278700931E0,4.304871298E0
1.447891479E1,9.102208579E-1,4.994574666E-2,-4.018737231E0,4.120830683E0
1.448896279E1,1.378150138E0,-1.706585902E-1,-3.506334321E0,3.771313104E0
1.449901179E1,1.508347457E0,-4.995334804E-1,-3.111142650E0,3.493401543E0
1.450906079E1,1.364302908E0,-6.486386490E-1,-2.645037702E0,3.046026750E0
1.451910979E1,8.654466811E-1,-7.205827904E-1,-2.253235661E0,2.518989572E0
1.452915879E1,3.371431455E-1,-7.367912722E-1,-1.922362193E0,2.086145556E0
1.453920779E1,1.898131916E-1,-5.994553792E-1,-1.625202893E0,1.742601573E0
1.454925679E1,-8.153211325E-3,-5.818920976E-1,-1.542834043E0,1.648939590E0
1.455930579E1,-5.955272198E-2,-6.435679436E-1,-1.642937790E0,1.765494494E0
1.456935479E1,-3.853402823E-2,-5.970434028E-1,-1.398076279E0,1.520711340E0
1.457940379E1,-5.220920384E-2,-5.218142956E-1,-1.518757255E0,1.606748132E0
1.458945279E1,-1.148115411E-1,-2.912655991E-1,-1.628760923E0,1.658577549E0
1.459950179E1,-2.659796074E-2,-2.268193424E-2,-1.581741416E0,1.582127627E0
1.460955079E1,4.164249578E-1,1.245240587E-1,-1.337148877E0,1.406016751E0
1.461959979E1,4.169864367E-1,1.774284965E-1,-1.137099403E0,1.224072552E0
1.462964879E1,2.688257396E-1,1.116742176E-1,-1.379796714E0,1.410169274E0
1.463969779E1,2.977557161E-1,2.182841617E-1,-1.872548593E0,1.908597568E0
1.464974679E1,2.291462418E-1,6.369588357E-1,-1.846029424E0,1.966227147E0
1.465979479E1,1.864282385E-1,7.908850336E-1,-1.577733150E0,1.774682089E0
1.466984379E1,1.705428153E-2,5.589897233E-1,-1.370159479E0,1.479897752E0
1.467989279E1,-2.492377134E-1,1.102656233E-1,-9.003314620E-1,9.406777806E-1
1.468994179E1,-4.544514477E-1,-3.953080308E-1,-4.727590799E-1,7.656994876E-1
1.469999079E1,-2.543157278E-1,-6.013896382E-1,-4.031965095E-1,7.674069400E-1
1.471003979E1,8.947400621E-1,-4.237746155E-1,-7.177037676E-1,1.222801456E0
1.472008879E1,1.831406999E0,5.878030479E-2,-1.040785821E0,2.107306776E0
1.473013779E1,2.678777305E0,5.677599621E-1,-1.319475814E0,3.039607812E0
1.474018679E1,3.235526960E0,1.103952561E0,-1.515247610E0,3.739427936E0
1.475023579E1,3.032277744E0,1.530706918E0,-1.278770860E0,3.629466476E0
1.476028479E1,2.557440272E0,1.977797306E0,-3.424031545E-1,3.251064879E0
1.477033379E1,2.388965909E0,2.515350552E0,4.054843788E-1,3.492644284E0
1.478038279E1,1.885765347E0,2.800118725E0,3.852512585E-1,3.397822001E0
1.479043179E1,1.008973898E0,2.514445403E0,3.843133651E-1,2.736450397E0
1.480047979E1,3.407175119E-1,1.807676075E0,6.682032864E-1,1.957109308E0
1.481052879E1,-7.447200966E-1,1.130069734E0,-1.246848571E-1,1.359121753E0
1.482057779E1,-1.677560031E0,1.164019838E0,-1.762555450E0,2.697360109E0
1.483062679E1,-3.043379560E0,2.019760433E0,-2.423675420E0,4.383582313E0
1.484067608E1,-4.501793258E0,2.246316066E0,-2.252595245E0,5.512373694E0
1.485072508E1,-5.185373991E0,1.197571746E0,-2.065838101E0,5.708762437E0
1.486077408E1,-4.719396804E0,-1.805772221E-1,-1.505324301E0,4.956946194E0
1.487082308E1,-4.116903504E0,-1.492405316E0,-8.382709423E-1,4.458572222E0
1.488087208E1,-3.136184228E0,-2.851330394E0,-2.158090353E-2,4.238655714E0
1.489092108E1,-1.852886600E0,-3.395085781E0,5.677821815E-2,3.868206300E0
1.490097008E1,-8.564226732E-1,-2.343689164E0,-6.873659277E-1,2.588206060E0
1.491101908E1,-2.366024285E-1,-1.503714416E0,-1.242571333E0,1.964973606E0
1.492106808E1,-7.260288505E-2,-7.248477495E-1,-1.291856344E0,1.483094148E0
1.493111708E1,3.468628259E-1,3.256647688E-1,-9.061601128E-1,1.023473259E0
1.494116608E1,2.459572609E-1,1.043052056E0,-1.200588252E0,1.609305662E0
1.495121508E1,8.146180049E-2,1.774681406E0,-1.341957627E0,2.226427720E0
1.496126308E1,3.881769859E-1,2.112568025E0,-1.554873460E0,2.651651657E0
1.497131208E1,-8.142346468E-2,1.190583739E0,-2.157935987E0,2.465929265E0
1.498136108E1,-2.058041935E-1,1.639717144E-1,-1.210991691E0,1.239250969E0
1.499141008E1,-6.640590723E-1,-5.571987212E-1,-3.415931324E-1,9.317353350E-1
1.500145908E1,-7.319939972E-1,-9.114277232E-1,-4.732619039E-1,1.261147309E0
1.501150808E1,-8.908290057E-1,-7.095853472E-1,-4.824180955E-1,1.236856864E0
1.502155708E1,-1.579165717E0,-2.778819072E-1,-3.912407076E-1,1.650470239E0
1.503160608E1,-1.930725758E0,9.910504282E-2,-7.504667401E-1,2.073818721E0
1.504165508E1,-1.253248641E0,1.613603479E-1,-8.296403790E-1,1.511612542E0
1.505170408E1,-5.357109345E-2,2.190852302E-1,-3.276697791E-1,3.977884919E-1
1.506175308E1,5.653497032E-1,-3.823190260E-1,2.514414193E-2,6.829497437E-1
1.507180208E1,5.676737522E-1,-8.442993486E-1,-6.673661113E-2,1.019582588E0
1.508185108E1,7.293987105E-1,-9.403609157E-1,-1.896684730E-1,1.205103838E0
1.509190008E1,5.811468700E-1,-1.138693208E0,-5.236414775E-1,1.381504362E0
1.510194908E1,1.137497306E0,-1.173555477E0,-5.906822169E-1,1.737825671E0
1.511199808E1,1.726116187E0,-9.241471714E-1,-1.827196419E-1,1.966446428E0
1.512204608E1,1.224631052E0,-4.307567757E-1,3.895906234E-1,1.355379455E0
1.513209508E1,5.350486643E-1,-1.655738515E-1,7.976011455E-1,9.746072854E-1
1.514214408E1,3.940173311E-1,-2.684082484E-1,8.264619056E-1,9.541131623E-1
1.515219308E1,2.601871363E-1,-1.583601415E-1,7.882898931E-1,8.450894840E-1
1.516224208E1,1.587411973E-1,1.209227586E-1,9.107305889E-1,9.323364665E-1
1.517229108E1,2.996562805E-2,2.616541296E-1,1.094364735E0,1.125608723E0
1.518234008E1,-3.921909167E-1,2.257493019E-1,1.082448402E0,1.173231011E0
1.519238908E1,-8.284028158E-1,5.241268694E-2,9.541626835E-1,1.264683653E0
1.520243808E1,-1.052778826E0,-7.419531941E-3,6.838820104E-1,1.255425390E0
1.521248708E1,-1.339865932E0,1.518089211E-1,4.343500359E-1,1.416667434E0
1.522253608E1,-1.450388394E0,2.231689256E-1,4.300403456E-1,1.529171528E0
1.523258508E1,-1.330255302E0,1.098487169E-1,7.619285984E-1,1.536938873E0
1.524263408E1,-1.272670022E0,-1.496249861E-1,1.091599295E0,1.683349530E0
1.525268308E1,-1.331933599E0,-2.993663317E-1,1.209730446E0,1.824038121E0
1.526273208E1,-1.610879553E0,-2.005366927E-1,1.239069582E0,2.042165843E0
1.527278008E1,-2.070601827E0,4.366408288E-2,1.309469912E0,2.450308130E0
1.528282908E1,-2.789039713E0,3.049638712E-1,1.348138719E0,3.112751755E0
1.529287808E1,-3.311243433E0,4.356713605E-1,1.222705564E0,3.556564565E0
1.530292708E1,-3.530221075E0,4.738659579E-1,1.020051448E0,3.705066091E0
1.531297608E1,-3.596903014E0,6.088571173E-1,9.229233491E-1,3.763004889E0
1.532302508E1,-3.608628143E0,7.720798033E-1,9.437463073E-1,3.809063060E0
1.533307408E1,-2.986846633E0,1.039594012E0,1.061477802E0,3.335977165E0
1.534312308E1,-2.121237984E0,1.183540183E0,1.090831848E0,2.662767746E0
1.535317208E1,-1.690205512E0,1.129448760E0,1.184008399E0,2.352514625E0
1.536322108E1,-1.797530717E0,9.991429746E-1,1.420894307E0,2.499668777E0
1.537327008E1,-2.008962380E0,7.754530621E-1,1.503409338E0,2.626308613E0
1.538331908E1,-2.263130466E0,8.811356378E-1,1.455145981E0,2.831185148E0
1.539336808E1,-2.476860377E0,1.096032507E0,1.777635712E0,3.239770564E0
1.540341708E1,-2.484908485E0,1.316743848E0,2.124579668E0,3.524545830E0
1.541346608E1,-2.691894949E0,1.427445089E0,1.920364784E0,3.601624467E0
1.542351508E1,-2.580233011E0,1.729451439E0,1.631777941E0,3.508746773E0
1.543356308E1,-2.685928158E0,2.156550781E0,2.243806003E0,4.110910692E0
1.544361208E1,-2.845474992E0,1.993074326E0,2.803992505E0,4.464464936E0
1.545366108E1,-2.911612556E0,1.510200148E0,2.665200655E0,4.226285212E0
1.546371008E1,-3.037045564E0,1.248650098E0,1.894558682E0,3.791058616E0
1.547375908E1,-3.318286697E0,1.124918922E0,1.239477571E0,3.716554027E0
1.548380808E1,-3.183900139E0,1.324727052E0,1.084766238E0,3.615085013E0
1.549385708E1,-2.652310176E0,1.842198620E0,1.021609293E0,3.387053376E0
1.550390608E1,-2.014595588E0,2.344752188E0,1.047938135E0,3.264143462E0
1.551395508E1,-1.039613893E0,2.372321225E0,9.849448387E-1,2.771068634E0
1.552400408E1,-1.237161928E-1,1.401046080E0,9.369029454E-1,1.689977202E0
1.553405308E1,1.421153924E0,-2.315514940E-1,4.526832497E-1,1.509376260E0
1.554410208E1,2.537024718E0,-7.942682326E-1,-4.010722526E-1,2.688534061E0
1.555415108E1,2.092005706E0,-1.398770928E0,-8.594869065E-1,2.659279175E0
1.556420008E1,1.752850973E0,-1.154703469E0,-1.316787702E0,2.477853201E0
1.557424908E1,1.951680132E0,3.916102517E-1,-1.639357540E0,2.578741374E0
1.558429808E1,1.155316111E0,2.158182739E0,-6.849861109E-1,2.541990170E0
1.559434608E1,-3.160311156E-1,3.200015650E0,5.802040064E-1,3.267508610E0
1.560439508E1,-1.161101858E0,3.481846767E0,6.602869604E-1,3.729261764E0
1.561444408E1,-1.236394042E0,3.196770446E0,1.401671147E-1,3.430402065E0
1.562449308E1,-8.355136147E-1,2.678161594E0,-5.225411046E-1,2.853713673E0
1.563454208E1,-3.479482153E-1,2.295747258E0,-9.235520710E-1,2.498894128E0
1.564459108E1,3.883951601E-1,2.094287875E0,-1.088515912E0,2.392019940E0
1.565464008E1,1.050866056E0,1.878808622E0,-1.288792988E0,2.509029428E0
1.566468908E1,1.397215277E0,1.576544411E0,-1.435861718E0,2.549392414E0
1.567473808E1,1.560212553E0,1.462169949E0,-1.211629037E0,2.457691822E0
1.568478708E1,1.424377348E0,1.239420269E0,-9.358696693E-1,2.107336107E0
1.569483608E1,1.042814440E0,7.743257189E-1,-9.710625985E-1,1.621728968E0
1.570488508E1,6.638111503E-1,5.530939758E-1,-1.400849321E0,1.645884871E0
1.571493408E1,8.128337270E-1,-2.902826822E-1,-1.813421841E0,2.008347947E0
1.572498308E1,5.544126691E-1,-8.398770994E-1,-2.227238356E0,2.444045344E0
1.573503208E1,9.785958588E-1,-9.170591766E-1,-1.933220765E0,2.352868444E0
1.574508008E1,1.342874909E0,-9.247541124E-1,-1.963312583E0,2.552073566E0
1.575512908E1,1.548651292E0,-1.047832155E0,-2.351817378E0,3.004549555E0
1.576517808E1,1.467077225E0,-1.812424598E0,-2.834339262E0,3.670242166E0
1.577522708E1,1.519832412E0,-1.870332499E0,-2.761715966E0,3.665393471E0
1.578527608E1,9.942127486E-1,-1.839572051E0,-1.709542547E0,2.700929477E0
1.579532508E1,4.923320496E-1,-1.820501942E0,-1.354721806E0,2.322044216E0
1.580537408E1,-2.937889650E-2,-1.675185184E0,-1.201376822E0,2.061653412E0
1.581542308E1,-3.633449574E-1,-1.702344916E0,-1.486154935E0,2.288810666E0
1.582547208E1,-1.788922007E-1,-1.861698500E0,-1.904019477E0,2.668934974E0
1.583552108E1,7.424300346E-1,-1.922582633E0,-2.203966438E0,3.017448325E0
1.584556904E1,1.524633999E0,-2.440322004E0,-2.141273761E0,3.586744155E0
1.585561804E1,1.751745410E0,-2.956018943E0,-1.759106762E0,3.860196442E0
1.586566704E1,1.759500865E0,-3.126226128E0,-1.463021888E0,3.874218133E0
1.587571604E1,1.778673739E0,-3.304885463E0,-1.262968760E0,3.959929075E0
1.588576504E1,1.561789400E0,-3.523323407E0,-1.391875892E0,4.097598377E0
1.589581404E1,1.156218775E0,-3.615320574E0,-1.853646299E0,4.224143619E0
1.590586204E1,7.763571878E-1,-3.405206727E0,-2.001225637E0,4.025303390E0
1.591591104E1,3.855857192E-1,-3.022878345E0,-1.808712493E0,3.543714255E0
1.592596004E1,7.395660684E-2,-2.652146747E0,-1.409449406E0,3.004313494E0
1.593600904E1,-1.544867997E-1,-2.343789736E0,-8.084167403E-1,2.484100264E0
1.594605804E1,-6.492125532E-1,-1.756590706E0,-7.126264840E-2,1.874077429E0
1.595610704E1,-8.062610181E-1,-9.859797227E-1,6.808594385E-1,1.444223812E0
1.596615604E1,-3.112157873E-1,-3.006334233E-1,1.190230567E0,1.266445626E0
1.597620504E1,-3.598250797E-1,3.805818182E-1,1.752330424E0,1.828928245E0
1.598625404E1,-5.771532948E-1,1.315671469E0,2.417646209E0,2.812314089E0
1.599630304E1,-6.236662873E-1,2.109442104E0,3.113942005E0,3.812524155E0
1.600635204E1,-4.643761461E-1,2.736152524E0,3.682985138E0,4.611567561E0
1.601640104E1,2.662481408E-1,3.347620423E0,4.000945031E0,5.223505692E0
1.602645004E1,1.180989627E0,3.583354431E0,3.863789817E0,5.400373804E0
1.603649904E1,1.248439745E0,2.921645501E0,3.323639238E0,4.597955199E0
1.604654804E1,9.702789985E-1,2.190200338E0,2.570523709E0,3.513689086E0
1.605659704E1,9.703523811E-1,1.600399881E0,2.165442642E0,2.862167947E0
1.606664504E1,1.283087129E0,1.019994730E0,2.027319714E0,2.607053327E0
1.607669404E1,1.568606523E0,3.852882421E-1,1.834025675E0,2.443895176E0
1.608674304E1,1.687093039E0,-3.245789409E-1,1.928195960E0,2.582551853E0
1.609679204E1,1.601471529E0,-9.041099328E-1,1.931578282E0,2.667043398E0
1.610684104E1,1.054919784E0,-1.189197364E0,1.897366223E0,2.475286793E0
1.611689004E1,5.169692197E-1,-1.612141675E0,1.846030593E0,2.504812748E0
1.612693904E1,1.735810286E-1,-1.906670020E0,1.631933330E0,2.515696193E0
1.613698804E1,-1.134764025E-1,-1.820278578E0,1.977384492E0,2.690044689E0
1.614703704E1,2.356180863E-1,-1.045469880E0,3.009833792E0,3.194937027E0
1.615708604E1,3.316774607E-1,9.045455503E-1,3.475676200E0,3.606735039E0
1.616713504E1,-1.274495669E-1,2.839493290E0,2.876266137E0,4.043744852E0
1.617718404E1,-1.321133792E-1,4.035009155E0,1.636204429E0,4.356135645E0
1.618723304E1,1.352114825E0,5.401628584E0,6.307692656E-1,5.603898261E0
1.619728204E1,2.591952000E0,4.515542693E0,4.929521468E-1,5.229851126E0
1.620733104E1,2.121185359E0,1.836056705E0,9.253745019E-1,2.954124155E0
1.621738004E1,1.007786329E0,1.463904818E0,4.985578725E-1,1.845863091E0
1.622742804E1,-3.065988989E-1,2.407731963E0,-7.875375026E-1,2.551742818E0
1.623747704E1,-1.276162271E0,2.306796157E0,-2.154850411E0,3.404890445E0
1.624752604E1,-1.623772518E0,2.360064876E-1,-3.321153587E0,3.704375439E0
1.625757504E1,-1.781447658E0,-2.146523976E0,-3.862324505E0,4.764312282E0
1.626762404E1,-4.657393514E-1,-3.275254113E0,-4.088763193E0,5.259485441E0
1.627767304E1,1.235458926E0,-3.772223005E0,-4.058314403E0,5.676789669E0
1.628772204E1,2.253734283E0,-3.898300669E0,-3.824680423E0,5.907981606E0
1.629777104E1,2.731701039E0,-3.538567098E0,-3.430928044E0,5.635149946E0
1.630782004E1,2.832574280E0,-2.568147401E0,-3.399225025E0,5.116012988E0
1.631786904E1,3.038104495E0,-1.317840786E0,-3.848572438E0,5.077232816E0
1.632791804E1,2.817480277E0,-5.995688152E-1,-4.843935188E0,5.635724087E0
1.633796704E1,2.400626865E0,1.169460672E-1,-5.203973399E0,5.732191977E0
1.634801604E1,2.022082655E0,8.231996709E-1,-4.745327159E0,5.223466838E0
1.635806504E1,1.803099459E0,1.426193785E0,-3.752458246E0,4.400697588E0
1.636811404E1,1.623707467E0,1.662691439E0,-2.616851783E0,3.499840284E0
1.637816304E1,1.150856074E0,1.660207542E0,-1.563205158E0,2.554284469E0
1.638821104E1,3.938052233E-1,1.244922498E0,-3.878234486E-1,1.362101908E0
1.639826004E1,-2.783144550E-1,7.801869678E-1,-1.875098272E-1,8.493000506E-1
1.640830904E1,-1.240941714E0,4.189220113E-1,-5.632056389E-1,1.425704240E0
1.641835804E1,-1.960284456E0,1.546658707E-1,-1.104023970E0,2.255106562E0
1.642840704E1,-1.641076914E0,-8.222997844E-2,-1.020495179E0,1.934245490E0
1.643845604E1,-2.144939234E-1,-1.158280796E-1,-4.545637143E-1,5.158022465E-1
1.644850504E1,2.542350362E-1,-3.522432876E-1,-1.164378711E-1,4.497427766E-1
1.645855404E1,4.684775294E-1,-5.759577584E-1,-6.153329086E-1,9.642785508E-1
1.646860304E1,6.197503339E-1,-7.874445319E-1,-1.009805957E0,1.422626950E0
1.647865204E1,7.559213883E-1,-7.935741681E-1,-8.394841665E-1,1.380547272E0
1.648870104E1,7.966008331E-1,-4.991072184E-1,-4.064826812E-1,1.024162620E0
1.649875004E1,4.193694694E-1,-3.901420158E-1,-3.280510541E-1,6.600750249E-1
