"Time (s)","Linear Acceleration x (m/s^2)","Linear Acceleration y (m/s^2)","Linear Acceleration z (m/s^2)","Absolute acceleration (m/s^2)"
3.597791663E-3,1.782970711E0,-2.193346140E0,1.550797366E0,3.224085036E0
1.362679167E-2,1.200032547E0,-1.650084842E0,2.798436481E0,3.463250617E0
2.365679167E-2,7.761579439E-1,-1.523733528E0,2.760905542E0,3.247581320E0
3.368679166E-2,5.779417187E-1,-1.595426824E0,2.426903229E0,2.961294086E0
4.371579167E-2,5.090030462E-1,-1.425309686E0,2.355314013E0,2.799659962E0
5.374579167E-2,4.126304072E-1,-1.414681202E0,2.032854103E0,2.510793214E0
6.377579166E-2,3.048173985E-1,-1.773597917E0,1.359806253E0,2.255578920E0
7.380479167E-2,5.770570350E-1,-2.155597685E0,5.231269956E-1,2.291998703E0
8.383479167E-2,1.156060023E0,-2.150407112E0,-2.101682264E-1,2.450488973E0
9.386479167E-2,1.517110387E0,-2.098748131E0,-6.124344438E-1,2.661098193E0
1.038937917E-1,1.419052581E0,-1.509815401E0,-4.674533165E-1,2.124091659E0
1.139237917E-1,2.478438833E-1,-1.816389595E0,4.054693222E-2,1.833668947E0
1.239527917E-1,-5.176189184E-2,-1.232098970E0,3.382813060E-1,1.278742119E0
1.339827917E-1,-5.080815250E-1,-7.946284211E-1,8.761532253E-1,1.287332761E0
1.440127917E-1,-8.925596353E-1,-1.979656720E-1,7.911832416E-1,1.209059151E0
1.540417917E-1,-1.721691599E0,-1.161757550E0,3.307383978E-1,2.103162014E0
1.640717917E-1,-1.084887422E0,-1.576125750E0,-3.788843715E-1,1.950565678E0
1.741017917E-1,-1.310463354E0,-9.886472225E-1,-1.767023892E0,2.411868771E0
1.841307917E-1,-1.441943553E0,-8.255829960E-1,-2.677064071E0,3.150787288E0
1.941607917E-1,-1.065829300E0,-1.068219641E0,-2.534886099E0,2.950039463E0
2.041907917E-1,-1.398496694E0,-1.296331803E0,-1.972085161E0,2.743244252E0
2.142197917E-1,-1.629835934E0,-8.006685948E-1,-1.335492361E0,2.254101865E0
2.242497917E-1,-1.482809451E0,-3.233989727E-1,-9.542650098E-1,1.792744397E0
2.342797917E-1,-1.687719276E0,-1.052358484E-1,-8.942105967E-1,1.912873109E0
2.443087917E-1,-2.195224265E0,3.704298824E-1,-9.028118509E-1,2.402352412E0
2.543387917E-1,-2.270968805E0,1.127348440E0,-1.257813855E0,2.830249019E0
2.643677917E-1,-2.293773238E0,1.546717764E0,-1.804482910E0,3.303012274E0
2.743977917E-1,-2.326338136E0,1.768168777E0,-2.190595025E0,3.651982545E0
2.844277917E-1,-2.288942268E0,2.005707235E0,-2.028419575E0,3.657404024E0
2.944567917E-1,-2.279688757E0,2.074336005E0,-1.319812467E0,3.352872745E0
3.044867917E-1,-2.518040271E0,1.598536958E0,-3.368797284E-1,3.001555457E0
3.145167917E-1,-3.365757025E0,4.607015365E-1,8.546600300E-1,3.503000146E0
3.245457917E-1,-4.359152186E0,-7.266147780E-1,2.613153419E0,5.134077094E0
3.345757917E-1,-5.065178626E0,-1.497452633E0,4.659140369E0,7.043151843E0
3.446057917E-1,-5.099549729E0,-1.473523487E0,5.449193344E0,7.607258836E0
3.546347917E-1,-4.448947292E0,-1.159773590E0,4.082348213E0,6.148477350E0
3.646647917E-1,-3.619076533E0,-1.085682936E0,1.552013587E0,4.084748286E0
3.746947917E-1,-2.549025251E0,-1.004855120E0,-7.602444541E-1,2.843454795E0
3.847237917E-1,-1.379043592E0,-6.664153540E-1,-2.383216342E0,2.832947367E0
3.947537917E-1,-6.102247810E-1,-4.216994387E-1,-3.466287326E0,3.544764100E0
4.047827917E-1,-1.758795691E-1,-3.671384847E-1,-3.640355428E0,3.663046810E0
4.148127917E-1,1.150694034E-1,-5.023530078E-1,-3.096166762E0,3.138765383E0
4.248427917E-1,1.842130208E-1,-6.277138031E-1,-2.123295327E0,2.221788041E0
4.348717917E-1,2.291985744E-1,-6.360548562E-1,-1.151620232E0,1.335412643E0
4.449017917E-1,3.939424136E-1,-6.657306451E-1,-4.540865815E-1,8.969852510E-1
4.549317917E-1,6.275635296E-1,-7.773773807E-1,1.934375882E-2,9.992626065E-1
4.649607917E-1,7.642661691E-1,-9.780286789E-1,9.545462608E-2,1.244891344E0
4.749907917E-1,1.040871629E0,-1.132257763E0,-6.445736647E-2,1.539342763E0
4.850207917E-1,1.367968381E0,-1.210644366E0,-2.224877250E-1,1.840244022E0
4.950497917E-1,1.610826636E0,-1.228802310E0,-4.189073932E-1,2.068864658E0
5.050797917E-1,1.717314373E0,-1.357166820E0,-5.543160439E-1,2.257949669E0
5.151087917E-1,1.538476698E0,-1.511691188E0,-2.068727356E-1,2.166775744E0
5.251387917E-1,1.272078430E0,-1.532338291E0,3.602147967E-1,2.023857423E0
5.351687917E-1,1.269733112E0,-1.382214537E0,7.837812513E-1,2.033974496E0
5.451977917E-1,1.439226936E0,-1.321251467E0,6.058118874E-1,2.045504255E0
5.552277917E-1,1.646552831E0,-1.346152419E0,-7.840882301E-2,2.128241177E0
5.652577917E-1,1.569778890E0,-1.221486273E0,-6.609201407E-1,2.095960379E0
5.752867917E-1,1.489800966E0,-1.285536089E0,-1.035472895E0,2.223581362E0
5.853167917E-1,1.419473580E0,-1.377563077E0,-9.170743793E-1,2.180277664E0
5.953467917E-1,1.335033647E0,-1.200090142E0,-6.062802494E-1,1.894757749E0
6.053757917E-1,1.350398667E0,-1.110531263E0,-6.174928701E-1,1.854225901E0
6.154057917E-1,1.071507531E0,-1.106638772E0,-1.002369468E0,1.837803665E0
6.254357917E-1,6.516102040E-1,-8.228652102E-1,-1.590326883E0,1.905477002E0
6.354647917E-1,4.973445752E-1,-4.553916800E-1,-2.034586049E0,2.143425669E0
6.454947917E-1,5.145695955E-1,-3.209864116E-1,-2.112343492E0,2.197682682E0
6.555237917E-1,6.489581993E-1,-4.222660339E-1,-2.094592515E0,2.233108405E0
6.655537917E-1,7.880190209E-1,-5.732557601E-1,-1.871414233E0,2.109925917E0
6.755837917E-1,8.576020566E-1,-5.663443512E-1,-1.483795291E0,1.804958636E0
6.856127917E-1,9.336895350E-1,-3.750866050E-1,-1.036930021E0,1.444884071E0
6.956422917E-1,5.501194972E-1,-1.006311661E-1,-7.261984563E-1,9.165818516E-1
7.056722917E-1,2.364412281E-1,3.101421654E-1,-5.577887052E-1,6.806033035E-1
7.157012917E-1,-1.609124511E-2,5.897823304E-1,-3.650615537E-1,6.938098179E-1
7.257312917E-1,6.721637517E-2,6.605084968E-1,-2.078843039E-1,6.957049656E-1
7.357612917E-1,4.545040727E-1,7.036276191E-1,-3.471410072E-1,9.067373696E-1
7.457902917E-1,2.857835421E-1,6.781518853E-1,-5.383876437E-1,9.118242524E-1
7.558202917E-1,-3.208454937E-2,7.888630664E-1,-2.635141289E-1,8.323304945E-1
7.658502917E-1,-6.674158126E-2,9.197307694E-1,1.583899623E-1,9.356529843E-1
7.758792917E-1,8.474954367E-2,9.661459672E-1,3.234439963E-1,1.022368101E0
7.859092917E-1,2.120837742E-1,1.129925893E0,2.106196314E-1,1.168791119E0
7.959392917E-1,3.358922799E-1,1.386030430E0,-1.196954280E-1,1.431164202E0
8.059682917E-1,4.693039602E-1,1.551829984E0,-4.431978965E-1,1.680728081E0
8.159982917E-1,4.557261407E-1,1.655025739E0,-6.266162807E-1,1.827414697E0
8.260272917E-1,1.775172280E-1,1.736749933E0,-4.513179249E-1,1.803191772E0
8.360572917E-1,4.570841566E-2,1.812839166E0,-7.073025942E-2,1.814794167E0
8.460872917E-1,3.400038958E-2,1.904204249E0,3.134347326E-1,1.930127245E0
8.561162917E-1,-6.008350298E-2,1.936235881E0,4.013096130E-1,1.978299477E0
8.661462917E-1,-5.788363427E-2,2.166206288E0,2.958410454E-1,2.187080731E0
8.761762917E-1,-9.189060196E-2,2.530808836E0,3.143235093E-1,2.551908406E0
8.862052917E-1,-4.110680312E-2,2.978664039E0,4.332798493E-1,3.010292454E0
8.962352917E-1,3.386005640E-1,3.320627337E0,5.165401071E-1,3.377577525E0
9.062652917E-1,6.695490231E-1,3.288372926E0,7.069488376E-1,3.429499826E0
9.162942917E-1,7.402349898E-1,3.136894373E0,1.155895717E0,3.424054476E0
9.263242917E-1,4.751019131E-1,2.847439656E0,1.482463295E0,3.245201357E0
9.363542917E-1,1.035590132E-1,2.443109956E0,1.791564072E0,3.031371398E0
9.463832917E-1,-2.375466442E-1,1.878669459E0,2.173422337E0,2.882636293E0
9.564132917E-1,-5.026405446E-1,1.326013439E0,2.502473813E0,2.876340443E0
9.664422917E-1,-3.557158028E-1,1.018728808E0,2.882368584E0,3.077724934E0
9.764722917E-1,-4.889090896E-2,5.418088496E-1,3.242903808E0,3.288217185E0
9.865022917E-1,1.303930552E-1,3.384385961E-1,3.454080679E0,3.473070165E0
9.965312917E-1,1.450503584E0,1.404923369E0,3.326409064E0,3.891370913E0
1.006561292E0,1.887841986E0,1.365188030E0,3.274985726E0,4.019106521E0
1.016591292E0,7.552643806E-1,-3.185621560E-2,2.859141689E0,2.957385721E0
1.026620292E0,-1.364602724E-1,-5.463170528E-1,2.357273415E0,2.423596848E0
1.036650292E0,-5.264876828E-1,-8.399572062E-1,1.763836575E0,2.023323220E0
1.046680292E0,-6.576398528E-1,-7.482395357E-1,1.131536801E0,1.507557001E0
1.056709292E0,-5.648009786E-1,-8.415014559E-1,5.051310199E-1,1.132378997E0
1.066739292E0,-6.578784192E-1,-6.233465177E-1,-4.561997652E-2,9.074392970E-1
1.076769292E0,-2.421776390E-1,5.067501140E-1,-8.577280641E-2,5.681572504E-1
1.086798292E0,1.134038240E-1,1.321402325E0,6.981084323E-1,1.498772803E0
1.096828292E0,-3.092121658E-1,9.977998692E-1,1.729439160E0,2.020439692E0
1.106858292E0,-6.857216907E-1,1.008907825E-1,2.343309095E0,2.443663377E0
1.116887292E0,-8.153451061E-1,-2.837209368E-1,2.294616407E0,2.451642238E0
1.126917292E0,-4.912599626E-1,-4.300592029E-1,1.779586635E0,1.895577975E0
1.136946292E0,2.956410706E-2,-6.204398668E-1,1.168240943E0,1.323104896E0
1.146976292E0,2.707211146E-1,-9.930723953E-1,3.543056005E-1,1.088584017E0
1.157006292E0,4.978258011E-1,-1.336902124E0,-7.001801008E-1,1.589147568E0
1.167035292E0,8.995260081E-1,-1.456569486E0,-1.602410154E0,2.344879529E0
1.177065292E0,1.092949855E0,-1.490518420E0,-2.276459633E0,2.932311887E0
1.187095292E0,1.154337434E0,-1.644829364E0,-2.457568367E0,3.174523716E0
1.197124292E0,1.174547750E0,-1.890291969E0,-2.095808735E0,3.056988780E0
1.207154292E0,1.083718271E0,-2.093893188E0,-1.723507744E0,2.920498744E0
1.217184292E0,1.133358501E0,-2.311060531E0,-1.660819160E0,3.063302557E0
1.227213292E0,1.283766137E0,-2.566379203E0,-1.629381021E0,3.299884879E0
1.237243292E0,1.391758947E0,-2.736773499E0,-1.840594729E0,3.579764113E0
1.247273292E0,1.527950248E0,-3.034260535E0,-2.091304041E0,3.989351018E0
1.257302292E0,1.779907940E0,-3.457356289E0,-2.092357124E0,4.415806055E0
1.267332292E0,1.841265405E0,-3.766971036E0,-1.922584387E0,4.612662984E0
1.277362292E0,1.057019008E0,-4.003406709E0,-1.525829755E0,4.412789469E0
1.287391292E0,-2.000361711E-1,-3.986359736E0,-1.132864704E0,4.149031315E0
1.297421292E0,-5.499338481E-1,-3.355803017E0,-1.239009794E0,3.619252187E0
1.307450292E0,-4.284339693E-1,-2.908682224E0,-1.668649752E0,3.380588697E0
1.317480292E0,-2.626329535E-1,-3.189194208E0,-2.074312617E0,3.813490343E0
1.327510292E0,-2.814139178E-1,-3.288431983E0,-2.096505139E0,3.910027173E0
1.337539292E0,1.745452344E-2,-2.657777030E0,-1.703156510E0,3.156711184E0
1.347569292E0,6.898580110E-1,-2.956480873E0,-1.020146173E0,3.202714699E0
1.357599292E0,-4.752844924E-1,-1.955547481E0,-5.060958105E-1,2.075137168E0
1.367628292E0,-1.097911510E0,-3.726389605E-1,-1.898380423E-1,1.174865082E0
1.377658292E0,-1.596420558E0,1.282633531E0,5.998605913E-1,2.133902552E0
1.387688292E0,-1.014672010E0,1.976230837E0,1.120748103E0,2.488196921E0
1.397717292E0,-1.092518038E0,1.026989170E0,1.318740088E0,1.996841966E0
1.407747292E0,-1.802009538E0,4.048904479E-2,1.481035990E0,2.332883482E0
1.417777292E0,-1.740267618E0,-1.410348415E-3,1.843280355E0,2.534998193E0
1.427806292E0,-1.724008266E0,5.535091281E-2,1.706967140E0,2.426727229E0
1.437836292E0,-2.217254528E0,-7.953265786E-2,1.052003558E0,2.455454046E0
1.447866292E0,-2.511873212E0,2.364678329E-1,3.769811028E-1,2.550987813E0
1.457895292E0,-2.239273095E0,7.366047460E-1,-2.974268103E-1,2.376003631E0
1.467925292E0,-2.112991071E0,8.794475466E-1,-6.755510437E-1,2.386321115E0
1.477954292E0,-2.049538549E0,8.476340157E-1,-7.745397270E-1,2.349255941E0
1.487984292E0,-1.790568291E0,9.034293169E-1,-9.041572952E-1,2.199959034E0
1.498014292E0,-1.280249037E0,9.293418378E-1,-9.919415438E-1,1.867260526E0
1.508043292E0,-7.436404082E-1,8.476726073E-1,-7.162049800E-1,1.335851593E0
1.518073292E0,-7.268331715E-1,7.219639027E-1,1.975598752E-1,1.043335152E0
1.528103292E0,-1.244168792E0,7.854786980E-1,1.361577959E0,2.004701301E0
1.538132292E0,-2.187183174E0,1.001246803E0,2.430118028E0,3.419318504E0
1.548162292E0,-2.870256661E0,9.911378440E-1,3.069749041E0,4.317879885E0
1.558192292E0,-3.366552246E0,4.328480324E-1,3.626358948E0,4.967042446E0
1.568221292E0,-3.656889892E0,-2.693937966E-1,4.428046128E0,5.749174654E0
1.578251292E0,-3.461060208E0,-3.977922204E-1,4.363335577E0,5.583535956E0
1.588281292E0,-2.808488137E0,-3.258094874E-1,3.425255075E0,4.441410786E0
1.598310292E0,-1.996618031E0,-5.566900134E-1,2.645964485E0,3.361177679E0
1.608340292E0,-1.207310576E0,-7.024803954E-1,1.903504338E0,2.361018064E0
1.618369292E0,-6.566806170E-1,-4.644691899E-1,1.293176061E0,1.522913453E0
1.628399292E0,-2.553110701E-1,-1.457079363E-1,7.653455651E-1,8.198587556E-1
1.638429292E0,-3.436379403E-2,6.822034210E-2,2.647028679E-1,2.755040720E-1
1.648458292E0,1.181312978E-1,2.114616305E-1,-2.177912414E-1,3.257361655E-1
1.658488292E0,2.510893804E-1,5.528831837E-1,-9.608694398E-1,1.136659919E0
1.668518292E0,3.984336600E-1,3.240100068E-1,-1.281000988E0,1.380107024E0
1.678547292E0,8.369049597E-1,-3.009933195E-1,-1.669802822E0,1.891890154E0
1.688576625E0,5.261140457E-1,2.367958617E-1,-1.834023044E0,1.922630696E0
1.698606625E0,-1.048815072E-2,4.534056732E-1,-2.035697604E0,2.085605773E0
1.708635625E0,9.709769368E-2,-2.363283768E-1,-2.596330395E0,2.608871516E0
1.718665625E0,3.794199765E-2,-3.665192646E-1,-2.988384451E0,3.011016040E0
1.728695625E0,6.916519368E-1,-1.753682300E-1,-3.170034637E0,3.249347014E0
1.738724625E0,7.978069675E-1,-2.379626736E-1,-3.120262552E0,3.229421092E0
1.748754625E0,7.152743956E-1,-3.877493352E-2,-2.876777476E0,2.964619639E0
1.758783625E0,7.278839162E-1,1.650046250E-1,-2.595595400E0,2.700769706E0
1.768813625E0,9.571485642E-1,1.393107900E-1,-2.298635783E0,2.493845892E0
1.778843625E0,1.192046712E0,7.585592866E-2,-2.185771657E0,2.490848695E0
1.788872625E0,1.415492796E0,-1.026186347E-2,-2.259501538E0,2.666284373E0
1.798902625E0,1.164893704E0,-4.076766461E-2,-1.892364807E0,2.222539968E0
1.808932625E0,-8.739423931E-2,9.019330144E-3,-9.289506590E-1,9.330961517E-1
1.818961625E0,1.503426879E0,-9.248424053E-2,-1.264094934E0,1.966413415E0
1.828991625E0,6.369392475E-1,8.742815316E-2,-5.209670341E-1,8.274913520E-1
1.839021625E0,2.092787187E-1,7.679572240E-1,8.762152058E-1,1.183768967E0
1.849050625E0,3.839131232E-1,1.144622285E0,1.559158884E0,1.971934555E0
1.859080625E0,4.397154410E-1,8.697967172E-1,1.672896000E0,1.936098402E0
1.869110625E0,5.386257716E-1,8.075213854E-1,1.531392796E0,1.813111250E0
1.879139625E0,7.245121193E-1,1.173035367E0,1.346837128E0,1.927407594E0
1.889169625E0,8.227030230E-1,1.194807767E0,9.343868154E-1,1.725538926E0
1.899198625E0,1.254123969E0,6.487744506E-1,7.765166706E-1,1.611432083E0
1.909228625E0,1.499903201E0,7.641088790E-1,6.433638757E-1,1.802079096E0
1.919258625E0,7.361878395E-1,4.195555571E-1,4.055061597E-1,9.393799264E-1
1.929287625E0,8.125148345E-1,-3.051808029E-1,5.821078598E-2,8.698874492E-1
1.939317625E0,1.445938809E0,2.902432135E-1,-1.073036578E0,1.823838715E0
1.949347625E0,1.193882153E0,6.427113265E-1,-1.356013749E0,1.917604164E0
1.959376625E0,9.018377048E-1,5.553173795E-1,-1.028906472E0,1.476596480E0
1.969406625E0,7.636867100E-1,6.482597494E-1,-1.035324376E0,1.440609127E0
1.979436625E0,5.018156487E-1,9.858236021E-1,-7.876509386E-1,1.357962121E0
1.989465625E0,3.501486687E-1,1.345336733E0,-5.998290163E-1,1.514044208E0
1.999495625E0,-1.380132928E-1,1.452153084E0,-4.829209560E-1,1.536557483E0
2.009525625E0,-5.031479368E-1,1.521069244E0,-2.632147515E-1,1.623604477E0
2.019554625E0,-4.550136575E-1,1.701216696E0,2.967888790E-1,1.785849746E0
2.029584625E0,-2.014921278E-1,1.714976656E0,8.268366390E-1,1.914524180E0
2.039613625E0,1.879545079E-1,1.476015571E0,1.121894742E0,1.863490455E0
2.049643625E0,6.506379582E-1,1.203631216E0,1.421768612E0,1.973191284E0
2.059673625E0,7.914311635E-1,9.708743182E-1,1.635769688E0,2.060267629E0
2.069702625E0,3.669675998E-1,8.477114913E-1,1.553060823E0,1.807008000E0
2.079732625E0,3.416104183E-2,9.875017530E-1,1.285834297E0,1.621633907E0
2.089762625E0,1.690431507E-1,1.616259576E0,1.119687418E0,1.973466625E0
2.099791625E0,2.220288648E-1,1.983927526E0,9.919362813E-1,2.229170885E0
2.109821625E0,3.170956743E-1,2.070630917E0,6.666024649E-1,2.198276804E0
2.119851625E0,8.522620869E-1,2.258473597E0,3.294730604E-1,2.436309946E0
2.129880625E0,1.492847658E0,2.525801280E0,3.229101455E-1,2.951700730E0
2.139910625E0,1.476690632E0,2.596302329E0,6.151417047E-1,3.049557398E0
2.149940625E0,6.766842341E-1,2.311895514E0,1.541771019E0,2.860038513E0
2.159969625E0,-5.457928500E-1,1.731186308E0,3.175372560E0,3.657579358E0
2.169999625E0,-1.682034174E0,1.059046530E0,4.921514876E0,5.307742193E0
2.180028625E0,-1.601619610E0,5.758829141E-1,6.668578128E0,6.882351397E0
2.190058625E0,-1.535352092E0,2.407860017E-1,6.807009205E0,6.982167160E0
2.200088625E0,-1.024715918E0,-2.393148422E-2,6.155976706E0,6.240726290E0
2.210117625E0,-6.125480260E-1,-5.501996040E-2,4.714312357E0,4.754259488E0
2.220147625E0,-3.964081845E-1,-2.386792499E-1,2.831019505E0,2.868584786E0
2.230177625E0,-7.583853319E-2,-3.412446749E-1,1.130221762E0,1.183047185E0
2.240206625E0,3.841743475E-1,-4.863643813E-1,-7.516011000E-2,6.243310683E-1
2.250236625E0,7.087728766E-1,-6.547793949E-1,-5.495517325E-1,1.110451329E0
2.260266625E0,9.798078404E-1,-7.370368552E-1,-4.975278854E-1,1.323170710E0
2.270295625E0,1.073192552E0,-1.067654216E0,-2.583574694E-1,1.535700609E0
2.280325625E0,9.380123815E-1,-1.240254081E0,8.511674881E-2,1.557351044E0
2.290355625E0,6.042229065E-1,-1.136071901E0,1.735962313E-1,1.298414548E0
2.300384625E0,1.780955176E-1,-1.143148786E0,-7.765804052E-2,1.159542122E0
2.310414625E0,-1.769497557E-1,-1.285529072E0,-5.886684358E-1,1.424930433E0
2.320443625E0,-3.170942125E-1,-1.456323318E0,-8.835926378E-1,1.732674896E0
2.330473625E0,-2.467568859E-1,-1.615750576E0,-3.297350156E-1,1.667412386E0
2.340503625E0,-2.796087362E-1,-1.702444319E0,-1.368995737E0,2.202418451E0
2.350532625E0,-2.569449283E-1,-2.187421741E0,-1.277467516E0,2.546126042E0
2.360562625E0,1.515687467E-1,-2.387750273E0,-1.273882003E0,2.710553414E0
2.370592625E0,3.716301696E-1,-2.535125835E0,-1.577746013E0,3.009028824E0
2.380621625E0,5.433441822E-1,-2.765603780E0,-1.679665906E0,3.281015807E0
2.390651625E0,5.730255260E-1,-2.882030030E0,-1.516557825E0,3.306720881E0
2.400681625E0,6.984050323E-1,-2.947809452E0,-9.310638428E-1,3.169263327E0
2.410710625E0,7.429808423E-1,-2.951798422E0,-4.014955544E-1,3.070233401E0
2.420740625E0,6.837668203E-1,-2.872752838E0,-1.288685399E-1,2.955816813E0
2.430770625E0,5.468063186E-1,-2.647594689E0,-1.561674356E-1,2.707977669E0
2.440799625E0,1.213114522E-1,-2.371736503E0,-5.866067076E-1,2.446212979E0
2.450829625E0,-3.939678490E-2,-2.101888670E0,-1.154933265E0,2.398616046E0
2.460858625E0,-8.200836897E-2,-1.857104343E0,-1.677432854E0,2.503865590E0
2.470888625E0,-3.137778179E-1,-1.617446854E0,-1.978252804E0,2.574504806E0
2.480918625E0,-4.669874395E-1,-1.258293326E0,-1.878992810E0,2.309110942E0
2.490947625E0,-5.454063490E-1,-1.012954683E0,-1.660709817E0,2.020272846E0
2.500977625E0,-6.854477486E-1,-8.303245032E-1,-1.598320611E0,1.927149754E0
2.511007625E0,-7.086072542E-1,-7.151688534E-1,-1.416431274E0,1.737776822E0
2.521036625E0,-6.443178490E-1,-5.223633492E-1,-9.557513720E-1,1.265491859E0
2.531066625E0,-4.426177065E-1,-4.601548219E-1,-2.439329731E-1,6.834882512E-1
2.541096625E0,-1.804193473E-1,-5.017256016E-1,6.057265180E-1,8.069599338E-1
2.551125625E0,9.353206158E-3,-4.104061264E-1,1.131432720E0,1.203603204E0
2.561155625E0,-1.800357699E-2,-1.704767418E-1,1.007996244E0,1.022469010E0
2.571184625E0,-2.023659942E-1,1.454933435E-1,2.561855212E-1,3.574231803E-1
2.581214625E0,-4.662400192E-1,4.031795526E-1,-6.773361987E-1,9.158153925E-1
2.591244625E0,-6.865856168E-1,6.850755733E-1,-1.395570163E0,1.699512998E0
2.601273625E0,-6.399312678E-1,8.591039139E-1,-1.778999575E0,2.076634549E0
2.611303625E0,-6.447657457E-1,9.477517962E-1,-1.863140423E0,2.187521102E0
2.621333625E0,-9.223228401E-1,9.803488541E-1,-1.715081322E0,2.180198898E0
2.631362625E0,-9.535884869E-1,9.968438494E-1,-1.329253089E0,1.915709382E0
2.641392625E0,-5.824943608E-1,9.155944490E-1,-1.016231170E0,1.486720776E0
2.651422625E0,-2.227084574E-1,7.515467209E-1,-8.849588397E-1,1.182190204E0
2.661451625E0,7.897454113E-2,6.961759275E-1,-6.919200316E-1,9.847087033E-1
2.671481625E0,4.016642466E-1,7.856412506E-1,-5.799946761E-1,1.055916742E0
2.681511625E0,4.827572340E-1,9.241881019E-1,-5.015367365E-1,1.157029512E0
2.691541375E0,4.593943915E-1,1.175082770E0,-3.197178581E-1,1.301569142E0
2.701571375E0,5.638715637E-1,1.294395790E0,-4.040996119E-1,1.468573491E0
2.711600375E0,1.035888047E0,1.373624393E0,-5.280070817E-1,1.799638713E0
2.721630375E0,1.416419287E0,1.609103462E0,-3.738709688E-1,2.176059983E0
2.731660375E0,1.083921170E0,1.958076986E0,3.991025814E-1,2.273374904E0
2.741689375E0,-3.357383519E-1,2.307597225E0,1.675755288E0,2.871564204E0
2.751719375E0,-2.397020741E0,2.431313199E0,2.863937575E0,4.456358461E0
2.761749375E0,-4.164442244E0,2.417968099E0,3.767406068E0,6.114122784E0
2.771778375E0,-5.156094643E0,2.319781069E0,4.333115412E0,7.123382999E0
2.781808375E0,-5.593273416E0,1.858204789E0,4.399385708E0,7.354741813E0
2.791838375E0,-5.357728858E0,1.329063932E0,4.037127309E0,6.838864406E0
2.801867375E0,-4.537472968E0,8.564943016E-1,3.341804198E0,5.699991116E0
2.811897375E0,-3.474956993E0,2.692432308E-1,2.373069376E0,4.216547911E0
2.821927375E0,-2.294860820E0,-3.416294217E-1,1.420992102E0,2.720719647E0
2.831956375E0,-1.329866754E0,-8.784856796E-1,6.987776461E-1,1.740279539E0
2.841986375E0,-6.729431856E-1,-1.369691556E0,1.810254112E-1,1.536775093E0
2.852015375E0,-1.854736805E-3,-1.800322616E0,-2.253136843E-1,1.814367994E0
2.862045375E0,5.709502029E-1,-2.221251392E0,-6.085033607E-1,2.372808087E0
2.872075375E0,9.336877808E-1,-2.560801544E0,-8.795256069E-1,2.864095444E0
2.882104375E0,1.150808931E0,-2.694635539E0,-1.041478862E0,3.109678457E0
2.892134375E0,1.138351146E0,-2.710911849E0,-1.158931883E0,3.160381226E0
2.902164375E0,9.691765791E-1,-2.693827454E0,-1.247759275E0,3.122965386E0
2.912193375E0,9.276587167E-1,-2.616026741E0,-1.224623889E0,3.033784810E0
2.922223375E0,9.464677477E-1,-2.575714282E0,-1.212076057E0,2.999872269E0
2.932253375E0,9.367107913E-1,-2.586127589E0,-1.187178613E0,2.995809752E0
2.942282375E0,9.065862286E-1,-2.588624935E0,-1.082530994E0,2.948686317E0
2.952312375E0,1.061754083E0,-2.561418425E0,-1.028636915E0,2.957411027E0
2.962342375E0,1.237622250E0,-2.603632983E0,-9.218100393E-1,3.026606564E0
2.972371375E0,1.206556285E0,-2.542031397E0,-8.087757593E-1,2.927767054E0
2.982401375E0,1.290811447E0,-2.380920140E0,-7.378279835E-1,2.807020669E0
2.992430375E0,1.452660622E0,-2.254075906E0,-7.221217775E-1,2.777146185E0
3.002460375E0,1.823519398E0,-2.121970348E0,-8.289369589E-1,2.918067448E0
3.012490375E0,2.066039976E0,-1.984084232E0,-9.289722937E-1,3.011328767E0
3.022519375E0,1.839920253E0,-1.735707375E0,-8.917176363E-1,2.682004282E0
3.032549375E0,1.418259698E0,-1.349927382E0,-8.087626031E-1,2.118457329E0
3.042579375E0,1.043499368E0,-1.047694745E0,-8.251222354E-1,1.693334554E0
3.052608375E0,8.965462670E-1,-7.544147801E-1,-8.879289329E-1,1.470154638E0
3.062638375E0,9.675206476E-1,-5.167441750E-1,-1.014358892E0,1.494002914E0
3.072668375E0,1.038158813E0,-3.853356045E-1,-1.241772019E0,1.663807380E0
3.082697375E0,8.949590403E-1,-2.567722893E-1,-1.420047484E0,1.698063176E0
3.092727375E0,5.738352191E-1,-1.223857319E-1,-1.458491758E0,1.572088844E0
3.102757375E0,4.454104829E-1,-7.378016710E-3,-1.511262879E0,1.575550832E0
3.112786375E0,5.080157438E-1,1.285674083E-1,-1.430366943E0,1.523338165E0
3.122816375E0,6.768938568E-1,3.051813877E-1,-1.265934468E0,1.467620881E0
3.132845375E0,6.546501714E-1,4.127537835E-1,-1.073272805E0,1.323195771E0
3.142875375E0,3.461262229E-1,4.768936461E-1,-8.314305040E-1,1.019071928E0
3.152905375E0,-4.691221118E-2,6.227161878E-1,-5.378181249E-1,8.241508003E-1
3.162934375E0,-4.130476061E-1,8.430059445E-1,-4.292183733E-1,1.032228540E0
3.172964375E0,-3.898967251E-1,9.744759107E-1,-4.032795399E-1,1.124391900E0
3.182994375E0,-4.986944050E-2,1.044439600E0,-3.326159388E-1,1.097257674E0
3.193023375E0,2.356901532E-1,1.056301847E0,-3.191246581E-1,1.128345686E0
3.203053375E0,4.814205605E-1,1.097659788E0,-3.023618603E-1,1.236141359E0
3.213083375E0,6.110316968E-1,1.127685825E0,-3.542886436E-1,1.330622222E0
3.223112375E0,7.702855852E-1,1.104246091E0,-4.229513276E-1,1.411236032E0
3.233142375E0,9.404962787E-1,1.038708744E0,-4.707757044E-1,1.478201228E0
3.243171375E0,9.908004597E-1,8.868372577E-1,-4.047536230E-1,1.389960923E0
3.253201375E0,1.081689580E0,7.275462395E-1,-2.061640531E-1,1.319802824E0
3.263231375E0,1.269538399E0,5.872627652E-1,1.600464785E-1,1.407913413E0
3.273260375E0,1.509637061E0,5.510199684E-1,5.148672187E-1,1.687517500E0
3.283290375E0,1.717447982E0,5.683517003E-1,8.010200125E-1,1.978455025E0
3.293320375E0,2.119928208E0,6.870484239E-1,9.749527511E-1,2.432419374E0
3.303349375E0,2.582742636E0,9.237074608E-1,1.020993142E0,2.926810891E0
3.313379375E0,3.234626489E0,1.316086037E0,9.924809495E-1,3.630414496E0
3.323409375E0,3.773691241E0,1.951802339E0,1.271456871E0,4.434735677E0
3.333438375E0,3.194793502E0,2.664503667E0,2.221195843E0,4.715930055E0
3.343468375E0,1.261434743E0,2.947552759E0,3.666621413E0,4.870667045E0
3.353498375E0,-1.072733692E0,2.779317255E0,4.922802433E0,5.754072103E0
3.363527375E0,-2.689966245E0,2.634210997E0,5.659118326E0,6.797102780E0
3.373557375E0,-3.122515192E0,2.419867274E0,5.623887098E0,6.872697057E0
3.383586375E0,-2.816986480E0,2.110988107E0,4.726730089E0,5.893527039E0
3.393616375E0,-2.239213454E0,1.789674836E0,3.625549985E0,4.621863867E0
3.403646375E0,-1.515774883E0,1.554708568E0,2.701436436E0,3.465898303E0
3.413675375E0,-8.300417903E-1,1.391869460E0,1.844088441E0,2.454981088E0
3.423705375E0,-3.415481454E-1,1.237850291E0,1.134064552E0,1.713193185E0
3.433735375E0,-2.261293709E-2,1.067234386E0,6.593092328E-1,1.254666985E0
3.443764375E0,6.572767407E-2,8.943749034E-1,3.537559623E-1,9.640383166E-1
3.453794375E0,6.257427067E-2,6.961069304E-1,1.995765799E-1,7.268501972E-1
3.463824375E0,1.636568418E-1,5.116875029E-1,1.541711962E-1,5.589064503E-1
3.473853375E0,3.667999309E-1,3.089259446E-1,1.314588565E-1,4.972513042E-1
3.483883375E0,4.909985921E-1,6.158696830E-2,1.116397190E-1,5.072829575E-1
3.493913375E0,3.692057678E-1,-1.753767085E-1,1.302777189E-1,4.290013670E-1
3.503942375E0,2.122621143E-1,-3.833370262E-1,2.556674579E-1,5.073148232E-1
3.513972375E0,1.351677454E-1,-5.662525499E-1,3.817091614E-1,6.961423371E-1
3.524001375E0,1.738576019E-1,-8.481321985E-1,3.771576887E-1,9.443530134E-1
3.534031375E0,2.554715762E-1,-1.125080890E0,2.689420992E-1,1.184652940E0
3.544061375E0,4.290157673E-1,-1.353826305E0,9.225766093E-2,1.423169586E0
3.554090375E0,6.239677843E-1,-1.585771902E0,-1.487952662E-1,1.710598828E0
3.564120375E0,8.349487737E-1,-1.815328326E0,-4.655354297E-1,2.051652900E0
3.574150375E0,9.969344813E-1,-2.008230309E0,-7.830942035E-1,2.374890285E0
3.584179375E0,1.192053144E0,-2.151361962E0,-8.881598979E-1,2.614990821E0
3.594209375E0,1.337753771E0,-2.250034311E0,-8.660521603E-1,2.757224310E0
3.604238375E0,1.386519257E0,-2.365715041E0,-7.688281667E-1,2.847830763E0
3.614268375E0,1.372491202E0,-2.391249831E0,-5.638078290E-1,2.814193868E0
3.624298375E0,1.319956893E0,-2.341381853E0,-3.071340653E-1,2.705307102E0
3.634327375E0,1.215260451E0,-2.270889575E0,-1.010729232E-1,2.577598332E0
3.644357375E0,9.290553242E-1,-2.201942132E0,3.011900783E-3,2.389916739E0
3.654387375E0,6.576676270E-1,-2.065461102E0,2.642561406E-2,2.167799479E0
3.664416375E0,5.253407514E-1,-1.916651802E0,-5.159173787E-2,1.988013768E0
3.674446375E0,4.368083516E-1,-1.781250168E0,-1.969514725E-1,1.844571381E0
3.684476375E0,4.826929146E-1,-1.648021944E0,-3.396925315E-1,1.750531289E0
3.694504792E0,6.049485460E-1,-1.471644192E0,-4.540544218E-1,1.654649446E0
3.704534792E0,6.120260158E-1,-1.312348496E0,-5.650091395E-1,1.554371174E0
3.714564792E0,4.315204221E-1,-1.149411739E0,-5.804788256E-1,1.358054818E0
3.724593792E0,1.767195216E-1,-9.441627753E-1,-4.684020272E-1,1.068678434E0
3.734623792E0,5.184375286E-2,-8.157421321E-1,-3.236732072E-1,8.791401173E-1
3.744652792E0,2.734362692E-2,-7.969725698E-1,-1.069072750E-1,8.045757369E-1
3.754682792E0,1.604054976E-1,-7.453644598E-1,3.261682141E-1,8.292670290E-1
3.764712792E0,2.914410156E-1,-7.245290762E-1,8.256385446E-1,1.136467885E0
3.774741792E0,4.125005990E-1,-6.917577714E-1,1.267906441E0,1.502089312E0
3.784771792E0,3.809007838E-1,-5.611695653E-1,1.438752435E0,1.590599025E0
3.794801792E0,2.847047308E-1,-4.277869749E-1,1.332445377E0,1.428099843E0
3.804830792E0,9.336950898E-2,-3.482215726E-1,9.817948705E-1,1.045895452E0
3.814860792E0,-1.452977541E-1,-3.190194082E-1,5.983274513E-1,6.934555207E-1
3.824890792E0,-4.007693303E-1,-2.350095373E-1,3.181206912E-1,5.630686573E-1
3.834919792E0,-6.740714058E-1,-1.947999895E-1,1.282183295E-1,7.132736053E-1
3.844949792E0,-7.538166100E-1,-1.858607662E-1,4.695314169E-2,7.778099404E-1
3.854978792E0,-6.759787676E-1,-1.288913441E-1,-4.923033983E-2,6.899158638E-1
3.865008792E0,-5.425847751E-1,-2.297371030E-3,-1.548228684E-1,5.642460781E-1
3.875038792E0,-4.899917015E-1,2.635860497E-1,-1.652262345E-1,5.804043261E-1
3.885067792E0,-4.327954075E-1,6.235330439E-1,-3.135525540E-1,8.212311037E-1
3.895097792E0,-1.570228833E-1,9.790361542E-1,-7.770087138E-1,1.259726366E0
3.905127792E0,1.526474118E-2,1.482541648E0,-1.304636896E0,1.974902575E0
3.915156792E0,-3.214638367E-1,2.080383196E0,-1.305243252E0,2.476891840E0
3.925186792E0,-1.521174787E0,2.482064107E0,-4.439969185E-1,2.944783222E0
3.935216792E0,-3.150914242E0,2.532793965E0,8.969728214E-1,4.140998197E0
3.945245792E0,-4.371581905E0,2.218457592E0,2.171906154E0,5.361852178E0
3.955275792E0,-5.140645130E0,1.651416253E0,3.524018641E0,6.447644172E0
3.965304792E0,-5.391974246E0,1.117225741E0,4.715544366E0,7.249685392E0
3.975334792E0,-5.109845506E0,6.956987947E-1,5.180193942E0,7.309509367E0
3.985364792E0,-4.393239407E0,2.451404232E-1,4.690287902E0,6.431131076E0
3.995393792E0,-3.287398780E0,-1.236767972E-1,3.636365288E0,4.903614911E0
4.005423792E0,-2.237247620E0,-4.792892504E-1,2.501697595E0,3.390204412E0
4.015453792E0,-1.457685134E0,-8.255058128E-1,1.686910314E0,2.377387685E0
4.025482792E0,-8.943751958E-1,-1.147870998E0,1.461646915E0,2.062504915E0
4.035512792E0,-4.746494848E-1,-1.231520680E0,1.198773641E0,1.782973237E0
4.045542792E0,-1.419195253E-1,-1.331424453E0,4.815427673E-1,1.422925037E0
4.055571792E0,-1.069397271E-1,-1.409183650E0,-3.815501171E-1,1.463835768E0
4.065601792E0,-1.378612652E-1,-1.443379337E0,-1.164352837E0,1.859587902E0
4.075631792E0,-2.567044616E-2,-1.580907603E0,-1.776057256E0,2.377878718E0
4.085660792E0,2.254230273E-1,-1.648185081E0,-2.115207750E0,2.690991162E0
4.095690792E0,5.677722412E-1,-1.708281595E0,-2.251882616E0,2.882978779E0
4.105719792E0,8.688442057E-1,-1.832895116E0,-2.304636488E0,3.070137472E0
4.115749792E0,1.050556957E0,-1.967816693E0,-2.367575040E0,3.252903938E0
4.125779792E0,1.197005736E0,-2.036203389E0,-2.469801034E0,3.417435313E0
4.135808792E0,1.324111340E0,-2.084497297E0,-2.661342370E0,3.630584393E0
4.145838792E0,1.413556198E0,-2.023705550E0,-2.696179789E0,3.655531525E0
4.155868792E0,1.498823512E0,-1.852323074E0,-2.588590144E0,3.518291009E0
4.165897792E0,1.573328150E0,-1.710568441E0,-2.416876716E0,3.353013408E0
4.175927792E0,1.584211572E0,-1.603136378E0,-2.136156570E0,3.105307947E0
4.185957792E0,1.462999376E0,-1.454999508E0,-1.852895517E0,2.773195366E0
4.195986792E0,1.230383104E0,-1.310208415E0,-1.497602906E0,2.339509166E0
4.206016792E0,1.034222760E0,-1.126890019E0,-1.019535139E0,1.838191974E0
4.216045792E0,1.002810348E0,-9.236378789E-1,-5.798099041E-1,1.481524570E0
4.226075792E0,9.137172005E-1,-7.103413922E-1,-2.501324835E-1,1.184073594E0
4.236105792E0,6.604117253E-1,-4.572838390E-1,-6.079350114E-3,8.032988951E-1
4.246134792E0,3.533522120E-1,-2.126041764E-1,2.242436439E-1,4.694076409E-1
4.256164792E0,1.009828761E-1,2.462262511E-3,3.593581796E-1,3.732852867E-1
4.266194792E0,-5.535822183E-2,1.983773160E-1,2.705875057E-1,3.400524819E-1
4.276223792E0,-8.057843238E-2,3.668940711E-1,2.955036610E-2,3.767988420E-1
4.286253792E0,-6.511254698E-2,4.249341184E-1,-1.083834046E-1,4.433459272E-1
4.296283792E0,1.475018620E-2,4.536264056E-1,-3.001486892E-1,5.441357546E-1
4.306312792E0,3.988415033E-2,4.303211582E-1,-6.293793824E-1,7.634693521E-1
4.316342792E0,-1.756433415E-1,3.715700895E-1,-9.711722338E-1,1.054556979E0
4.326371792E0,-2.948683611E-1,3.748796135E-1,-1.352314800E0,1.433958644E0
4.336401792E0,-1.538370278E-1,4.154060805E-1,-1.795930480E0,1.849755209E0
4.346431792E0,4.105651706E-2,4.537491971E-1,-2.335819981E0,2.379838010E0
4.356460792E0,2.140943393E-1,5.722441918E-1,-2.705732677E0,2.773858165E0
4.366490792E0,4.569590262E-1,6.798885083E-1,-2.830813099E0,2.946958217E0
4.376520792E0,3.697150603E-1,7.755419397E-1,-2.707373114E0,2.840426676E0
4.386549792E0,1.512844259E-1,9.114189523E-1,-2.421715579E0,2.591964087E0
4.396579792E0,-3.459037364E-2,1.016195210E0,-1.965290111E0,2.212739121E0
4.406609792E0,-4.512588680E-1,1.234155436E0,-1.441877187E0,1.950841877E0
4.416638792E0,-5.730540311E-1,1.451025156E0,-1.040323745E0,1.875136907E0
4.426668792E0,-4.611669749E-1,1.477018368E0,-7.506240302E-1,1.719794951E0
4.436697792E0,-2.134859365E-1,1.421359892E0,-5.034566697E-1,1.522927709E0
4.446727792E0,7.943705589E-2,1.422032322E0,-4.153791833E-1,1.483585534E0
4.456757792E0,2.045122147E-1,1.457279338E0,-5.635356411E-1,1.575773059E0
4.466786792E0,1.523948121E-1,1.547273249E0,-8.066093659E-1,1.751541423E0
4.476816792E0,2.240042004E-1,1.713697286E0,-1.115279495E0,2.056887119E0
4.486846792E0,4.891792309E-1,1.944347139E0,-1.480049565E0,2.492053136E0
4.496875792E0,7.641249588E-1,2.262559047E0,-1.767556574E0,2.971080045E0
4.506905792E0,1.228611398E0,2.662658871E0,-1.698714965E0,3.388933573E0
4.516935792E0,1.571431020E0,3.182381033E0,-9.640637738E-1,3.677820475E0
4.526964792E0,1.038136594E0,3.592811133E0,6.167409182E-1,3.790301938E0
4.536994792E0,-4.395281839E-1,3.833685427E0,2.834623144E0,4.788049431E0
4.547023792E0,-2.272280043E0,3.784389306E0,4.955435743E0,6.636354603E0
4.557053792E0,-3.673333724E0,3.304728173E0,6.180170730E0,7.912592445E0
4.567083792E0,-4.134469709E0,2.673375063E0,6.332753822E0,8.021505156E0
4.577112792E0,-3.609295018E0,2.182216550E0,5.492808895E0,6.925317982E0
4.587142792E0,-2.710966520E0,1.845547321E0,3.863442492E0,5.067698914E0
4.597172792E0,-2.003485586E0,1.489796873E0,2.207856005E0,3.332878239E0
4.607201792E0,-1.573845043E0,1.157497269E0,1.090483792E0,2.237396489E0
4.617231792E0,-1.219691763E0,8.626742238E-1,5.113854942E-1,1.579040828E0
4.627261792E0,-8.071011168E-1,4.617154437E-1,3.438569185E-1,9.913783052E-1
4.637290792E0,-2.780161008E-1,-2.044478953E-2,3.491045022E-1,4.467492532E-1
4.647320792E0,3.312307334E-1,-4.784975374E-1,3.348869973E-1,6.714335358E-1
4.657350792E0,8.070677876E-1,-8.204503101E-1,3.315385893E-1,1.197670640E0
4.667379792E0,1.214565801E0,-1.077912571E0,3.611646768E-1,1.663582135E0
4.677409792E0,1.486415721E0,-1.264700705E0,3.556335032E-1,1.983777900E0
4.687438792E0,1.327726673E0,-1.375051698E0,3.493138325E-1,1.943102016E0
4.697469000E0,8.547608945E-1,-1.339184877E0,4.548022807E-1,1.652536667E0
4.707499000E0,6.290267953E-1,-1.337914862E0,4.798017588E-1,1.554316768E0
4.717528000E0,7.363462991E-1,-1.387266532E0,3.271254033E-1,1.604283432E0
4.727558000E0,8.460315862E-1,-1.435507230E0,7.758992046E-2,1.668073934E0
4.737588000E0,7.500974885E-1,-1.496025327E0,-1.548927426E-1,1.680693245E0
4.747617000E0,7.239671588E-1,-1.505314214E0,-2.488490197E-1,1.688793997E0
4.757647000E0,7.831029743E-1,-1.575816432E0,-2.723656440E-1,1.780626502E0
4.767676000E0,8.114485216E-1,-1.633893317E0,-2.909337696E-1,1.847349055E0
4.777706000E0,5.951912972E-1,-1.652791518E0,-1.949356449E-1,1.767476276E0
4.787736000E0,4.881822807E-1,-1.665560083E0,7.943150103E-3,1.735648415E0
4.797765000E0,6.694211152E-1,-1.705970190E0,1.485882747E-1,1.838623777E0
4.807795000E0,1.038801715E0,-1.784498881E0,1.307174295E-1,2.068968899E0
4.817825000E0,1.203951058E0,-1.799481202E0,-4.178508013E-2,2.165496880E0
4.827854000E0,1.164962701E0,-1.792849874E0,-2.381328276E-1,2.151314949E0
4.837884000E0,1.171570055E0,-1.745596771E0,-3.340938225E-1,2.128685783E0
4.847914000E0,1.227055454E0,-1.678672464E0,-3.237424967E-1,2.104380083E0
4.857943000E0,1.299179690E0,-1.627273099E0,-3.042838401E-1,2.104394037E0
4.867973000E0,1.170015865E0,-1.565785534E0,-1.973230630E-1,1.964575744E0
4.878002000E0,8.800389925E-1,-1.510322939E0,4.057616830E-2,1.748482323E0
4.888032000E0,6.295828655E-1,-1.346902617E0,2.609311214E-1,1.509505315E0
4.898062000E0,4.229232609E-1,-1.099312211E0,2.367970312E-1,1.201425926E0
4.908091000E0,2.767700592E-1,-8.599172616E-1,-1.191294175E-1,9.111812007E-1
4.918121000E0,8.119794488E-2,-6.942837685E-1,-4.261702198E-1,8.186843798E-1
4.928151000E0,-1.759617224E-1,-4.917063975E-1,-3.727260840E-1,6.416092602E-1
4.938180000E0,-3.756222099E-1,-2.587135649E-1,-6.802475274E-2,4.611421909E-1
4.948210000E0,-2.697142240E-1,-1.324224776E-1,2.579680449E-1,3.960163979E-1
4.958240000E0,-1.077571678E-1,-9.462256730E-2,5.789699516E-1,5.964656254E-1
4.968269000E0,9.033626586E-2,-2.552368104E-2,9.408471116E-1,9.455185808E-1
4.978299000E0,1.078735274E-1,1.027332401E-1,1.448391277E0,1.456031631E0
4.988328000E0,-2.017368338E-1,3.230808842E-1,1.903511939E0,1.941246174E0
4.998358000E0,-7.795466977E-1,5.773143125E-1,2.147105481E0,2.356065962E0
5.008388000E0,-1.456265430E0,6.601623416E-1,2.175053710E0,2.699515135E0
5.018417000E0,-2.034901798E0,6.857836711E-1,1.961569236E0,2.908415108E0
5.028447000E0,-2.373445352E0,5.563438582E-1,1.311808214E0,2.768321173E0
5.038477000E0,-2.291862076E0,3.055982941E-1,4.360216087E-1,2.352899686E0
5.048506000E0,-1.701185121E0,3.118027747E-2,-5.043909086E-1,1.774658619E0
5.058536000E0,-9.624715769E-1,-2.402387023E-1,-1.276458287E0,1.616605062E0
5.068566000E0,-2.916982931E-1,-3.807309222E-1,-1.691114754E0,1.757814848E0
5.078595000E0,1.917316630E-1,-3.101357335E-1,-1.754447701E0,1.791935250E0
5.088625000E0,6.398304033E-1,-1.812987685E-1,-1.676035370E0,1.803149120E0
5.098655000E0,1.197648345E0,5.925919175E-2,-1.631917104E0,2.025099169E0
5.108684000E0,1.799872380E0,4.255264413E-1,-1.662876211E0,2.487120952E0
5.118714000E0,2.143571132E0,8.900105417E-1,-1.797418596E0,2.935596970E0
5.128743000E0,1.814155082E0,1.274985958E0,-1.880744635E0,2.907567409E0
5.138773000E0,5.700283894E-1,1.557239243E0,-1.225190192E0,2.061799562E0
5.148803000E0,-1.235412879E0,1.824569265E0,3.844459507E-1,2.236760308E0
5.158832000E0,-3.038017371E0,1.963131319E0,2.310408567E0,4.292018391E0
5.168862000E0,-4.235105845E0,1.822844921E0,3.785972732E0,5.965942897E0
5.178892000E0,-4.284632346E0,1.579584378E0,4.380522298E0,6.327885646E0
5.188921000E0,-3.488933592E0,1.328107912E0,4.117018109E0,5.557550391E0
5.198951000E0,-2.481082360E0,1.062563045E0,3.448224108E0,4.378933591E0
5.208980000E0,-1.733612025E0,8.423031092E-1,2.797479292E0,3.397171701E0
5.219010000E0,-1.184144785E0,6.786278486E-1,2.197016437E0,2.586429170E0
5.229040000E0,-8.330428737E-1,5.243911636E-1,1.704813319E0,1.968587050E0
5.239069000E0,-7.379478514E-1,2.934793550E-1,1.196000599E0,1.435658245E0
5.249099000E0,-8.188902730E-1,-3.371153712E-2,6.328192994E-1,1.035460290E0
5.259129000E0,-9.109558529E-1,-2.983337134E-1,1.597798455E-1,9.717886444E-1
5.269158000E0,-1.004455462E0,-5.597054225E-1,-3.035394895E-1,1.189259079E0
5.279188000E0,-1.021582249E0,-9.018306881E-1,-7.825162062E-1,1.571388079E0
5.289218000E0,-8.694833064E-1,-1.269645696E0,-1.109740427E0,1.897241479E0
5.299247000E0,-4.384449872E-1,-1.601773977E0,-1.261589110E0,2.085550517E0
5.309277000E0,1.482070363E-1,-1.964240536E0,-1.344197111E0,2.384758286E0
5.319306000E0,6.345877898E-1,-2.334326017E0,-1.377445548E0,2.783726972E0
5.329336000E0,1.046053724E0,-2.610252031E0,-1.374870434E0,3.130161780E0
5.339366000E0,1.402140679E0,-2.773130316E0,-1.392238419E0,3.405081210E0
5.349395000E0,1.744780499E0,-2.854106652E0,-1.374262032E0,3.616459581E0
5.359425000E0,1.936682316E0,-2.791868888E0,-1.377373043E0,3.666391521E0
5.369455000E0,1.927792210E0,-2.706242847E0,-1.385110956E0,3.599814649E0
5.379484000E0,1.939878989E0,-2.602623169E0,-1.297073815E0,3.495594132E0
5.389514000E0,1.940782969E0,-2.441674465E0,-1.139728750E0,3.320752076E0
5.399544000E0,1.960037850E0,-2.287303294E0,-9.341204748E-1,3.153741555E0
5.409573000E0,1.919102078E0,-2.115125012E0,-7.051531577E-1,2.941759266E0
5.419603000E0,1.830912325E0,-1.848988992E0,-5.436656329E-1,2.658302570E0
5.429632000E0,1.793962307E0,-1.496654488E0,-4.881018814E-1,2.386738122E0
5.439662000E0,1.779472907E0,-1.155816194E0,-6.038136014E-1,2.206133669E0
5.449692000E0,1.812620188E0,-9.228695548E-1,-7.454249784E-1,2.166319127E0
5.459721000E0,1.767255150E0,-6.379043305E-1,-7.618886912E-1,2.027458280E0
5.469751000E0,1.479708087E0,-3.023770630E-1,-6.260599181E-1,1.634906399E0
5.479781000E0,1.063370546E0,1.304981589E-2,-3.545620009E-1,1.121000191E0
5.489810000E0,7.419733670E-1,3.293625480E-1,-1.293675998E-1,8.220341485E-1
5.499840000E0,5.372389582E-1,5.520794839E-1,-3.546102405E-2,7.711516964E-1
5.509870000E0,4.059075710E-1,6.534848213E-1,6.731110007E-2,7.722267491E-1
5.519899000E0,4.267207351E-1,7.743099314E-1,1.233812204E-1,8.926754064E-1
5.529929000E0,4.230861059E-1,9.455789709E-1,8.136868358E-2,1.039106494E0
5.539958000E0,2.303636321E-1,1.035012134E0,4.110914201E-2,1.061134997E0
5.549988000E0,-4.438475221E-2,1.070022923E0,6.168812513E-3,1.070960838E0
5.560018000E0,-3.025328913E-1,1.101975033E0,-5.910804123E-2,1.144276577E0
5.570047000E0,-5.227171057E-1,1.068754662E0,-2.039780715E-1,1.207094343E0
5.580077000E0,-5.502677241E-1,9.366894490E-1,-3.556203470E-1,1.143086840E0
5.590107000E0,-4.535661793E-1,7.485453451E-1,-3.590131938E-1,9.460089249E-1
5.600136000E0,-1.521895748E-1,5.847092861E-1,-3.093007511E-1,6.787588457E-1
5.610166000E0,2.344952747E-1,4.278647429E-1,-3.390084073E-1,5.941237012E-1
5.620196000E0,5.885792658E-1,2.817983723E-1,-3.148711011E-1,7.245548185E-1
5.630225000E0,9.261241150E-1,2.530125296E-1,-1.951446828E-1,9.796951892E-1
5.640255000E0,1.241863381E0,2.724206078E-1,-1.445732841E-1,1.279585511E0
5.650284000E0,1.428579888E0,3.806736195E-1,-1.879482222E-1,1.490327962E0
5.660314000E0,1.532212868E0,4.825981897E-1,-2.461514068E-1,1.625167007E0
5.670344000E0,1.618191058E0,6.377482098E-1,-3.464615607E-1,1.773499561E0
5.680373000E0,1.496331868E0,9.201617092E-1,-5.624387035E-1,1.844463045E0
5.690403000E0,1.281361177E0,1.340097628E0,-7.823808432E-1,2.012428359E0
5.700432917E0,1.147808579E0,1.803461986E0,-9.662807456E-1,2.345983408E0
5.710461917E0,1.335542062E0,2.272036799E0,-8.869512784E-1,2.780738460E0
5.720491917E0,1.619760889E0,2.692146379E0,-3.687979245E-1,3.163430002E0
5.730521917E0,1.745094641E0,3.047344850E0,6.996216917E-1,3.580661454E0
5.740550917E0,1.613231596E0,3.211215992E0,2.145980477E0,4.185648879E0
5.750580917E0,1.002024629E0,3.099189772E0,3.690964833E0,4.922626535E0
5.760609917E0,2.405991831E-1,2.811690364E0,5.028696678E0,5.766392369E0
5.770639917E0,-4.249525371E-1,2.334923603E0,5.829807322E0,6.294371001E0
5.780669917E0,-7.639388712E-1,1.810303228E0,6.068641523E0,6.378809475E0
5.790698917E0,-6.681892531E-1,1.312411062E0,5.817279078E0,6.000802908E0
5.800728917E0,-4.058752652E-1,9.039590746E-1,5.060441211E0,5.156543609E0
5.810758917E0,-1.164867684E-2,4.869146043E-1,4.025298392E0,4.054657651E0
5.820787917E0,2.842008470E-1,2.221526796E-1,3.078121669E0,3.099186175E0
5.830817917E0,5.703477935E-1,-1.381352073E-1,2.263693114E0,2.338521853E0
5.840847917E0,8.121833704E-1,-5.344524676E-1,1.705825472E0,1.963446410E0
5.850876917E0,9.932693003E-1,-9.036310458E-1,1.386335070E0,1.930040905E0
5.860906917E0,1.065410639E0,-1.314671010E0,1.287804809E0,2.126476174E0
5.870935917E0,1.092335752E0,-1.613681831E0,1.314152070E0,2.350353614E0
5.880965917E0,1.048200822E0,-1.844983065E0,1.348674908E0,2.514281504E0
5.890995917E0,1.071379477E0,-1.977166391E0,1.312157585E0,2.603612576E0
5.901024917E0,1.013152465E0,-1.901790519E0,1.236851002E0,2.484569479E0
5.911054917E0,5.450419213E-1,-1.893105649E0,1.274609982E0,2.346390910E0
5.921084917E0,3.811989918E-2,-1.831963069E0,1.549542261E0,2.399713115E0
5.931113917E0,-2.327348243E-1,-1.795537840E0,1.682552969E0,2.471660600E0
5.941143917E0,-2.679977739E-1,-1.934151934E0,1.480161831E0,2.450233776E0
5.951172917E0,-9.511958063E-4,-2.091590554E0,1.075926564E0,2.352099046E0
5.961202917E0,4.318594144E-1,-2.187184929E0,5.344533446E-1,2.292579517E0
5.971232917E0,8.267617947E-1,-2.099631060E0,-8.045914918E-2,2.257976822E0
5.981261917E0,8.338129520E-1,-1.905730957E0,-5.947279054E-1,2.163505443E0
5.991291917E0,5.834138355E-1,-1.649578473E0,-7.886882347E-1,1.919247241E0
6.001321917E0,3.762047388E-1,-1.357472044E0,-8.425364131E-1,1.641379896E0
6.011350917E0,2.383822113E-1,-1.153205413E0,-9.305633211E-1,1.500885371E0
6.021380917E0,1.782449140E-1,-1.010877167E0,-9.960901433E-1,1.430328448E0
6.031410917E0,1.794161113E-1,-9.582504719E-1,-9.909773380E-1,1.390133156E0
6.041439917E0,3.065699552E-1,-9.102612036E-1,-9.231519753E-1,1.332205001E0
6.051469917E0,2.718823716E-1,-8.754848886E-1,-7.382568768E-1,1.177037395E0
6.061498917E0,1.443673159E-1,-8.925546652E-1,-4.733204126E-1,1.020552774E0
6.071528917E0,-7.672073185E-2,-8.598821783E-1,-7.884063989E-2,8.668905800E-1
6.081558917E0,-3.405273677E-1,-7.027821118E-1,2.589074001E-1,8.227360613E-1
6.091587917E0,-5.322430971E-1,-6.819063824E-1,5.482460493E-1,1.024135128E0
6.101617917E0,-5.860494679E-1,-5.607877421E-1,7.815879607E-1,1.126417601E0
6.111647917E0,-6.171155785E-1,-4.699781442E-1,7.974385929E-1,1.112483439E0
6.121676917E0,-5.378309888E-1,-5.100467741E-1,6.675476673E-1,9.975117906E-1
6.131706917E0,-3.610182041E-1,-4.987464452E-1,5.456150946E-1,8.226651760E-1
6.141736917E0,-1.812888283E-1,-4.974337453E-1,4.184182736E-1,6.748183621E-1
6.151765917E0,3.013713419E-2,-4.638549399E-1,3.266456392E-1,5.681258890E-1
6.161795917E0,1.777670503E-1,-4.635579014E-1,3.651483849E-1,6.162957042E-1
6.171824917E0,2.795293602E-1,-4.883395708E-1,5.705213097E-1,8.013156459E-1
6.181854917E0,3.198424038E-1,-5.172353411E-1,8.286022058E-1,1.027819623E0
6.191884917E0,2.970408940E-1,-5.468362856E-1,1.134915907E0,1.294332775E0
6.201913917E0,2.198325044E-1,-6.302316141E-1,1.378265620E0,1.531383145E0
6.211943917E0,1.961477727E-2,-7.702086943E-1,1.414338263E0,1.610577193E0
6.221973917E0,-1.097490218E-1,-8.298286593E-1,1.131288294E0,1.407293024E0
6.232002917E0,7.544983953E-2,-8.847422004E-1,6.992661810E-1,1.130236538E0
6.242032917E0,5.266818103E-1,-9.513776547E-1,1.823562375E-1,1.102618233E0
6.252062917E0,1.002814441E0,-9.580031347E-1,-1.354963589E-1,1.393472667E0
6.262091917E0,1.396448414E0,-7.952610898E-1,-1.902683973E-2,1.607131107E0
6.272121917E0,1.418156787E0,-5.663478595E-1,5.220984703E-1,1.613848005E0
6.282150917E0,1.068134564E0,-2.240033233E-1,1.253712325E0,1.662192387E0
6.292180917E0,9.347516817E-1,2.006822884E-1,1.725315996E0,1.972498256E0
6.302210917E0,1.215213965E0,5.980005920E-1,1.388414925E0,1.939599364E0
6.312239917E0,1.626791289E0,9.655109596E-1,4.314582954E-1,1.940313782E0
6.322269917E0,1.892943974E0,1.589331686E0,-3.929698755E-1,2.502725998E0
6.332299917E0,1.288395962E0,2.326984254E0,-4.681023574E-1,2.700729473E0
6.342328917E0,-4.539798698E-1,2.753195989E0,4.582708490E-1,2.827754948E0
6.352358917E0,-2.590175324E0,2.864916399E0,1.948271205E0,4.325796444E0
6.362388917E0,-4.445635429E0,2.734767904E0,3.385037341E0,6.221021432E0
6.372417917E0,-5.123358421E0,2.237696101E0,4.086120252E0,6.924771770E0
6.382447917E0,-4.490398204E0,1.450788344E0,3.832377405E0,6.079110085E0
6.392476917E0,-2.925636810E0,7.889221233E-1,2.814075444E0,4.135307663E0
6.402506917E0,-1.128631027E0,1.198047709E-1,1.458782949E0,1.848298913E0
6.412536917E0,3.392615917E-1,-4.245750993E-1,3.876090020E-1,6.675351534E-1
6.422565917E0,1.460152952E0,-7.220013249E-1,-2.254212731E-1,1.644429173E0
6.432595917E0,2.246542938E0,-8.618316400E-1,-5.193447241E-1,2.461590521E0
6.442625917E0,2.557705443E0,-9.158640057E-1,-6.042442489E-1,2.783123267E0
6.452654917E0,2.338868719E0,-8.722279894E-1,-4.571271336E-1,2.537726102E0
6.462684917E0,1.612845095E0,-7.623055977E-1,-1.656332007E-1,1.791595234E0
6.472714917E0,7.314439934E-1,-6.459261256E-1,2.682348785E-1,1.012018194E0
6.482743917E0,9.358234763E-2,-5.548721141E-1,6.729358765E-1,8.772020364E-1
6.492773917E0,-3.350741082E-1,-6.098055357E-1,9.515805531E-1,1.178831200E0
6.502802917E0,-4.186881226E-1,-6.608230770E-1,1.192909176E0,1.426540986E0
6.512832917E0,-3.607319829E-1,-6.139225602E-1,1.355693614E0,1.531317618E0
6.522862917E0,-3.879835162E-1,-5.639224344E-1,1.343062458E0,1.507433742E0
6.532891917E0,-2.823871869E-1,-5.113138658E-1,1.248193139E0,1.378103952E0
6.542921917E0,-1.283922842E-1,-5.016735613E-1,1.024271384E0,1.147733771E0
6.552951917E0,7.655788690E-2,-6.558166909E-1,7.970778197E-1,1.035031252E0
6.562980917E0,3.225537577E-1,-8.651674765E-1,5.979351032E-1,1.100037307E0
6.573010917E0,5.731534338E-1,-1.036230109E0,3.686681163E-1,1.240239444E0
6.583039917E0,8.099004713E-1,-1.143106102E0,9.160131097E-2,1.403930601E0
6.593069917E0,9.443785375E-1,-1.234343131E0,-2.364464906E-1,1.572056211E0
6.603099917E0,1.036090946E0,-1.266141459E0,-4.583410156E-1,1.699021815E0
6.613128917E0,1.065701538E0,-1.300411406E0,-5.586438605E-1,1.771686359E0
6.623158917E0,9.380331391E-1,-1.346701473E0,-4.514117727E-1,1.702140892E0
6.633188917E0,7.014091855E-1,-1.282672707E0,-1.602797824E-1,1.470684782E0
6.643217917E0,3.670689029E-1,-1.200861390E0,1.214288351E-1,1.261567524E0
6.653247917E0,1.273085028E-1,-1.183046093E0,3.295192534E-1,1.234661270E0
6.663277917E0,7.022155166E-2,-1.149015883E0,4.614716148E-1,1.240211521E0
6.673306917E0,2.378697029E-1,-1.106947505E0,2.784198511E-1,1.165946992E0
6.683336917E0,3.145851722E-1,-1.031324295E0,-3.372498572E-2,1.078763648E0
6.693365875E0,2.630215010E-1,-8.880143023E-1,-3.200464717E-1,9.798874706E-1
6.703395875E0,1.722151190E-1,-7.213522840E-1,-5.808311203E-1,9.420042224E-1
6.713425875E0,2.212940159E-1,-4.961251384E-1,-7.463830447E-1,9.231461660E-1
6.723454875E0,3.485703591E-1,-4.017955166E-1,-9.040631551E-1,1.048938092E0
6.733484875E0,4.411823612E-1,-3.329737884E-1,-9.132345128E-1,1.067478663E0
6.743514875E0,3.291771913E-1,-2.406865990E-1,-7.815289038E-1,8.815186270E-1
6.753543875E0,7.207073361E-2,-1.420148349E-1,-6.012595376E-1,6.219931154E-1
6.763573875E0,-1.467879170E-1,-4.049840033E-2,-5.410393560E-1,5.620590696E-1
6.773603875E0,-3.075082871E-1,2.459865153E-2,-6.429852685E-1,7.131595164E-1
6.783632875E0,-3.418893304E-1,6.539818347E-2,-7.088982993E-1,7.897480836E-1
6.793662875E0,-3.779219198E-1,1.010048032E-1,-7.131103411E-1,8.133592726E-1
6.803691875E0,-2.740911573E-1,6.448952615E-2,-6.971924660E-1,7.519057096E-1
6.813721875E0,2.628235728E-2,1.223763764E-2,-7.204933280E-1,7.210763883E-1
6.823751875E0,3.753935838E-1,-7.844332159E-2,-7.233023304E-1,8.186818421E-1
6.833780875E0,6.330376929E-1,-1.082629520E-1,-6.814245719E-1,9.363744094E-1
6.843810875E0,8.283896595E-1,-6.432989717E-2,-6.591437566E-1,1.060583922E0
6.853840875E0,9.450690937E-1,7.678855956E-2,-6.357174718E-1,1.141572941E0
6.863869875E0,9.599642909E-1,2.239547914E-1,-6.587341592E-1,1.185587568E0
6.873899875E0,9.346940866E-1,3.655170518E-1,-6.671626282E-1,1.205139711E0
6.883928875E0,8.872258052E-1,4.501730400E-1,-5.920618674E-1,1.157740321E0
6.893958875E0,6.955160692E-1,5.743848574E-1,-3.802388790E-1,9.788984483E-1
6.903988875E0,4.313353577E-1,6.989937007E-1,-2.075337633E-1,8.471792298E-1
6.914017875E0,2.658182243E-1,7.766020399E-1,-1.698867577E-1,8.382312135E-1
6.924047875E0,5.213539736E-1,8.337422007E-1,-3.502982113E-1,1.043860556E0
6.934077875E0,1.195979257E0,8.864033943E-1,-7.616004235E-1,1.672158056E0
6.944106875E0,2.092718628E0,1.028617035E0,-1.138178068E0,2.594797406E0
6.954136875E0,2.775640233E0,1.230066478E0,-1.322301627E0,3.311453433E0
6.964166875E0,3.030826173E0,1.642652446E0,-1.013726808E0,3.593307166E0
6.974195875E0,2.295199374E0,2.160978878E0,2.784441170E-1,3.164696036E0
6.984225875E0,2.842183886E-1,2.374382368E0,2.430122998E0,3.409394302E0
6.994254875E0,-1.869144637E0,2.299549702E0,4.595939862E0,5.468481848E0
7.004284875E0,-3.150575688E0,2.003932021E0,6.058234649E0,7.116465258E0
7.014314875E0,-3.221178478E0,1.502974743E0,6.236036198E0,7.177957322E0
7.024343875E0,-2.256870583E0,1.153745695E0,5.186942214E0,5.773124240E0
7.034373875E0,-8.811818308E-1,9.954177135E-1,3.323324658E0,3.579360924E0
7.044403875E0,2.073083532E-1,8.977282816E-1,1.532394424E0,1.788050752E0
7.054432875E0,8.404401863E-1,9.239717549E-1,2.762981889E-1,1.279220153E0
7.064462875E0,9.664339426E-1,9.485552037E-1,-2.770273367E-1,1.382206817E0
7.074491875E0,5.932577692E-1,7.985840625E-1,-1.069543451E-1,1.000565099E0
7.084521875E0,2.285964574E-1,6.162088215E-1,5.027310303E-1,8.274709305E-1
7.094551875E0,1.960264429E-2,4.267502636E-1,9.114297697E-1,1.006580487E0
7.104580875E0,-1.634046806E-1,1.130553299E-1,1.282725917E0,1.298024798E0
7.114610875E0,-1.957925543E-1,-1.278973174E-1,1.669275111E0,1.685577600E0
7.124640875E0,-2.086364020E-1,-3.925563312E-1,1.927195794E0,1.977805159E0
7.134669875E0,-2.216879721E-1,-5.981666529E-1,2.040868297E0,2.138245147E0
7.144699875E0,-1.986084272E-1,-7.932595879E-1,1.989341171E0,2.150856661E0
7.154729875E0,-1.206667967E-1,-9.942365760E-1,1.771152611E0,2.034710893E0
7.164758875E0,-6.003964886E-2,-1.242550283E0,1.556252818E0,1.992350069E0
7.174788875E0,2.720490173E-2,-1.469768406E0,1.264438750E0,1.939011249E0
7.184817875E0,1.231223349E-1,-1.712885107E0,8.931119049E-1,1.935660966E0
7.194847875E0,1.817300007E-1,-1.863384837E0,4.918405911E-1,1.935752053E0
7.204877875E0,3.612216872E-1,-1.924232717E0,1.024373710E-1,1.960521888E0
7.214906875E0,6.142641838E-1,-1.968586187E0,-2.133625603E-1,2.073204197E0
7.224936875E0,8.693874121E-1,-1.924968882E0,-3.967388445E-1,2.149125724E0
7.234966875E0,1.005686009E0,-1.895531074E0,-4.089332128E-1,2.184414973E0
7.244995875E0,1.078724457E0,-1.851915523E0,-2.445849377E-1,2.157095119E0
7.255025875E0,9.602016878E-1,-1.797370942E0,2.224134654E-2,2.037897019E0
7.265055875E0,6.121964622E-1,-1.788683149E0,4.582927760E-1,1.945303108E0
7.275084875E0,3.077576709E-1,-1.708301475E0,8.871076915E-1,1.949350859E0
7.285114875E0,6.728551850E-2,-1.657027241E0,9.649198061E-1,1.918681018E0
7.295143875E0,-4.100886226E-2,-1.677590144E0,7.763968027E-1,1.848994974E0
7.305173875E0,-1.772261828E-2,-1.671711938E0,4.430166328E-1,1.729508206E0
7.315203875E0,1.704479443E-1,-1.658484952E0,-2.102892637E-2,1.667353308E0
7.325232875E0,5.392926465E-1,-1.656600979E0,-3.481458512E-1,1.776617262E0
7.335262875E0,8.837591372E-1,-1.632689375E0,-4.944209674E-1,1.921238377E0
7.345292875E0,1.036812200E0,-1.568403332E0,-5.192292416E-1,1.950504436E0
7.355321875E0,1.087293551E0,-1.405319225E0,-3.535363993E-1,1.811661496E0
7.365351875E0,9.307342060E-1,-1.260490125E0,-5.386776656E-2,1.567802046E0
7.375380875E0,7.197270504E-1,-1.078484429E0,3.196263492E-1,1.335401323E0
7.385410875E0,5.674851429E-1,-8.762397641E-1,5.895613056E-1,1.198923703E0
7.395440875E0,4.132113281E-1,-7.259674913E-1,7.475957572E-1,1.121013745E0
7.405469875E0,3.297338462E-1,-5.534430546E-1,8.199965662E-1,1.042793360E0
7.415499875E0,3.049603629E-1,-3.638312995E-1,8.655764893E-1,9.872166410E-1
7.425529875E0,1.900248608E-1,-1.926657557E-1,8.897243205E-1,9.299671540E-1
7.435558875E0,3.337444514E-2,-6.832471490E-3,9.377439943E-1,9.383625819E-1
7.445588875E0,-1.386453769E-1,9.358936429E-2,9.901101959E-1,1.004141280E0
7.455618875E0,-2.476541412E-1,1.759158218E-1,1.054732454E0,1.097606259E0
7.465647875E0,-4.156294441E-1,2.274157584E-1,1.124430680E0,1.220168068E0
7.475677875E0,-6.159182149E-1,2.614371979E-1,1.148950101E0,1.329583014E0
7.485706875E0,-7.828237697E-1,3.082055676E-1,1.102919358E0,1.387167919E0
7.495736875E0,-8.504076424E-1,3.364908886E-1,8.985542008E-1,1.282115021E0
7.505766875E0,-7.393380269E-1,4.051945031E-1,5.506360987E-1,1.006977366E0
7.515795875E0,-4.737861434E-1,4.933091193E-1,1.242884159E-1,6.951796942E-1
7.525825875E0,-2.294070277E-1,6.309660244E-1,-2.004133165E-1,7.006505589E-1
7.535855875E0,-2.687356925E-1,8.194364029E-1,-2.745402235E-1,9.050233285E-1
7.545884875E0,-4.028942084E-1,9.746630216E-1,-2.474296081E-1,1.083288124E0
7.555914875E0,-4.127201620E-1,1.092849868E0,-3.812156564E-1,1.228814120E0
7.565943875E0,-7.611525267E-2,1.204521162E0,-8.165692207E-1,1.457206249E0
7.575973875E0,4.192938942E-1,1.230912570E0,-1.472285632E0,1.964326375E0
7.586003875E0,8.079954484E-1,1.383812581E0,-1.880503730E0,2.470645297E0
7.596032875E0,7.447104487E-1,1.605758269E0,-2.006712079E0,2.675807662E0
7.606062875E0,3.808847040E-2,1.842669906E0,-1.663454208E0,2.482732973E0
7.616092875E0,-1.080235085E0,2.124966461E0,-7.050028843E-1,2.485843794E0
7.626121875E0,-2.345274929E0,2.201801798E0,5.746573377E-1,3.267793859E0
7.636151875E0,-3.560041874E0,1.977018456E0,1.993359085E0,4.533870374E0
7.646181875E0,-4.255462342E0,1.669643778E0,3.158743663E0,5.556467549E0
7.656210875E0,-4.232283394E0,1.107774301E0,3.566594557E0,5.644464843E0
7.666240875E0,-3.532384252E0,4.925250077E-1,3.128977243E0,4.744556668E0
7.676269875E0,-2.329055922E0,-6.503273249E-3,2.046764629E0,3.100611106E0
7.686299875E0,-1.129228905E0,-4.281682134E-1,6.731270805E-1,1.382601174E0
7.696330375E0,-2.244234458E-1,-7.060091901E-1,-3.623963928E-1,8.247096489E-1
7.706359375E0,4.630757985E-1,-8.715619916E-1,-1.084546237E0,1.466390139E0
7.716389375E0,8.989371935E-1,-1.043154967E0,-1.481087153E0,2.022345054E0
7.726419375E0,1.097603070E0,-1.155480564E0,-1.522178754E0,2.203836652E0
7.736448375E0,1.034014892E0,-1.210732074E0,-1.360483360E0,2.094271693E0
7.746478375E0,7.339772996E-1,-1.242435678E0,-1.033188972E0,1.774781266E0
7.756507375E0,3.430757305E-1,-1.170604972E0,-6.076911825E-1,1.362829971E0
7.766537375E0,1.240852252E-1,-1.056701796E0,-3.107496911E-1,1.108413821E0
7.776567375E0,4.299603850E-2,-9.874608225E-1,-1.726951754E-1,1.003369901E0
7.786596375E0,-4.335505754E-2,-8.886329377E-1,6.532100022E-2,8.920846328E-1
7.796626375E0,-1.132231450E-1,-7.250459701E-1,2.835004967E-1,7.866915984E-1
7.806656375E0,-1.833926564E-1,-6.063048077E-1,4.266453061E-1,7.637176202E-1
7.816685375E0,-2.986462471E-1,-4.943879306E-1,5.704230765E-1,8.117829100E-1
7.826715375E0,-4.310055748E-1,-4.385101837E-1,6.822461057E-1,9.184316716E-1
7.836745375E0,-5.087989783E-1,-4.468079674E-1,7.219697499E-1,9.898252775E-1
7.846774375E0,-5.324734774E-1,-4.614575815E-1,6.253176141E-1,9.420685868E-1
7.856804375E0,-5.331818676E-1,-5.243256748E-1,4.689385092E-1,8.826684783E-1
7.866833375E0,-4.667914116E-1,-6.289914197E-1,2.006384343E-1,8.085667624E-1
7.876863375E0,-2.694747806E-1,-8.082980418E-1,-1.696628094E-1,8.687622521E-1
7.886893375E0,-1.813133866E-2,-9.896295547E-1,-4.776520300E-1,1.099020866E0
7.896922375E0,1.807622865E-1,-1.145983517E0,-6.256070513E-1,1.318080956E0
7.906952375E0,3.717086685E-1,-1.301341698E0,-7.916331849E-1,1.567909643E0
7.916982375E0,5.729303625E-1,-1.421248210E0,-9.253657311E-1,1.790111005E0
7.927011375E0,7.747835559E-1,-1.440114836E0,-9.629949027E-1,1.897782781E0
7.937041375E0,8.809532046E-1,-1.396263642E0,-9.748764449E-1,1.917293611E0
7.947070375E0,9.541831487E-1,-1.244046001E0,-1.002621483E0,1.861012029E0
7.957100375E0,1.066750236E0,-1.038429247E0,-1.044381713E0,1.818522623E0
7.967130375E0,1.092991663E0,-8.236417204E-1,-1.138486801E0,1.780215901E0
7.977159375E0,1.180517465E0,-5.919019461E-1,-1.232614402E0,1.806462748E0
7.987189375E0,1.274364399E0,-3.889164394E-1,-1.268949292E0,1.839970903E0
7.997219375E0,1.243405146E0,-2.467045534E-1,-1.184252958E0,1.734754900E0
8.007248375E0,1.093431081E0,-1.134459239E-1,-9.486692244E-1,1.452045042E0
8.017278375E0,9.110675347E-1,7.372169495E-2,-6.259789342E-1,1.107848621E0
8.027307375E0,6.611923286E-1,2.714476311E-1,-2.122515893E-1,7.455936219E-1
8.037337375E0,3.356088361E-1,4.930980349E-1,1.831321630E-1,6.239522033E-1
8.047367375E0,-6.732747227E-2,6.588625056E-1,4.381514570E-1,7.941092425E-1
8.057396375E0,-3.767457524E-1,8.564820224E-1,5.588230777E-1,1.089854141E0
8.067426375E0,-5.354578963E-1,1.017408507E0,4.342116031E-1,1.228973126E0
8.077456375E0,-5.538576221E-1,1.060790169E0,8.194901973E-2,1.199478925E0
8.087485375E0,-4.049319631E-1,1.138359332E0,-2.441630611E-1,1.232658697E0
8.097515375E0,-2.460084423E-1,1.154297673E0,-6.108024859E-1,1.328910436E0
8.107544375E0,-1.375545788E-1,1.138010838E0,-8.550637802E-1,1.430078319E0
8.117574375E0,-6.782770157E-4,1.144793023E0,-8.436497229E-1,1.422074675E0
8.127604375E0,1.292617652E-1,1.063354173E0,-7.734240782E-1,1.321217434E0
8.137633375E0,2.053448582E-1,9.609577328E-1,-5.939543188E-1,1.148210785E0
8.147663375E0,3.816392872E-1,8.823191142E-1,-3.829560801E-1,1.034790280E0
8.157693375E0,5.812807712E-1,7.346137691E-1,-2.773907411E-1,9.769802188E-1
8.167722375E0,7.975897434E-1,6.328388876E-1,-2.726047951E-1,1.054015100E0
8.177752375E0,9.624625137E-1,5.920662528E-1,-3.403918585E-1,1.180145396E0
8.187781375E0,9.575868130E-1,5.384198034E-1,-3.225844556E-1,1.144958130E0
8.197811375E0,8.774238253E-1,4.859235013E-1,-2.576508334E-1,1.035556937E0
8.207841375E0,1.047535993E0,4.048734909E-1,-1.894009629E-1,1.138914802E0
8.217870375E0,1.473355965E0,3.394185895E-1,-1.598359787E-1,1.520371770E0
8.227900375E0,1.941502469E0,4.070778912E-1,3.182697952E-2,1.983975101E0
8.237930375E0,2.194729883E0,6.111515647E-1,2.673241746E-1,2.293863054E0
8.247959375E0,2.108916146E0,9.904779857E-1,5.079879695E-1,2.384664700E0
8.257989375E0,1.479183592E0,1.497869539E0,1.035140773E0,2.345871624E0
8.268018375E0,2.146042165E-1,1.876264499E0,2.019634718E0,2.765022212E0
8.278048375E0,-9.553783196E-1,1.937018239E0,3.094419613E0,3.773621621E0
8.288078375E0,-1.788559772E0,1.684462962E0,3.942473459E0,4.645369577E0
8.298107375E0,-2.063371307E0,1.334826363E0,4.336292204E0,4.984244441E0
8.308137375E0,-1.856293626E0,9.681199872E-1,4.185821711E0,4.680190779E0
8.318167375E0,-1.426293772E0,7.737427515E-1,3.557188433E0,3.909805791E0
8.328196375E0,-9.221497625E-1,6.893107116E-1,2.464830316E0,2.720459139E0
8.338226375E0,-5.965434659E-1,6.466254526E-1,1.526336124E0,1.761729419E0
8.348255375E0,-3.555624595E-1,6.500010502E-1,7.811657917E-1,1.076636439E0
8.358285375E0,-1.700607124E-1,5.875867009E-1,2.669826972E-1,6.674268032E-1
8.368315375E0,-1.043473640E-1,4.855352461E-1,9.226087689E-2,5.051187158E-1
8.378344375E0,-1.563475299E-1,3.065262473E-1,1.303063703E-1,3.679438007E-1
8.388374375E0,-3.236302301E-1,1.337614900E-1,2.950838310E-1,4.579335425E-1
8.398404375E0,-4.914529207E-1,-5.607479811E-3,4.531130201E-1,6.684824800E-1
8.408433375E0,-5.599603611E-1,-1.855286443E-1,5.120424289E-1,7.811299078E-1
8.418463375E0,-5.232038864E-1,-3.721343458E-1,4.477084386E-1,7.827318341E-1
8.428492375E0,-4.458452234E-1,-5.892613435E-1,2.900891393E-1,7.938252975E-1
8.438522375E0,-2.046347138E-1,-8.317787057E-1,9.970379770E-2,8.623642088E-1
8.448552375E0,1.193501499E-1,-1.090828485E0,-1.469253266E-1,1.107130658E0
8.458581375E0,4.285058901E-1,-1.341488096E0,-3.840404463E-1,1.459689923E0
8.468611375E0,6.841935208E-1,-1.552077321E0,-4.496327573E-1,1.754774744E0
8.478641375E0,8.541735417E-1,-1.738760791E0,-4.626375496E-1,1.991716604E0
8.488670375E0,9.456488451E-1,-1.906735509E0,-5.446611214E-1,2.196940549E0
8.498700375E0,1.066943779E0,-2.039652076E0,-6.346304744E-1,2.387740660E0
8.508729375E0,1.224379476E0,-2.102427784E0,-6.867703888E-1,2.528035058E0
8.518759375E0,1.351845561E0,-2.125441255E0,-7.450074872E-1,2.626789505E0
8.528789375E0,1.415770831E0,-2.115472337E0,-7.683858249E-1,2.658956004E0
8.538818375E0,1.469660524E0,-2.073621476E0,-7.746151561E-1,2.657035326E0
8.548848375E0,1.513307358E0,-2.020556239E0,-6.998187429E-1,2.619636034E0
8.558878375E0,1.512793680E0,-1.980603969E0,-6.159065205E-1,2.567231513E0
8.568907375E0,1.434010051E0,-1.890428794E0,-5.134153551E-1,2.427694622E0
8.578937375E0,1.271290517E0,-1.742497162E0,-4.030760568E-1,2.194298577E0
8.588966375E0,1.059619849E0,-1.546077493E0,-2.572997081E-1,1.891917805E0
8.598996375E0,9.065262946E-1,-1.311914633E0,-1.290381092E-1,1.599862732E0
8.609026375E0,7.646240187E-1,-1.185838138E0,-1.038243306E-1,1.414793791E0
8.619055375E0,6.200127277E-1,-9.929420024E-1,-9.606098235E-2,1.174554092E0
8.629085375E0,5.337744829E-1,-7.693438911E-1,-1.163806415E-1,9.435834225E-1
8.639115375E0,4.285865816E-1,-6.245972371E-1,-1.425042468E-1,7.707889639E-1
8.649144375E0,3.429058689E-1,-3.847251552E-1,-7.729317427E-2,5.211258147E-1
8.659174375E0,2.249865326E-1,-1.896877688E-1,6.543034315E-2,3.014656188E-1
8.669203375E0,7.839595914E-2,-7.601848125E-2,3.230592495E-1,3.410161501E-1
8.679233375E0,-8.144966751E-2,3.224447072E-2,7.464523342E-1,7.515749074E-1
8.689263375E0,-3.118419510E-1,1.468270934E-1,1.158903817E0,1.209074710E0
8.699291917E0,-5.861354220E-1,3.331053507E-1,1.547247814E0,1.687746931E0
8.709321917E0,-8.428211725E-1,5.043621111E-1,1.694676878E0,1.958738979E0
8.719351917E0,-9.334003901E-1,5.868189615E-1,1.620923608E0,1.960353571E0
8.729380917E0,-9.479307210E-1,6.602120429E-1,1.436263860E0,1.843178361E0
8.739410917E0,-9.957694235E-1,6.772683710E-1,1.246771388E0,1.733403613E0
8.749439917E0,-1.146611215E0,5.584646434E-1,1.090429121E0,1.677985609E0
8.759469917E0,-1.278314778E0,4.122193480E-1,8.595330995E-1,1.594619268E0
8.769499917E0,-1.209598592E0,2.852517378E-1,4.703763396E-1,1.328815716E0
8.779528917E0,-9.085014841E-1,2.398943013E-1,-3.485232890E-3,9.396469386E-1
8.789558917E0,-6.692392668E-1,3.136241823E-1,-3.040534598E-1,7.991807245E-1
8.799588917E0,-5.364194709E-1,5.049456632E-1,-2.881314915E-1,7.910345934E-1
8.809617917E0,-4.298276532E-1,6.862268901E-1,-6.531369120E-2,8.123577010E-1
8.819647917E0,-1.170422539E-1,8.812560904E-1,-4.354421496E-2,8.900602703E-1
8.829676917E0,3.208434471E-1,1.103819245E0,-2.887378478E-1,1.185211790E0
8.839706917E0,7.283569559E-1,1.333952204E0,-6.153902113E-1,1.639706513E0
8.849736917E0,7.644676057E-1,1.624148932E0,-7.422975951E-1,1.942492263E0
8.859765917E0,-2.189019200E-1,1.878760090E0,-5.867914796E-2,1.892379658E0
8.869795917E0,-1.840697933E0,1.933561365E0,1.187377126E0,2.921761946E0
8.879825917E0,-3.266636779E0,1.736699063E0,2.452469594E0,4.438653691E0
8.889854917E0,-4.089730615E0,1.387635491E0,3.628185033E0,5.640492478E0
8.899884917E0,-4.325899071E0,1.038630391E0,4.281124894E0,6.174154697E0
8.909913917E0,-4.156191823E0,5.349009490E-1,4.250069162E0,5.968512158E0
8.919943917E0,-3.535487369E0,1.290831327E-2,3.806282451E0,5.194961372E0
8.929973917E0,-2.362039188E0,-4.544134408E-1,2.732934802E0,3.640694073E0
8.940002917E0,-1.213581423E0,-9.059178919E-1,1.388867499E0,2.054852799E0
8.950032917E0,-2.711193100E-1,-1.138201457E0,3.020086884E-1,1.208394590E0
8.960062917E0,5.407841250E-1,-1.295155343E0,-7.253149420E-1,1.579859677E0
8.970091917E0,1.159663370E0,-1.407841129E0,-1.614999794E0,2.436197880E0
8.980121917E0,1.518521320E0,-1.419859496E0,-2.249957712E0,3.063367052E0
8.990150917E0,1.532838228E0,-1.366910620E0,-2.623830143E0,3.332044762E0
9.000180917E0,1.182477451E0,-1.341847699E0,-2.690864085E0,3.231030439E0
9.010210917E0,7.664141437E-1,-1.359898054E0,-2.308088391E0,2.786392898E0
9.020239917E0,5.367059845E-1,-1.361990772E0,-1.713668342E0,2.253825939E0
9.030269917E0,4.618546075E-1,-1.370036541E0,-1.307836785E0,1.949550425E0
9.040298917E0,4.705897629E-1,-1.368322722E0,-1.021188147E0,1.771041227E0
9.050328917E0,6.194019860E-1,-1.360971018E0,-8.304192281E-1,1.710408439E0
9.060358917E0,8.108149758E-1,-1.320075592E0,-7.453153431E-1,1.719161265E0
9.070387917E0,9.815253139E-1,-1.266016329E0,-7.541370374E-1,1.770568259E0
9.080417917E0,1.036697010E0,-1.218889525E0,-7.091801351E-1,1.750248219E0
9.090447917E0,1.085615985E0,-1.186448588E0,-6.116383454E-1,1.720559149E0
9.100476917E0,1.108015791E0,-1.181124113E0,-5.352272236E-1,1.705643968E0
9.110506917E0,1.027202593E0,-1.127860656E0,-3.711604920E-1,1.570023866E0
9.120535917E0,8.082641280E-1,-1.140620450E0,-1.844474941E-1,1.410080420E0
9.130565917E0,6.562499696E-1,-1.127829081E0,5.333420813E-2,1.305950611E0
9.140595917E0,6.146022990E-1,-1.107881890E0,2.370619100E-1,1.288928476E0
9.150624917E0,6.199308667E-1,-1.056280212E0,3.415095538E-1,1.271483756E0
9.160654917E0,6.195341331E-1,-9.061997277E-1,3.976124185E-1,1.167525642E0
9.170684917E0,6.399504174E-1,-7.220691526E-1,3.234463352E-1,1.017613841E0
9.180713917E0,7.238787197E-1,-4.815111923E-1,1.550085175E-1,8.831087530E-1
9.190743917E0,7.473491509E-1,-1.405705726E-1,-3.652112424E-2,7.613308294E-1
9.200772917E0,6.188693047E-1,1.667280918E-1,-2.428991854E-1,6.854177464E-1
9.210802917E0,2.710741402E-1,3.734844679E-1,-1.724700576E-1,4.926639402E-1
9.220832917E0,-2.224451865E-1,6.277535641E-1,3.177072930E-1,7.378985854E-1
9.230861917E0,-6.952741407E-1,9.035275501E-1,5.544797659E-1,1.267760220E0
9.240891917E0,-8.903334542E-1,1.138502589E0,5.317206484E-1,1.540002809E0
9.250921917E0,-8.458658177E-1,1.395777154E0,2.452070814E-1,1.650396727E0
9.260950917E0,-7.512385726E-1,1.533245194E0,-3.883896053E-1,1.751013051E0
9.270980917E0,-5.618696232E-1,1.562142718E0,-1.018520940E0,1.947658145E0
9.281009917E0,-3.779219198E-1,1.634286250E0,-1.530304044E0,2.270582963E0
9.291039917E0,-2.894054537E-1,1.784443917E0,-1.916724600E0,2.634735054E0
9.301069917E0,-2.922080241E-1,1.829736450E0,-2.397443202E0,3.030025563E0
9.311098917E0,-3.365191014E-1,1.718701333E0,-2.740956012E0,3.252694151E0
9.321128917E0,-4.015953957E-1,1.597850495E0,-2.849293224E0,3.291333611E0
9.331158917E0,-4.162379931E-1,1.426998947E0,-2.931598631E0,3.286921142E0
9.341187917E0,-2.521027029E-1,1.215792840E0,-2.937189739E0,3.188854271E0
9.351217917E0,6.872203320E-2,1.150984055E0,-2.849326260E0,3.073783849E0
9.361246917E0,3.155574180E-1,1.185113668E0,-2.705458735E0,2.970450784E0
9.371276917E0,4.038752250E-1,1.217809544E0,-2.421796271E0,2.740670075E0
9.381306917E0,4.567578819E-1,1.226811917E0,-2.079314910E0,2.457080735E0
9.391335917E0,3.196628943E-1,1.314124880E0,-1.770813181E0,2.228202838E0
9.401365917E0,1.858185200E-1,1.344359078E0,-1.644015140E0,2.131810412E0
9.411395917E0,1.130744796E-1,1.412071590E0,-1.507689353E0,2.068782057E0
9.421424917E0,5.635005578E-2,1.627844957E0,-1.385909393E0,2.138644285E0
9.431454917E0,2.697972545E-1,1.785849588E0,-1.579724126E0,2.399495285E0
9.441483917E0,7.177907449E-1,1.918841584E0,-1.924133314E0,2.810598796E0
9.451513917E0,1.407195012E0,2.057310083E0,-2.215469665E0,3.334820597E0
9.461543917E0,2.031409549E0,2.182805364E0,-1.998095330E0,3.589380025E0
9.471572917E0,2.221296415E0,2.454691536E0,-6.908754265E-1,3.381860015E0
9.481602917E0,1.687053863E0,2.500261227E0,1.479943730E0,3.359715819E0
9.491632917E0,6.426169670E-1,2.018084037E0,3.783532689E0,4.335981937E0
9.501661917E0,-2.821881623E-1,1.371815849E0,5.605629752E0,5.777940273E0
9.511691917E0,-6.449076138E-1,7.442599207E-1,6.350252784E0,6.426160525E0
9.521720917E0,-8.488189539E-1,1.197667640E-1,6.083636708E0,6.143734474E0
9.531750917E0,-8.254748225E-1,-4.134045786E-1,5.222897912E0,5.303864123E0
9.541780917E0,-2.990314324E-1,-7.368053055E-1,4.097452156E0,4.173896983E0
9.551809917E0,3.801027851E-1,-8.370049471E-1,2.919805967E0,3.061098217E0
9.561839917E0,8.677249025E-1,-9.814393598E-1,1.882277775E0,2.293281349E0
9.571868917E0,1.158121313E0,-1.079486057E0,1.461357771E0,2.154553702E0
9.581898917E0,1.254544823E0,-1.076223310E0,1.420997365E0,2.179764399E0
9.591928917E0,1.077566416E0,-1.083896611E0,1.508876923E0,2.147717582E0
9.601957917E0,9.148480520E-1,-1.115793173E0,1.498174764E0,2.080016583E0
9.611987917E0,8.847639813E-1,-1.126908730E0,1.435982024E0,2.028490809E0
9.622017917E0,9.221168719E-1,-1.165139580E0,1.235464042E0,1.932413301E0
9.632046917E0,8.470427160E-1,-1.256445606E0,9.365116936E-1,1.781345300E0
9.642076917E0,6.002531587E-1,-1.154239785E0,8.206052613E-1,1.538169799E0
9.652105917E0,2.879570983E-1,-1.177812250E0,5.261196005E-1,1.321727211E0
9.662135917E0,2.192080949E-1,-1.242833288E0,2.976840878E-1,1.296650526E0
9.672165917E0,2.746130213E-1,-1.321756082E0,2.039731014E-1,1.365304536E0
9.682194917E0,3.964228025E-1,-1.533543987E0,7.200144410E-2,1.585588977E0
9.692224917E0,6.241961181E-1,-1.814968137E0,7.701367736E-3,1.919320047E0
9.702255500E0,8.121444865E-1,-1.978928742E0,6.879366159E-2,2.140203308E0
9.712284500E0,8.191470388E-1,-2.163687308E0,1.213303095E-1,2.316735997E0
9.722314500E0,8.149664258E-1,-2.343844700E0,3.070893341E-1,2.500416388E0
9.732343500E0,9.673129253E-1,-2.333102195E0,7.441885847E-1,2.633035662E0
9.742373500E0,1.057878841E0,-2.313294752E0,8.918009591E-1,2.695505371E0
9.752403500E0,1.092198050E0,-2.352633065E0,6.729823619E-1,2.679679865E0
9.762432500E0,1.135243789E0,-2.230608691E0,3.525414956E-1,2.527583648E0
9.772462500E0,1.044329088E0,-2.103646343E0,-1.085652530E-1,2.351114118E0
9.782491500E0,9.300864076E-1,-1.996839933E0,-4.444035923E-1,2.247203817E0
9.792521500E0,8.204995729E-1,-1.818132650E0,-4.050722963E-1,2.035413827E0
9.802551500E0,6.943898955E-1,-1.650256750E0,-1.824050617E-1,1.799665601E0
9.812580500E0,5.808789578E-1,-1.683861283E0,4.337639987E-2,1.781766173E0
9.822610500E0,6.087832231E-1,-1.643435388E0,2.847985786E-1,1.775558255E0
9.832640500E0,6.219915716E-1,-1.636644432E0,2.407789850E-1,1.767329350E0
9.842669500E0,4.673758774E-1,-1.421498471E0,7.648742795E-3,1.496381174E0
9.852699500E0,2.868022732E-3,-1.159202317E0,-8.676852876E-1,1.447976518E0
9.862728500E0,-3.708970384E-1,-1.041754559E0,-1.843241764E0,2.149501657E0
9.872758500E0,-3.347657407E-1,-7.323970896E-1,-1.967817278E0,2.126212228E0
9.882788500E0,-1.204979218E-1,-6.321337134E-1,-1.731446509E0,1.847165340E0
9.892817500E0,1.921658188E-1,-6.842312354E-1,-1.211244875E0,1.404355451E0
9.902847500E0,4.667799365E-1,-7.197764593E-1,-4.434043032E-1,9.656961409E-1
9.912877500E0,6.543469202E-1,-7.980706769E-1,1.854947305E-1,1.048568068E0
9.922906500E0,7.451739867E-1,-8.710708255E-1,7.291928154E-1,1.358591482E0
9.932936500E0,6.770460306E-1,-9.910217768E-1,1.363567182E0,1.816543682E0
9.942965500E0,5.824645035E-1,-1.101565728E0,1.942242726E0,2.307600216E0
9.952995500E0,5.758722064E-1,-1.286317277E0,2.330337632E0,2.723364539E0
9.963025500E0,6.538379931E-1,-1.454404262E0,2.502652153E0,2.967501252E0
9.973054500E0,7.614813595E-1,-1.426133559E0,2.422302639E0,2.912260439E0
9.983084500E0,7.887352317E-1,-1.310461600E0,1.956336855E0,2.483277423E0
9.993114500E0,7.324573890E-1,-1.066514593E0,1.496639285E0,1.978351929E0
1.000314350E1,5.449319571E-1,-7.221872663E-1,1.366436411E0,1.638796433E0
1.001317350E1,2.838854994E-1,-4.185758561E-1,1.595496991E0,1.673740533E0
1.002320250E1,8.411497459E-2,-1.682659096E-1,1.928681864E0,1.937834481E0
1.003323250E1,4.103036905E-2,4.140881181E-2,2.149271582E0,2.150061979E0
1.004326250E1,3.299760671E-1,3.051620919E-1,1.838976220E0,1.893103707E0
1.005329150E1,9.577563822E-1,5.989805853E-1,7.465543681E-1,1.354037833E0
1.006332150E1,1.299598058E0,8.531906247E-1,-4.139173794E-1,1.608793632E0
1.007335050E1,1.142339824E0,1.136434429E0,-1.083183836E0,1.941574286E0
1.008338050E1,2.336931829E-1,1.313949464E0,-6.343305123E-1,1.477650465E0
1.009341050E1,-9.251276033E-1,1.266685250E0,3.916921127E-1,1.616717451E0
1.010343950E1,-2.192262358E0,7.971345377E-1,1.529325221E0,2.789314136E0
1.011346950E1,-2.823906660E0,3.069478315E-1,2.871710864E0,4.039231249E0
1.012349950E1,-2.587820942E0,3.182288647E-2,3.672205212E0,4.492540600E0
1.013352850E1,-2.047986990E0,-2.388722080E-1,3.495897626E0,4.058646432E0
1.014355850E1,-1.179172678E0,-4.063159990E-1,2.403085181E0,2.707463625E0
1.015358750E1,-2.281155239E-1,-3.672402263E-1,1.202347752E0,1.277709745E0
1.016361750E1,2.744795952E-1,-2.347920209E-1,4.024170756E-1,5.407456371E-1
1.017364750E1,5.265187826E-1,-1.850187671E-1,-9.442083836E-2,5.660117202E-1
1.018367650E1,5.596608010E-1,-1.815338266E-1,-2.617979711E-1,6.439820805E-1
1.019370650E1,2.533651533E-1,-2.394159991E-1,-1.913951558E-1,3.976757814E-1
1.020373650E1,-3.464394875E-1,-2.815539587E-1,5.745298684E-2,4.501042055E-1
1.021376550E1,-8.304298992E-1,-3.233866936E-1,-8.548044562E-3,8.912159336E-1
1.022379550E1,-1.015087162E0,-4.578972119E-1,-2.922379911E-1,1.151292685E0
1.023382450E1,-1.038514324E0,-5.700549942E-1,-4.366572011E-1,1.262594238E0
1.024385450E1,-8.486036302E-1,-6.711521834E-1,-5.672728890E-1,1.221626745E0
1.025388450E1,-5.461773775E-1,-7.805395550E-1,-6.890756536E-1,1.175745287E0
1.026391350E1,-2.480330408E-1,-8.209993637E-1,-7.068219531E-1,1.111376452E0
1.027394350E1,-8.714715790E-2,-9.200096816E-1,-6.887534720E-1,1.152559667E0
1.028397350E1,1.912177659E-1,-9.769995689E-1,-5.110162425E-1,1.119030827E0
1.029400250E1,4.558293806E-1,-1.092490264E0,-2.641006047E-1,1.212874491E0
1.030403250E1,6.433342011E-1,-1.215737876E0,-1.893404442E-1,1.388433391E0
1.031406150E1,7.866743074E-1,-1.221155906E0,-3.126857042E-1,1.485883765E0
1.032409150E1,7.885125259E-1,-1.290502714E0,-5.654356939E-1,1.614579444E0
1.033412150E1,7.400801848E-1,-1.357221783E0,-7.670979756E-1,1.725748809E0
1.034415050E1,7.396494643E-1,-1.334614694E0,-8.468007874E-1,1.745092916E0
1.035418050E1,7.376302745E-1,-1.303256661E0,-9.275812411E-1,1.761528684E0
1.036421050E1,7.962260266E-1,-1.265477800E0,-1.023184386E0,1.811716379E0
1.037423950E1,9.556228063E-1,-1.213238776E0,-1.093486630E0,1.892320344E0
1.038426950E1,1.120917673E0,-1.180548747E0,-1.115435908E0,1.973410509E0
1.039429850E1,1.262242828E0,-1.094598185E0,-1.042967271E0,1.969564133E0
1.040432850E1,1.380715457E0,-1.004493177E0,-1.022140074E0,1.990013077E0
1.041435850E1,1.489698786E0,-9.673119020E-1,-1.025819727E0,2.051146241E0
1.042438750E1,1.484215267E0,-8.458921301E-1,-9.672160077E-1,1.963144228E0
1.043441750E1,1.309956254E0,-6.735741001E-1,-9.936723197E-1,1.776815166E0
1.044444750E1,1.126266194E0,-5.812986052E-1,-9.985781336E-1,1.613549471E0
1.045447650E1,9.543135417E-1,-5.136574298E-1,-8.868372577E-1,1.400370884E0
1.046450650E1,7.836069312E-1,-4.553957731E-1,-6.559283727E-1,1.118779318E0
1.047453650E1,6.399513676E-1,-4.211655879E-1,-4.008921218E-1,8.646575615E-1
1.048456550E1,6.591392981E-1,-3.393098313E-1,-1.838458157E-1,7.638030243E-1
1.049459550E1,7.374250372E-1,-2.383816266E-1,-1.827944863E-1,7.962633419E-1
1.050462450E1,7.851620713E-1,-1.044394577E-1,-3.265260637E-1,8.567417048E-1
1.051465450E1,8.020606707E-1,3.876879394E-2,-4.257837188E-1,9.088982969E-1
1.052468450E1,8.246826710E-1,1.566656184E-1,-5.009824204E-1,9.775627905E-1
1.053471350E1,7.895238749E-1,1.776922059E-1,-4.714083731E-1,9.365619698E-1
1.054474350E1,7.602678430E-1,1.983188438E-1,-5.276749599E-1,9.464557149E-1
1.055477350E1,7.155851021E-1,2.269625992E-1,-7.046187222E-1,1.029592931E0
1.056480250E1,8.211193778E-1,2.949575311E-1,-9.602999210E-1,1.297464033E0
1.057483250E1,9.994302191E-1,3.635056096E-1,-1.214905817E0,1.614618604E0
1.058486150E1,1.202523826E0,4.539257830E-1,-1.288135176E0,1.819726463E0
1.059489150E1,1.493844755E0,5.584582114E-1,-1.088028839E0,1.930609872E0
1.060492150E1,1.581398623E0,5.578319746E-1,-7.311089480E-1,1.829349177E0
1.061495050E1,1.593301654E0,4.461156571E-1,-1.796983856E-1,1.664307919E0
1.062498050E1,1.599527476E0,3.328568441E-1,4.938692826E-1,1.706806578E0
1.063501050E1,1.605394573E0,1.841299903E-1,1.160864680E0,1.989673941E0
1.064503950E1,1.622422834E0,1.562253231E-1,1.637929065E0,2.310730150E0
1.065506950E1,1.634175445E0,2.587936717E-1,1.861176344E0,2.490277280E0
1.066509850E1,1.876897752E0,4.949141800E-1,1.686807695E0,2.571576446E0
1.067512850E1,2.377903562E0,9.085128862E-1,1.107915804E0,2.776202161E0
1.068515850E1,2.913387770E0,1.530101731E0,3.873289204E-1,3.313466961E0
1.069518750E1,3.167454553E0,2.307500162E0,-8.836312294E-3,3.918852309E0
1.070521750E1,2.824371806E0,2.700345930E0,5.035294676E-1,3.939858648E0
1.071524750E1,1.666046717E0,2.373979495E0,2.477830138E0,3.814594671E0
1.072527650E1,3.571065995E-1,1.543669610E0,4.993126311E0,5.238487505E0
1.073530650E1,-4.807101238E-1,7.694976729E-1,7.040611317E0,7.098832060E0
1.074533550E1,-8.031554157E-1,3.581074601E-1,8.066734514E0,8.114524342E0
1.075536550E1,-6.278270929E-1,1.638038993E-1,7.535634840E0,7.563517106E0
1.076539550E1,-2.391150867E-1,7.523144603E-2,5.688790607E0,5.694310701E0
1.077542450E1,2.972674736E-1,1.221892655E-1,3.777405977E0,3.791054481E0
1.078545450E1,7.293869430E-1,9.992306828E-2,2.616664672E0,2.718257519E0
1.079548450E1,8.312496058E-1,-2.161832571E-2,2.026772414E0,2.190718987E0
1.080551350E1,5.914772920E-1,-1.638290423E-1,1.868673059E0,1.966881883E0
1.081554350E1,1.889552589E-1,-2.779854029E-1,1.728738663E0,1.761112529E0
1.082557250E1,-1.922071879E-1,-4.453870940E-1,1.454391983E0,1.533156647E0
1.083560250E1,-3.938951243E-1,-5.985800511E-1,1.260063279E0,1.449555419E0
1.084563250E1,-3.353282429E-1,-7.563484544E-1,1.068991474E0,1.351758405E0
1.085566150E1,-2.537983954E-1,-9.385301524E-1,1.110693231E0,1.476107017E0
1.086569150E1,-2.892695790E-1,-1.126560820E0,1.333863911E0,1.769748317E0
1.087572150E1,-3.743030050E-1,-1.230617285E0,1.366974354E0,1.877003071E0
1.088575050E1,-4.694237550E-1,-1.396112784E0,1.237687739E0,1.923892020E0
1.089578050E1,-4.285870202E-1,-1.564974525E0,1.069879666E0,1.943572638E0
1.090580950E1,-3.084287851E-1,-1.740409706E0,7.596193868E-1,1.923844035E0
1.091583950E1,-1.926976962E-1,-1.875666329E0,3.099883837E-1,1.910850433E0
1.092586950E1,-1.143917841E-1,-2.020640439E0,-1.499343038E-1,2.029421977E0
1.093589850E1,-1.071195289E-2,-2.136259189E0,-5.218791997E-1,2.199107993E0
1.094592850E1,8.000438198E-2,-2.254363589E0,-8.664743292E-1,2.416471323E0
1.095595850E1,2.438142016E-1,-2.374934345E0,-9.627586752E-1,2.574230521E0
1.096598750E1,3.995166374E-1,-2.489413472E0,-8.893112147E-1,2.673512188E0
1.097601750E1,3.108109407E-1,-2.680333250E0,-6.573147476E-1,2.777202270E0
1.098604650E1,1.845237272E-1,-2.784973851E0,-3.666367936E-1,2.815057885E0
1.099607650E1,1.661524335E-1,-2.779036589E0,-2.792829001E-1,2.797972468E0
1.100610650E1,1.583685469E-1,-2.706077955E0,-4.168468344E-1,2.742571746E0
1.101613550E1,1.603325535E-1,-2.420917434E0,-6.017895877E-1,2.499739678E0
1.102616550E1,1.261276576E-1,-2.205918823E0,-8.736494476E-1,2.375973358E0
1.103619550E1,1.760666069E-1,-2.013694532E0,-1.050739975E0,2.278161455E0
1.104622450E1,1.448966351E-1,-1.802460943E0,-9.882496119E-1,2.060703225E0
1.105625450E1,5.861855619E-2,-1.630915330E0,-7.094543695E-1,1.779507362E0
1.106628350E1,9.389941290E-2,-1.540686361E0,-2.994838607E-1,1.572330164E0
1.107631350E1,2.523430965E-1,-1.489010423E0,1.267044854E-1,1.515547130E0
1.108634350E1,3.348364189E-1,-1.410945416E0,4.159428549E-1,1.508605599E0
1.109637250E1,3.342958438E-1,-1.330132218E0,6.432364064E-1,1.514846033E0
1.110640250E1,2.688631618E-1,-1.114405044E0,7.765488303E-1,1.384635001E0
1.111643250E1,2.472582847E-2,-8.997876710E-1,6.044208348E-1,1.084229572E0
1.112646150E1,-1.885767978E-1,-7.561975962E-1,4.300346446E-1,8.901268498E-1
1.113649150E1,-4.033511683E-1,-5.620975184E-1,3.674559885E-1,7.833707224E-1
1.114652050E1,-7.157203920E-1,-5.001848602E-1,2.529493797E-1,9.090786339E-1
1.115655050E1,-8.581167577E-1,-5.398816073E-1,1.895526981E-1,1.031390685E0
1.116658050E1,-7.418242630E-1,-7.754910690E-1,1.576058507E-1,1.084679326E0
1.117660950E1,-4.333530857E-1,-1.164097606E0,-1.945953369E-2,1.242294976E0
1.118663950E1,5.891566783E-2,-1.530611023E0,-2.378641480E-1,1.550103388E0
1.119666950E1,7.090849717E-1,-1.777167642E0,-4.534948432E-1,1.966413969E0
1.120669850E1,1.318433401E0,-1.943145536E0,-5.456569022E-1,2.410772213E0
1.121672850E1,1.733069696E0,-2.131018329E0,-4.203218347E-1,2.778747944E0
1.122675750E1,1.884679373E0,-2.063850194E0,7.668389440E-2,2.795956792E0
1.123678750E1,1.728968020E0,-1.583624219E0,8.205198920E-1,2.484038844E0
1.124681750E1,1.445184664E0,-9.367701405E-1,1.018767400E0,2.000995758E0
1.125684650E1,1.608177263E0,-1.351847023E-1,1.445969653E-1,1.620313949E0
1.126687650E1,1.884252526E0,6.968121046E-1,-1.138406695E0,2.309096034E0
1.127690650E1,1.343525558E0,1.564734204E0,-1.982683239E0,2.860854222E0
1.128693550E1,-1.010949965E-1,2.049207011E0,-1.408514144E0,2.488650572E0
1.129696550E1,-1.668559266E0,1.943385272E0,6.426499307E-1,2.640802013E0
1.130699450E1,-3.281400999E0,1.457497439E0,3.486873618E0,5.005015377E0
1.131702450E1,-4.483494689E0,8.821366811E-1,6.157444357E0,7.667725266E0
1.132705450E1,-4.606605768E0,4.839909965E-1,7.727741017E0,9.009608494E0
1.133708350E1,-3.943603726E0,3.232416826E-1,8.176558673E0,9.083645043E0
1.134711350E1,-3.302747721E0,2.863299644E-1,7.594185934E0,8.286240846E0
1.135714350E1,-2.519138378E0,3.618941170E-1,6.253772557E0,6.751792111E0
1.136717250E1,-1.666457777E0,4.165299153E-1,4.515014690E0,4.830728345E0
1.137720250E1,-1.048088847E0,4.604910368E-1,3.054955001E0,3.262405904E0
1.138723150E1,-5.414037837E-1,4.804136699E-1,1.645210603E0,1.797396250E0
1.139726150E1,-2.495363599E-1,3.654503936E-1,5.374134976E-1,6.961577784E-1
1.140729150E1,-1.790538763E-1,3.594067115E-1,-2.168884313E-1,4.563705364E-1
1.141732050E1,-2.999393588E-1,3.443495464E-1,-8.345859540E-1,9.513537426E-1
1.142735050E1,-4.449719417E-1,3.408406323E-1,-1.278725837E0,1.396177686E0
1.143738050E1,-5.511908533E-1,2.860995841E-1,-1.580790659E0,1.698400258E0
1.144740950E1,-5.226606801E-1,1.933153814E-1,-1.765180850E0,1.851056038E0
1.145743950E1,-3.807453941E-1,8.432795942E-2,-1.963392105E0,2.001745942E0
1.146746850E1,-2.224814393E-1,-9.249593496E-2,-2.016669011E0,2.031011420E0
1.147749850E1,-4.500514179E-2,-1.869834316E-1,-1.925029108E0,1.934612450E0
1.148752850E1,1.458830604E-1,-3.239129430E-1,-1.859578300E0,1.893207045E0
1.149755750E1,3.840002467E-1,-4.894943959E-1,-1.851479906E0,1.953212430E0
1.150758750E1,6.346176106E-1,-6.171028608E-1,-1.857106097E0,2.057279394E0
1.151761750E1,1.055738175E0,-7.508222508E-1,-1.927353376E0,2.322285121E0
1.152764650E1,1.480232729E0,-8.778097415E-1,-2.061819456E0,2.685654174E0
1.153767650E1,1.756235926E0,-9.348195094E-1,-2.115161265E0,2.903818059E0
1.154770550E1,1.889739115E0,-9.105377769E-1,-1.981812004E0,2.885787897E0
1.155773550E1,2.034548627E0,-8.319447666E-1,-1.815438253E0,2.850848340E0
1.156776550E1,1.947612370E0,-7.342372084E-1,-1.671239483E0,2.669333182E0
1.157779450E1,1.565608802E0,-5.818967754E-1,-1.294605120E0,2.113229092E0
1.158782450E1,1.314269307E0,-4.394942701E-1,-9.019640046E-1,1.653480598E0
1.159785450E1,1.111352797E0,-4.646314502E-1,-8.394660401E-1,1.468227045E0
1.160788350E1,8.287459011E-1,-4.410554767E-1,-7.367749000E-1,1.193393043E0
1.161791350E1,4.931594306E-1,-4.130964303E-1,-4.894482028E-1,8.083405396E-1
1.162794250E1,9.687535331E-2,-4.105680943E-1,-1.481415474E-1,4.470983250E-1
1.163797250E1,-1.745159984E-1,-2.910615313E-1,2.546088195E-1,4.242620648E-1
1.164800250E1,-2.573083328E-1,-2.657173598E-1,4.067510319E-1,5.497814978E-1
1.165803150E1,-1.931823573E-1,-1.620117277E-1,4.433259505E-1,5.100050210E-1
1.166806150E1,-7.797218218E-2,1.047236323E-2,5.341595221E-1,5.399219634E-1
1.167809150E1,-1.982206106E-4,1.214454997E-1,4.743752503E-1,4.896743069E-1
1.168812050E1,9.697329417E-2,2.258106977E-1,2.859715301E-1,3.770596862E-1
1.169815050E1,1.348679294E-1,3.454967701E-1,1.537946355E-1,4.015098585E-1
1.170817950E1,7.184868559E-2,3.874487883E-1,1.607265097E-1,4.255723300E-1
1.171820950E1,4.826525688E-2,3.547599292E-1,2.367175090E-1,4.292077835E-1
1.172823950E1,6.285289049E-2,2.551186967E-1,1.790113378E-1,3.179325310E-1
1.173826850E1,1.126957262E-1,1.449203163E-1,3.048562825E-2,1.860956698E-1
1.174829850E1,2.111397412E-1,7.670494437E-2,-2.687181509E-1,3.502471748E-1
1.175832850E1,3.995838073E-1,2.352568746E-2,-5.817593658E-1,7.061619055E-1
1.176835750E1,6.062593456E-1,-3.466521800E-2,-7.226094353E-1,9.438837150E-1
1.177838750E1,8.924178404E-1,-1.028525233E-2,-8.469311804E-1,1.230368974E0
1.178841650E1,1.115820216E0,3.800748646E-2,-8.929516912E-1,1.429637033E0
1.179844650E1,1.285448381E0,1.355682796E-1,-7.863990498E-1,1.513003557E0
1.180847650E1,1.412112959E0,2.312281430E-1,-6.326336503E-1,1.564530216E0
1.181850550E1,1.435067812E0,3.147380769E-1,-3.752479881E-1,1.516341233E0
1.182853550E1,1.482259081E0,3.984017926E-1,-6.410828769E-2,1.536205014E0
1.183856450E1,1.524664405E0,4.360993767E-1,1.745551747E-1,1.595385133E0
1.184859450E1,1.431472213E0,3.585857624E-1,3.054784262E-1,1.506988226E0
1.185862450E1,1.345337464E0,3.686119831E-1,6.465465152E-1,1.537475230E0
1.186865350E1,1.277043739E0,4.369057077E-1,9.105915713E-1,1.628159795E0
1.187868350E1,1.497199302E0,4.813854772E-1,9.319970584E-1,1.828101815E0
1.188871350E1,2.092788210E0,8.165712672E-1,7.316018683E-1,2.362581728E0
1.189874250E1,2.605569581E0,1.533953876E0,2.465536952E-1,3.033611059E0
1.190877250E1,2.667783955E0,2.425892245E0,-6.310081244E-2,3.606384080E0
1.191880250E1,1.741931736E0,2.981408722E0,7.763827693E-1,3.539194025E0
1.192883150E1,3.433485031E-1,2.805853089E0,2.760571082E0,3.951133059E0
1.193886150E1,-7.716134879E-1,1.836205224E0,5.210205946E0,5.577928200E0
1.194889050E1,-1.333597424E0,8.796662325E-1,7.318831778E0,7.491167691E0
1.195892050E1,-1.278037766E0,3.253186136E-1,8.304363019E0,8.408427789E0
1.196895050E1,-1.068416839E0,-1.274815804E-1,7.809130751E0,7.882911212E0
1.197897950E1,-5.983927940E-1,-2.832268471E-1,6.154527181E0,6.190032003E0
1.198900950E1,2.464168704E-1,-2.691233629E-1,4.106589600E0,4.122769312E0
1.199903850E1,9.351875916E-1,-3.621268362E-1,2.428265630E0,2.627201105E0
1.200906850E1,1.459426289E0,-4.621276724E-1,1.151574039E0,1.915622574E0
1.201909850E1,1.836227882E0,-6.066047698E-1,3.002217793E-1,1.956996500E0
1.202912750E1,1.961934540E0,-8.026700968E-1,-9.030030549E-2,2.121702281E0
1.203915750E1,2.009069969E0,-9.516951585E-1,-1.454366255E-1,2.227832495E0
1.204918750E1,2.036691339E0,-1.099558378E0,-1.223997653E-2,2.314582047E0
1.205921650E1,2.065476450E0,-1.312131565E0,1.809280550E-1,2.453694596E0
1.206924650E1,2.028527456E0,-1.519662112E0,4.882261348E-1,2.581213152E0
1.207927550E1,1.986934896E0,-1.650143314E0,8.910899377E-1,2.732201404E0
1.208930550E1,1.942419312E0,-1.780007635E0,1.115831180E0,2.861205897E0
1.209933550E1,1.831271636E0,-1.861909584E0,1.160151905E0,2.857659103E0
1.210936450E1,1.658220219E0,-1.845591760E0,1.015098857E0,2.680732909E0
1.211939450E1,1.491875997E0,-1.734462503E0,6.983434904E-1,2.392015425E0
1.212942450E1,1.261024999E0,-1.638866374E0,3.233703214E-1,2.092996752E0
1.213945350E1,1.124344872E0,-1.542402518E0,1.173284751E-1,1.912308262E0
1.214948350E1,1.109927100E0,-1.532946986E0,-6.739734650E-2,1.893781147E0
1.215951250E1,1.147119046E0,-1.568819654E0,-2.861603951E-1,1.964424848E0
1.216954250E1,1.237609971E0,-1.625251717E0,-3.870359749E-1,2.079162915E0
1.217957250E1,1.327460625E0,-1.657762821E0,-3.691452491E-1,2.155596784E0
1.218960150E1,1.524058341E0,-1.713845220E0,-2.721446192E-1,2.309563153E0
1.219963150E1,1.638607635E0,-1.714444560E0,-1.326066649E-1,2.375276754E0
1.220966050E1,1.716505850E0,-1.631226402E0,-5.728634119E-2,2.368664947E0
1.221969050E1,1.580729409E0,-1.596688069E0,2.354673743E-2,2.246925166E0
1.222972050E1,1.326165613E0,-1.501722854E0,3.422989279E-1,2.032499771E0
1.223974950E1,1.013692601E0,-1.439459363E0,7.338004214E-1,1.907374899E0
1.224977950E1,8.098955011E-1,-1.454261590E0,8.981703311E-1,1.891432642E0
1.225980950E1,7.465033512E-1,-1.493310465E0,7.561145657E-1,1.832744564E0
1.226983850E1,7.588668501E-1,-1.458409020E0,5.436700183E-1,1.731592577E0
1.227986850E1,7.325166652E-1,-1.459128812E0,3.962330604E-1,1.680070889E0
1.228989750E1,6.382933165E-1,-1.421534724E0,4.242248511E-1,1.614975558E0
1.229992750E1,4.927442783E-1,-1.322132058E0,5.454703760E-1,1.512735282E0
1.230995750E1,3.857981193E-1,-1.333687325E0,6.308999509E-1,1.524990760E0
1.231998650E1,3.497992976E-1,-1.354106387E0,6.662621570E-1,1.549151031E0
1.233001650E1,3.357804519E-1,-1.309816652E0,7.492335624E-1,1.545871633E0
1.234004650E1,3.757947028E-1,-1.255886028E0,8.979744494E-1,1.588971203E0
1.235007550E1,3.723770052E-1,-1.169658308E0,1.154893504E0,1.685391408E0
1.236010550E1,2.565585735E-1,-9.376548243E-1,1.501449205E0,1.788677888E0
1.237013450E1,-1.005960828E-1,-7.606870884E-1,1.672482017E0,1.840097963E0
1.238016450E1,-6.195908511E-1,-5.797865152E-1,1.659521663E0,1.863882340E0
1.239019450E1,-9.985467048E-1,-4.280267107E-1,1.577591647E0,1.915488917E0
1.240022350E1,-1.029471605E0,-4.640098912E-1,1.217395561E0,1.660472498E0
1.241025350E1,-8.600960402E-1,-5.995267153E-1,7.845793962E-1,1.309489332E0
1.242028350E1,-7.403381932E-1,-7.098116344E-1,5.306266344E-1,1.154771762E0
1.243031250E1,-6.672104292E-1,-7.578786707E-1,3.956892693E-1,1.084490587E0
1.244034250E1,-4.141142844E-1,-6.532228661E-1,8.039804578E-2,7.775953954E-1
1.245037150E1,-1.237542728E-1,-4.538181943E-1,-3.181961203E-1,5.679039042E-1
1.246040150E1,2.046336906E-1,-2.803973794E-2,-3.563410163E-1,4.118738813E-1
1.247043150E1,3.901607269E-1,2.684690595E-1,-1.817548513E-1,5.072828153E-1
1.248046050E1,7.798510453E-1,4.814404410E-1,-3.909044927E-1,9.963728587E-1
1.249049050E1,1.319542764E0,7.449036992E-1,-1.299785753E0,1.996376125E0
1.250051950E1,1.804507615E0,1.107143387E0,-2.549280190E0,3.313735610E0
1.251054950E1,1.801556525E0,1.546401429E0,-3.277416413E0,4.047026271E0
1.252057950E1,9.237036601E-1,1.538008921E0,-2.542443041E0,3.111706366E0
1.253060850E1,-2.670728905E-1,1.194782040E0,-5.801911426E-1,1.354789213E0
1.254063850E1,-1.520246541E0,4.744699752E-1,1.835984784E0,2.430454985E0
1.255066850E1,-2.344767390E0,-1.492063254E-1,4.155989801E0,4.774143679E0
1.256069750E1,-2.743497212E0,-3.289625984E-1,5.785904673E0,6.411839535E0
1.257072750E1,-2.691198838E0,-4.429616690E-1,6.065489289E0,6.650483181E0
1.258075650E1,-2.095076079E0,-5.076236880E-1,5.199852281E0,5.628986528E0
1.259078650E1,-1.026722244E0,-3.981667346E-1,3.662943807E0,3.824899037E0
1.260081650E1,-3.207376125E-1,-1.650212896E-1,2.105907462E0,2.136574567E0
1.261084550E1,-1.522021464E-1,6.173958063E-2,1.074463883E0,1.086945217E0
1.262087550E1,-4.008447593E-1,1.670368248E-1,5.089094907E-1,6.690042539E-1
1.263090550E1,-9.688640454E-1,2.130666912E-2,5.786410457E-1,1.128705884E0
1.264093450E1,-1.287562734E0,-1.919763690E-1,8.828237289E-1,1.572911459E0
1.265096450E1,-1.153577588E0,-5.532986283E-1,8.485876966E-1,1.535246463E0
1.266099350E1,-7.060612303E-1,-8.284101248E-1,7.024815649E-1,1.295479118E0
1.267102350E1,-1.861218444E-1,-9.837490100E-1,2.752167463E-1,1.038338920E0
1.268105350E1,7.838075638E-2,-1.143083298E0,-1.507996917E-3,1.145768407E0
1.269108250E1,2.195340040E-1,-1.152042401E0,-6.221378982E-2,1.174422168E0
1.270111262E1,3.144425002E-1,-1.188382262E0,-1.148054016E-1,1.234628190E0
1.271114162E1,4.874371992E-1,-1.239537798E0,-2.082509243E-1,1.348116250E0
1.272117163E1,7.187267379E-1,-1.303885236E0,-4.356011939E-1,1.551268266E0
1.273120162E1,9.112954299E-1,-1.347457518E0,-7.946108794E-1,1.810388791E0
1.274123062E1,8.850050327E-1,-1.334200126E0,-1.154808719E0,1.974058525E0
1.275126063E1,8.324666306E-1,-1.312429773E0,-1.300200906E0,2.026325491E0
1.276129062E1,7.886810718E-1,-1.244407943E0,-1.227718821E0,1.917775395E0
1.277131962E1,8.457355709E-1,-1.222456326E0,-1.156043651E0,1.883110472E0
1.278134963E1,1.041358702E0,-1.182525106E0,-1.096309665E0,1.919554234E0
1.279137862E1,1.186844444E0,-1.141571792E0,-9.373466760E-1,1.894836321E0
1.280140862E1,1.224891399E0,-1.061526918E0,-7.983150905E-1,1.806794212E0
1.281143863E1,1.230298612E0,-8.992345244E-1,-7.281830013E-1,1.688936911E0
1.282146762E1,1.394790729E0,-7.366041613E-1,-7.346143538E-1,1.740024458E0
1.283149762E1,1.531234775E0,-6.129764807E-1,-7.745537603E-1,1.822183753E0
1.284152663E1,1.567506662E0,-5.038908255E-1,-8.174220371E-1,1.838249680E0
1.285155662E1,1.536600180E0,-3.255443162E-1,-6.737886930E-1,1.709125630E0
1.286158662E1,1.429594087E0,-1.228043926E-1,-3.401921761E-1,1.474635850E0
1.287161563E1,1.311806021E0,1.393169296E-1,3.795562166E-1,1.372700683E0
1.288164562E1,1.056971937E0,4.058482218E-1,1.216731902E0,1.662028573E0
1.289167562E1,7.032162675E-1,5.746152377E-1,1.668081987E0,1.899261253E0
1.290170463E1,5.119054578E-1,7.257575762E-1,1.680987961E0,1.901181681E0
1.291173462E1,4.074434884E-1,8.498179507E-1,1.212405547E0,1.535619731E0
1.292176363E1,3.293050991E-1,1.025032107E0,5.567987716E-1,1.212088091E0
1.293179363E1,2.237716274E-1,1.180842862E0,5.694310963E-2,1.203206601E0
1.294182362E1,1.546724488E-1,1.278180876E0,-2.438809329E-1,1.310399874E0
1.295185263E1,5.435849413E-2,1.267167061E0,-3.695399362E-1,1.321070388E0
1.296188263E1,-9.862191662E-2,1.164448439E0,-1.802310669E-1,1.182433798E0
1.297191262E1,-3.171151163E-1,1.011043228E0,1.791247737E-1,1.074642308E0
1.298194163E1,-2.941982701E-1,7.816657287E-1,3.972732800E-1,9.248675541E-1
1.299197163E1,-1.870509669E-2,4.267666358E-1,3.307255340E-1,5.402397809E-1
1.300200062E1,4.497347912E-1,9.486873507E-2,5.812483191E-2,4.632925160E-1
1.301203063E1,9.267613153E-1,-1.965892375E-1,-2.994692427E-1,9.935872841E-1
1.302206063E1,1.282658382E0,-5.021466011E-1,-4.420237756E-1,1.446633593E0
1.303208962E1,1.396902158E0,-6.259847814E-1,-3.411359167E-1,1.568300450E0
1.304211963E1,1.416729628E0,-6.082226944E-1,-2.078954136E-1,1.555724329E0
1.305214963E1,1.501769194E0,-5.147023273E-1,-1.714894795E-1,1.596758541E0
1.306217862E1,1.527639176E0,-4.830273753E-1,-1.779114765E-1,1.612032689E0
1.307220863E1,1.495985420E0,-4.232583064E-1,5.618940353E-2,1.555724018E0
1.308223762E1,1.311046760E0,-3.188235265E-1,3.665935242E-1,1.398171256E0
1.309226762E1,1.140969822E0,-2.395668572E-1,6.534631866E-1,1.336494874E0
1.310229763E1,1.239549931E0,-2.655512989E-2,7.839046276E-1,1.466865935E0
1.311232662E1,1.642086874E0,2.852751267E-1,4.876776659E-1,1.736565779E0
1.312235662E1,2.129488990E0,7.593457371E-1,-6.813117206E-2,2.261851269E0
1.313238563E1,2.399518671E0,1.336462998E0,-4.776929605E-1,2.787833167E0
1.314241562E1,2.145951241E0,1.860754759E0,-2.559653735E-1,2.851847344E0
1.315244562E1,1.062654554E0,1.958454131E0,1.189818338E0,2.525954268E0
1.316247463E1,-7.494376302E-3,1.593614187E0,3.128704762E0,3.511190088E0
1.317250462E1,-5.238679840E-1,7.889794260E-1,4.533804132E0,4.631663428E0
1.318253462E1,-6.137426122E-1,1.153474385E-1,5.428685989E0,5.464486856E0
1.319256363E1,-4.421927601E-1,-2.369759560E-1,5.222354706E0,5.246396927E0
1.320259362E1,-1.671368122E-1,-3.812238425E-1,3.985119542E0,4.006799732E0
1.321262262E1,3.165619697E-1,-3.055667192E-1,2.305356572E0,2.346966430E0
1.322265263E1,7.223425099E-1,-3.374533403E-1,9.735111201E-1,1.258323233E0
1.323268262E1,9.947844601E-1,-3.060286492E-1,1.827284127E-1,1.056711564E0
1.324271162E1,1.170366260E0,-4.267145956E-1,-1.022274560E-1,1.249917189E0
1.325274163E1,1.330161454E0,-6.849352401E-1,1.951180780E-1,1.508819685E0
1.326277062E1,1.590640147E0,-8.775793612E-1,7.935390848E-1,1.982419202E0
1.327280062E1,1.838545865E0,-9.676358378E-1,1.326117520E0,2.464783497E0
1.328283063E1,2.027766441E0,-1.031192148E0,1.766483025E0,2.880218093E0
1.329285962E1,2.155185749E0,-1.036701395E0,2.286546664E0,3.308756721E0
1.330288962E1,2.163352847E0,-1.003332505E0,2.660586618E0,3.572882982E0
1.331291963E1,2.122719668E0,-1.034785847E0,2.697214161E0,3.584924653E0
1.332294862E1,2.060947928E0,-1.025197583E0,2.450211400E0,3.361855492E0
1.333297863E1,1.873348346E0,-9.965959275E-1,2.047068685E0,2.948411041E0
1.334300763E1,1.677436801E0,-9.610091883E-1,1.624034911E0,2.524841040E0
1.335303762E1,1.410378967E0,-9.568822235E-1,1.219233341E0,2.095548224E0
1.336306763E1,1.140368435E0,-9.741812110E-1,9.705764025E-1,1.786473552E0
1.337309663E1,9.598407684E-1,-1.033795913E0,8.294626236E-1,1.636470756E0
1.338312662E1,8.801150063E-1,-1.183001069E0,7.419444233E-1,1.650628814E0
1.339315563E1,9.469080430E-1,-1.293174307E0,7.275690436E-1,1.760196393E0
1.340318563E1,1.100696393E0,-1.391864782E0,6.231962442E-1,1.880742853E0
1.341321562E1,1.341710436E0,-1.495603158E0,3.696621430E-1,2.042955164E0
1.342324463E1,1.598274272E0,-1.516934386E0,1.374563456E-2,2.203578799E0
1.343327463E1,1.683535886E0,-1.511619852E0,-3.236620975E-1,2.285616942E0
1.344330462E1,1.712675485E0,-1.442907466E0,-5.408943450E-1,2.303867610E0
1.345333363E1,1.787080865E0,-1.373830215E0,-6.523557240E-1,2.346622140E0
1.346336363E1,1.718774862E0,-1.402880352E0,-6.863958746E-1,2.322369394E0
1.347339262E1,1.496693372E0,-1.356937024E0,-5.597808516E-1,2.096359640E0
1.348342263E1,1.238030093E0,-1.322924940E0,-3.823494315E-1,1.851766723E0
1.349345262E1,1.128350507E0,-1.324033572E0,-2.478997242E-1,1.757183553E0
1.350348162E1,1.162118323E0,-1.328529496E0,-1.354671228E-1,1.770271437E0
1.351351163E1,1.276663962E0,-1.338307795E0,-9.630130291E-2,1.852083305E0
1.352354062E1,1.341003069E0,-1.314908407E0,1.062637889E-1,1.881107478E0
1.353357062E1,1.318082568E0,-1.235194486E0,2.954346639E-1,1.830390318E0
1.354360063E1,1.169030463E0,-1.051814108E0,3.881510389E-1,1.619755035E0
1.355362962E1,9.293693197E-1,-8.820483881E-1,5.348559254E-1,1.388455096E0
1.356365962E1,6.744668238E-1,-7.177246714E-1,6.685063183E-1,1.190350746E0
1.357368963E1,4.280740732E-1,-5.566268635E-1,6.176372963E-1,9.351773666E-1
1.358371862E1,2.653165331E-1,-4.858088958E-1,4.767094588E-1,7.305169773E-1
1.359374862E1,1.741998102E-1,-4.371325797E-1,5.727692717E-1,7.412793702E-1
1.360377763E1,1.000484911E-1,-4.036163396E-1,8.628882319E-1,9.578580014E-1
1.361380762E1,-8.735740185E-2,-4.028942084E-1,1.166580334E0,1.237281186E0
1.362383762E1,-3.651920928E-1,-3.789527839E-1,1.434879239E0,1.528348425E0
1.363386663E1,-4.454144298E-1,-3.791188449E-1,1.523849888E0,1.632251082E0
1.364389662E1,-3.469995046E-1,-4.387703848E-1,1.613975362E0,1.708169949E0
1.365392562E1,-3.583916348E-1,-5.382280147E-1,1.845815123E0,1.955803525E0
1.366395563E1,-5.768620303E-1,-5.454013789E-1,1.840798212E0,2.004687139E0
1.367398562E1,-6.958864903E-1,-3.763349855E-1,1.432508193E0,1.636449129E0
1.368401463E1,-6.451035686E-1,-5.478841066E-4,1.055428272E0,1.236967159E0
1.369404463E1,-6.277778301E-1,4.422582489E-1,9.488920033E-1,1.220693818E0
1.370407413E1,-7.784794347E-1,8.774413669E-1,1.032040579E0,1.562383224E0
1.371410312E1,-7.856294100E-1,1.211374683E0,7.645240313E-1,1.633750038E0
1.372413312E1,-4.437986979E-1,1.473497760E0,-2.748951495E-2,1.539125923E0
1.373416213E1,1.709579676E-2,1.736185677E0,-1.034565407E0,2.021128040E0
1.374419212E1,-1.096645296E-2,1.923533975E0,-1.623484104E0,2.517102273E0
1.375422212E1,-9.203689930E-1,1.862073891E0,-1.042946806E0,2.324249621E0
1.376425113E1,-1.884595027E0,1.616634675E0,4.456724381E-1,2.522663277E0
1.377428112E1,-2.563651769E0,1.140434509E0,2.297803724E0,3.626679365E0
1.378431012E1,-2.956136179E0,6.894826198E-1,4.059381520E0,5.068797265E0
1.379434013E1,-3.002744628E0,3.085487992E-1,4.954393770E0,5.801525255E0
1.380437012E1,-2.632890988E0,-1.447068930E-2,4.767258895E0,5.446015216E0
1.381439912E1,-1.969952681E0,-8.275271952E-2,3.600972676E0,4.105431255E0
1.382442913E1,-1.174731937E0,-1.205304104E-1,1.931706628E0,2.264070052E0
1.383445912E1,-6.877518439E-1,-2.925590032E-1,9.129842520E-1,1.179887119E0
1.384448813E1,-2.553572631E-1,-4.355456454E-1,3.762969786E-1,6.296878251E-1
1.385451813E1,1.588141778E-1,-7.443768650E-1,-9.292453587E-2,7.667814745E-1
1.386454712E1,6.186857021E-1,-9.993078661E-1,-4.061628020E-1,1.243525806E0
1.387457713E1,9.260644734E-1,-1.147077531E0,-7.466508472E-1,1.652534344E0
1.388460713E1,1.068444467E0,-1.209838035E0,-9.599233603E-1,1.877960199E0
1.389463612E1,1.011415257E0,-1.221347110E0,-7.860862237E-1,1.769909923E0
1.390466613E1,8.236735877E-1,-1.220212750E0,-4.150646031E-1,1.529586859E0
1.391469513E1,7.081906401E-1,-1.272899671E0,-4.356760383E-2,1.457293962E0
1.392472512E1,6.471790378E-1,-1.345341411E0,2.966953236E-1,1.522107859E0
1.393475513E1,5.687387860E-1,-1.403193762E0,5.111396188E-1,1.598023858E0
1.394478413E1,5.220106159E-1,-1.395190678E0,4.962719035E-1,1.570139457E0
1.395481412E1,5.005516268E-1,-1.380558606E0,1.293415797E-1,1.474185619E0
1.396484413E1,4.982149333E-1,-1.367604684E0,-2.942190278E-1,1.484966507E0
1.397487313E1,5.819618256E-1,-1.347739354E0,-5.883567792E-1,1.581532368E0
1.398490312E1,6.824352631E-1,-1.355246009E0,-8.190060478E-1,1.724291315E0
1.399493213E1,8.389228338E-1,-1.355242501E0,-9.033036017E-1,1.832056537E0
1.400496213E1,9.430684689E-1,-1.350049004E0,-9.337149704E-1,1.893101713E0
1.401499212E1,9.641538209E-1,-1.293906378E0,-9.633065593E-1,1.879293972E0
1.402502113E1,1.003710819E0,-1.231175694E0,-1.019208280E0,1.887329997E0
1.403505112E1,9.761239484E-1,-1.161805497E0,-1.075142745E0,1.859715542E0
1.404508012E1,9.331331724E-1,-1.081323836E0,-1.072464720E0,1.786107313E0
1.405511013E1,7.738050243E-1,-1.010575451E0,-9.741519749E-1,1.602812849E0
1.406514012E1,5.278035986E-1,-9.056857574E-1,-8.501787239E-1,1.349684108E0
1.407516912E1,3.537362279E-1,-8.364091158E-1,-8.689465320E-1,1.256892041E0
1.408519913E1,3.023082121E-1,-7.709390116E-1,-9.174141026E-1,1.235874529E0
1.409522912E1,3.551493537E-1,-6.760784626E-1,-1.010203568E0,1.266382406E0
1.410525812E1,4.724861611E-1,-5.675167179E-1,-1.071139741E0,1.301022191E0
1.411528813E1,5.345406143E-1,-4.915596324E-1,-9.868258148E-1,1.225230480E0
1.412531712E1,4.599092388E-1,-3.640330285E-1,-9.117879117E-1,1.084155777E0
1.413534712E1,3.843618970E-1,-2.404930562E-1,-8.442549098E-1,9.582991863E-1
1.414537713E1,3.617473519E-1,-1.795820260E-1,-8.677589625E-1,9.571397326E-1
1.415540612E1,3.698445761E-1,-1.022865129E-1,-9.691134292E-1,1.042318752E0
1.416543612E1,3.359408118E-1,-1.522790372E-2,-1.123422035E0,1.172674374E0
1.417546513E1,2.170730571E-1,9.461788952E-2,-1.246538669E0,1.268830923E0
1.418549512E1,1.293078120E-1,1.971915007E-1,-1.221930662E0,1.244475609E0
1.419552512E1,2.267257869E-3,2.986558950E-1,-1.079903548E0,1.120442839E0
1.420555413E1,-6.283374086E-2,3.629612339E-1,-8.010995346E-1,8.817309117E-1
1.421558412E1,-5.135083258E-2,4.466980398E-1,-5.092375195E-1,6.793371019E-1
1.422561313E1,7.827828392E-2,5.295682883E-1,-3.032003510E-1,6.152239548E-1
1.423564313E1,1.907556166E-1,5.839012009E-1,-1.840756112E-1,6.412582540E-1
1.424567312E1,3.654657425E-1,7.004607671E-1,-1.426936966E-1,8.028524063E-1
1.425570213E1,5.416967292E-1,8.135657984E-1,-1.075624555E-1,9.833078544E-1
1.426573213E1,6.363504329E-1,8.970926893E-1,-4.962298036E-2,1.100990285E0
1.427576212E1,6.870295666E-1,9.605612916E-1,1.037646890E-1,1.185518760E0
1.428579113E1,7.799948868E-1,1.053294623E0,2.487271053E-1,1.334049010E0
1.429582113E1,8.448964955E-1,1.108663663E0,1.238522136E-1,1.399401506E0
1.430585012E1,9.790905333E-1,1.223891233E0,-5.665367246E-3,1.567341737E0
1.431588013E1,1.143920765E0,1.437130417E0,-2.473231888E-1,1.853393459E0
1.432591013E1,1.467355113E0,1.722137157E0,-6.641852260E-1,2.357971465E0
1.433593912E1,1.763368067E0,2.175524411E0,-8.574281019E-1,2.928746550E0
1.434596913E1,1.613416660E0,2.531304680E0,-3.224043614E-1,3.019033168E0
1.435599813E1,8.861572266E-1,2.623279043E0,1.367188947E0,3.088053300E0
1.436602812E1,1.419081232E-1,2.280908779E0,3.442992019E0,4.132417793E0
1.437605813E1,-5.237416841E-1,1.590570711E0,5.382835633E0,5.637298997E0
1.438608712E1,-9.707274069E-1,1.187516289E0,6.849766384E0,7.019387876E0
1.439611712E1,-1.218057759E0,8.922359920E-1,7.019023982E0,7.179585463E0
1.440614713E1,-1.040918845E0,7.265557212E-1,5.699479902E0,5.839132334E0
1.441617612E1,-4.047017290E-1,7.240829337E-1,3.454596403E0,3.552789875E0
1.442620612E1,2.191758621E-1,6.641478038E-1,1.443996803E0,1.604449167E0
1.443623513E1,5.185357618E-1,5.879837269E-1,1.026560569E-1,7.906595129E-1
1.444626512E1,6.196363132E-1,5.318294066E-1,-6.658990449E-1,1.053666558E0
1.445629512E1,5.508683793E-1,4.522786224E-1,-8.513791573E-1,1.110341566E0
1.446632413E1,4.830943260E-1,2.920900565E-1,-7.158243263E-1,9.116475169E-1
1.447635412E1,5.749638779E-1,1.669935554E-1,-4.000466144E-1,7.200747199E-1
1.448638312E1,5.120697646E-1,-6.300024033E-2,-5.569297493E-2,5.189279156E-1
1.449641313E1,4.263677095E-1,-2.618587822E-1,4.270964187E-1,6.578531724E-1
1.450644312E1,3.943325691E-1,-4.427897608E-1,8.125448745E-1,1.005877786E0
1.451647212E1,5.793180071E-1,-6.321150023E-1,9.409181553E-1,1.272990850E0
1.452650213E1,8.621563067E-1,-8.106620711E-1,8.322681177E-1,1.446774589E0
1.453653212E1,1.020065335E0,-9.564419281E-1,7.039246577E-1,1.565510899E0
1.454656112E1,1.076602795E0,-1.004941658E0,5.458755881E-1,1.570656382E0
1.455659113E1,9.852703093E-1,-1.065576700E0,2.680936682E-1,1.475833832E0
1.456662012E1,8.506884550E-1,-1.109920814E0,6.193370819E-3,1.398439637E0
1.457665012E1,8.074624747E-1,-1.176936922E0,-2.715593129E-1,1.452900763E0
1.458668013E1,7.900186224E-1,-1.245442316E0,-5.962189454E-1,1.590827777E0
1.459670912E1,7.596774204E-1,-1.275881751E0,-7.939934134E-1,1.683867443E0
1.460673912E1,7.265545517E-1,-1.268520107E0,-8.867103732E-1,1.709760236E0
1.461676813E1,6.898828617E-1,-1.270917465E0,-8.820483881E-1,1.693865085E0
1.462679812E1,7.457790273E-1,-1.271426758E0,-8.116531742E-1,1.682704143E0
1.463682813E1,8.002774161E-1,-1.269634001E0,-6.455940038E-1,1.633770503E0
1.464685713E1,7.098816548E-1,-1.243713294E0,-4.199563837E-1,1.492353204E0
1.465688712E1,5.210534267E-1,-1.178130924E0,-8.854263246E-2,1.291250922E0
1.466691613E1,3.772677626E-1,-1.109999167E0,2.527359563E-1,1.199293366E0
1.467694613E1,2.502215074E-1,-1.070330486E0,3.881130320E-1,1.165697164E0
1.468697612E1,8.874202251E-2,-9.760026187E-1,3.277235734E-1,1.033372633E0
1.469700513E1,-9.487341285E-2,-8.748212296E-1,1.465674770E-1,8.920735247E-1
1.470703487E1,-3.087581295E-1,-7.872457266E-1,-4.745658696E-2,8.469589979E-1
1.471706488E1,-4.230909298E-1,-7.618278801E-1,-1.091067052E-1,8.782322739E-1
1.472709388E1,-4.595762399E-1,-8.044657767E-1,-1.146732545E-1,9.335552803E-1
1.473712387E1,-4.030487211E-1,-8.430188084E-1,-1.148627043E-1,9.414469840E-1
1.474715288E1,-3.157956921E-1,-8.738640404E-1,-2.122726393E-1,9.531132952E-1
1.475718288E1,-1.499049215E-1,-8.480591083E-1,-3.982760775E-1,9.488411724E-1
1.476721287E1,1.099203452E-2,-8.213759243E-1,-5.716992313E-1,1.000809295E0
1.477724188E1,1.157185905E-1,-7.847144669E-1,-7.223468953E-1,1.072824601E0
1.478727188E1,1.550418466E-1,-6.795563865E-1,-7.386740756E-1,1.015615206E0
1.479730087E1,1.401907960E-1,-6.055885237E-1,-7.129480809E-1,9.458783671E-1
1.480733088E1,7.291638717E-2,-4.726988536E-1,-5.832737947E-1,7.543005537E-1
1.481736088E1,-7.074823961E-2,-3.439542747E-1,-3.552832550E-1,4.995358323E-1
1.482738987E1,-3.032784113E-1,-2.828613961E-1,-1.450062704E-1,4.393349322E-1
1.483741988E1,-5.521125206E-1,-2.198617405E-1,5.123096466E-2,5.964830527E-1
1.484744887E1,-8.583670186E-1,-1.557177848E-1,1.547138178E-1,8.859900295E-1
1.485747887E1,-1.147886347E0,-1.400846690E-1,2.982886899E-1,1.194254128E0
1.486750888E1,-1.348411637E0,-8.751118362E-2,5.281550163E-1,1.450799735E0
1.487753787E1,-1.414737774E0,-1.458938777E-2,5.874294108E-1,1.531916816E0
1.488756787E1,-1.307405991E0,6.251199782E-2,4.033274871E-1,1.369631789E0
1.489759788E1,-1.092974852E0,1.594722819E-1,7.785099864E-2,1.107287774E0
1.490762687E1,-1.056627390E0,3.551125163E-1,-7.438184559E-2,1.117183512E0
1.491765687E1,-1.135267471E0,7.449949157E-1,-4.843716502E-2,1.358747884E0
1.492768588E1,-1.195375386E0,1.210069000E0,-3.007673246E-1,1.727324602E0
1.493771587E1,-9.729991964E-1,1.578370496E0,-1.155077691E0,2.184533207E0
1.494774587E1,-6.390050688E-1,1.972751158E0,-2.468859925E0,3.224181127E0
1.495777488E1,-7.084467481E-1,2.310889208E0,-3.173622488E0,3.989233689E0
1.496780487E1,-1.644681722E0,2.180856487E0,-2.234769570E0,3.529207845E0
1.497783387E1,-2.838586387E0,1.590897571E0,4.787115455E-3,3.254005328E0
1.498786388E1,-3.777230560E0,6.022269595E-1,2.681580461E0,4.671297655E0
1.499789387E1,-4.388313712E0,-9.412964702E-2,5.354435706E0,6.923592952E0
1.500792287E1,-4.649382243E0,-3.982895261E-1,6.732556023E0,8.191623795E0
1.501795288E1,-4.630727579E0,-7.150659424E-1,6.562139508E0,8.063289163E0
1.502798187E1,-4.052598749E0,-8.583759356E-1,5.315481555E0,6.739043703E0
1.503801187E1,-3.100012183E0,-9.506490916E-1,3.486162597E0,4.761001878E0
1.504804188E1,-2.086164192E0,-1.058581091E0,1.611868025E0,2.840914200E0
1.505807087E1,-1.461562862E0,-1.238436767E0,2.178918135E-1,1.928047838E0
1.506810087E1,-9.939683349E-1,-1.389283821E0,-7.472291368E-1,1.864519769E0
1.507813088E1,-5.814458089E-1,-1.548690029E0,-1.559005103E0,2.273107333E0
1.508815987E1,-2.290977100E-1,-1.683993430E0,-2.183469023E0,2.766921865E0
1.509818988E1,2.620765910E-2,-1.704487336E0,-2.537700364E0,3.057104358E0
1.510821888E1,1.316497681E-1,-1.642572924E0,-2.561474558E0,3.045739546E0
1.511824887E1,-1.006137706E-1,-1.574745807E0,-2.104504130E0,2.630377372E0
1.512827888E1,-4.014650027E-1,-1.539145619E0,-1.266646659E0,2.033356128E0
1.513830788E1,-4.896002305E-1,-1.536885670E0,-4.684280473E-1,1.679628169E0
1.514833787E1,-4.704824665E-1,-1.541996722E0,7.766154885E-2,1.614044286E0
1.515836688E1,-2.588322634E-1,-1.487440445E0,2.254838383E-1,1.526537317E0
1.516839688E1,1.366785197E-1,-1.387288166E0,-2.662962341E-1,1.419212161E0
1.517842687E1,4.844032252E-1,-1.295767547E0,-9.678516001E-1,1.688311802E0
1.518845588E1,7.135108754E-1,-1.124637086E0,-1.451554329E0,1.970004141E0
1.519848588E1,7.598604383E-1,-9.304171407E-1,-1.792390283E0,2.157713343E0
1.520851587E1,6.675217934E-1,-8.008457655E-1,-1.814093394E0,2.092337001E0
1.521854488E1,4.871093166E-1,-7.064980173E-1,-1.437433888E0,1.674106065E0
1.522857488E1,1.761258830E-1,-6.880272478E-1,-9.234677249E-1,1.164986892E0
1.523860387E1,5.115728974E-2,-6.689015901E-1,-5.812161595E-1,8.876140093E-1
1.524863388E1,3.316993877E-2,-7.110512441E-1,-3.982181901E-1,8.156419825E-1
1.525866387E1,3.200195745E-2,-7.130749655E-1,-1.931680316E-1,7.394686742E-1
1.526869287E1,1.038854340E-1,-6.209819037E-1,-1.738190103E-1,6.531644176E-1
1.527872288E1,2.757048427E-1,-5.246531188E-1,-3.388180804E-1,6.826944756E-1
1.528875187E1,4.027930516E-1,-3.431748408E-1,-5.064963448E-1,7.324955707E-1
1.529878187E1,3.700205773E-1,-2.310305071E-1,-5.843637156E-1,7.292264909E-1
1.530881188E1,3.151169765E-1,-1.322792208E-1,-6.268226874E-1,7.139349988E-1
1.531884087E1,3.109781711E-1,-6.582386076E-2,-6.983294570E-1,7.672706394E-1
1.532887087E1,3.067801626E-1,-1.011977613E-2,-7.755711758E-1,8.341025877E-1
1.533889988E1,3.837935476E-1,5.241151750E-2,-8.990468287E-1,9.789431315E-1
1.534892987E1,4.321951908E-1,1.172255641E-1,-9.959720296E-1,1.092014102E0
1.535895987E1,4.448577748E-1,1.814923114E-1,-9.699489963E-1,1.082422724E0
1.536898888E1,4.241508839E-1,2.471501112E-1,-9.268871766E-1,1.048859851E0
1.537901887E1,4.378441858E-1,3.299642265E-1,-9.988669860E-1,1.139438097E0
1.538904887E1,4.325093324E-1,4.122596937E-1,-1.011762435E0,1.175025788E0
1.539907788E1,4.323801090E-1,4.996896011E-1,-9.527195907E-1,1.159446797E0
1.540910787E1,4.474143237E-1,5.683429295E-1,-8.214987159E-1,1.094556258E0
1.541913687E1,5.144298470E-1,6.600606000E-1,-7.253412545E-1,1.107446612E0
1.542916688E1,6.663277920E-1,7.283736205E-1,-7.689948124E-1,1.251348824E0
1.543919687E1,8.221479030E-1,8.074022484E-1,-9.394019723E-1,1.486708321E0
1.544922588E1,1.034264275E0,9.534206718E-1,-1.032690790E0,1.745039781E0
1.545925588E1,1.225462965E0,1.109934847E0,-1.059821870E0,1.963908664E0
1.546928487E1,1.307924785E0,1.198568696E0,-9.562934089E-1,2.015373724E0
1.547931488E1,1.266078309E0,1.271351913E0,-7.222691274E-1,1.934156836E0
1.548934488E1,1.131419272E0,1.311862593E0,-3.908536220E-1,1.775910917E0
1.549937387E1,9.932773402E-1,1.264386710E0,-7.408714592E-2,1.609584584E0
1.550940388E1,9.123087524E-1,1.201351971E0,9.870918632E-2,1.511719988E0
1.551943288E1,9.583466586E-1,1.164277700E0,1.685752273E-3,1.507970067E0
1.552946287E1,1.125868364E0,1.142270535E0,-2.928040016E-1,1.630366747E0
1.553949288E1,1.461156480E0,1.221148889E0,-6.079490447E-1,1.998945950E0
1.554952188E1,1.783707753E0,1.403282055E0,-7.952271760E-1,2.404828504E0
1.555955187E1,1.955178229E0,1.740531912E0,-6.339644766E-1,2.693340714E0
1.556958188E1,1.827117774E0,2.008754804E0,-5.698404014E-2,2.716008543E0
1.557961088E1,1.058960137E0,2.042197954E0,1.407938193E0,2.697083427E0
1.558964087E1,1.502076611E-1,1.845464290E0,3.331532394E0,3.811483816E0
1.559966988E1,-4.251671299E-1,1.232885420E0,5.037532405E0,5.203605124E0
1.560969987E1,-5.981567127E-1,7.201050729E-1,6.189424533E0,6.259817795E0
1.561972987E1,-5.981385863E-1,4.344019300E-1,6.449544938E0,6.491772078E0
1.562975888E1,-5.370946781E-1,2.834654135E-1,5.641502420E0,5.674096658E0
1.563978887E1,-2.501734141E-1,3.360248655E-1,4.189836409E0,4.210727797E0
1.564981787E1,2.242114842E-1,4.921279818E-1,2.504920288E0,2.562632707E0
1.565984788E1,4.466375211E-1,5.948015803E-1,1.268625941E0,1.470607281E0
1.566987787E1,5.281339663E-1,5.909517735E-1,5.809249681E-1,9.826613372E-1
1.567990687E1,5.359088628E-1,5.414773124E-1,3.039558113E-1,8.202347983E-1
1.568993688E1,5.042530605E-1,4.328085637E-1,2.502631688E-1,7.100887659E-1
1.569996575E1,5.605770962E-1,2.919444609E-1,2.327425718E-1,6.735334838E-1
1.570999575E1,6.982136822E-1,2.310234904E-1,4.122006369E-1,8.430798089E-1
1.572002575E1,6.965413785E-1,1.329422951E-1,5.280714011E-1,8.841396668E-1
1.573005475E1,6.362928379E-1,-7.510163784E-3,6.727356094E-1,9.260119752E-1
1.574008475E1,5.032116714E-1,-1.806614220E-1,1.052958409E0,1.180924191E0
1.575011475E1,3.580405095E-1,-4.154815096E-1,1.474133937E0,1.572860056E0
1.576014375E1,2.659877935E-1,-6.075941187E-1,1.652022609E0,1.780196287E0
1.577017375E1,2.508182158E-1,-7.551304793E-1,1.396813865E0,1.607551179E0
1.578020275E1,3.196919842E-1,-8.463786185E-1,7.317381084E-1,1.163615224E0
1.579023275E1,3.808164378E-1,-9.245611542E-1,2.963018060E-2,1.000356154E0
1.580026275E1,4.152946910E-1,-9.507093179E-1,-4.734513903E-1,1.140383316E0
1.581029175E1,4.660352205E-1,-1.021587512E0,-7.596334201E-1,1.355681675E0
1.582032175E1,5.778664358E-1,-1.127274765E0,-8.910028142E-1,1.548729812E0
1.583035075E1,7.099681936E-1,-1.239213277E0,-8.997309530E-1,1.687963320E0
1.584038075E1,7.902551423E-1,-1.330659637E0,-8.390245754E-1,1.760431906E0
1.585041075E1,8.404090498E-1,-1.348325245E0,-8.076291203E-1,1.782283124E0
1.586043975E1,7.793413143E-1,-1.367976567E0,-7.524150324E-1,1.744953052E0
1.587046975E1,6.860229684E-1,-1.326992848E0,-5.502972525E-1,1.591968780E0
1.588049875E1,5.204720673E-1,-1.268279201E0,-3.335801446E-1,1.410921337E0
1.589052875E1,2.418744609E-1,-1.213259826E0,-2.545386529E-1,1.263048924E0
1.590055875E1,5.199051797E-3,-1.140774232E0,-2.198582321E-1,1.161779033E0
1.591058775E1,-1.366726725E-1,-1.035938918E0,-2.131292564E-1,1.066429998E0
1.592061775E1,-2.706736059E-1,-9.365111089E-1,-3.440349662E-1,1.033768502E0
1.593064775E1,-2.915320860E-1,-8.812315321E-1,-4.705295366E-1,1.040652687E0
1.594067675E1,-2.080578201E-1,-8.287808383E-1,-5.957254404E-1,1.041659510E0
1.595070675E1,-1.123451856E-1,-8.411073536E-1,-7.448849881E-1,1.129130934E0
1.596073575E1,-7.238999158E-3,-8.936071640E-1,-8.039178926E-1,1.202027514E0
1.597076575E1,6.997918457E-2,-9.164574981E-1,-6.931289434E-1,1.151181638E0
1.598079575E1,4.514839858E-2,-9.257680196E-1,-6.046102846E-1,1.106633815E0
1.599082475E1,-4.618905678E-2,-9.218205643E-1,-5.351202196E-1,1.066883420E0
1.600085475E1,-1.566993861E-1,-8.129687977E-1,-5.023880911E-1,9.684352109E-1
1.601088375E1,-3.113769512E-1,-6.280365694E-1,-4.951398826E-1,8.582243538E-1
1.602091375E1,-4.669383229E-1,-5.104882389E-1,-5.552615386E-1,8.870992142E-1
1.603094375E1,-5.493478109E-1,-3.615310049E-1,-5.677903676E-1,8.688346139E-1
1.604097275E1,-6.400265774E-1,-3.007684940E-1,-5.895958042E-1,9.207165248E-1
1.605100275E1,-6.498782587E-1,-2.688111216E-1,-6.286476034E-1,9.432915665E-1
1.606103175E1,-6.371740133E-1,-2.251867998E-1,-6.207550317E-1,9.176255376E-1
1.607106175E1,-6.762275666E-1,-1.424481136E-1,-5.035423315E-1,8.550614402E-1
1.608109175E1,-8.476712917E-1,-3.021490216E-2,-3.312248862E-1,9.105874391E-1
1.609112075E1,-1.155802892E0,7.497709215E-2,-1.194171005E-1,1.164372077E0
1.610115075E1,-1.589709124E0,9.138964176E-2,3.492150146E-1,1.630177381E0
1.611117975E1,-1.913665337E0,9.422495663E-2,9.494077277E-1,2.138309706E0
1.612120975E1,-2.111072600E0,8.691242874E-2,1.185352235E0,2.422651690E0
1.613123975E1,-2.167710777E0,1.611755759E-1,1.034971204E0,2.407511780E0
1.614126875E1,-2.230396876E0,2.651729840E-1,7.861031806E-1,2.379694339E0
1.615129875E1,-2.248001672E0,3.240497679E-1,4.934582233E-1,2.324224772E0
1.616132875E1,-2.180061558E0,2.694122154E-1,3.377819538E-1,2.222464395E0
1.617135775E1,-1.764363994E0,2.533610237E-1,9.818936884E-2,1.785164772E0
1.618138775E1,-1.098454424E0,3.772845733E-1,-5.557030034E-1,1.287537028E0
1.619141675E1,-5.845028794E-1,6.474393851E-1,-1.232322333E0,1.509781344E0
1.620144675E1,-6.010142469E-1,1.022863959E0,-1.174931327E0,1.669710282E0
1.621147675E1,-1.510507711E0,1.224657218E0,4.656991518E-1,1.999573592E0
1.622150575E1,-3.030868565E0,1.013522447E0,3.158021532E0,4.492938015E0
1.623153575E1,-4.030093401E0,4.678836715E-1,5.550471797E0,6.875194915E0
1.624156475E1,-4.674533749E0,6.703891218E-2,7.281334169E0,8.652952517E0
1.625159475E1,-4.858915755E0,-9.213223815E-2,7.403733349E0,8.856230472E0
1.626162475E1,-4.635015635E0,-1.234119183E-1,5.907084124E0,7.509476898E0
1.627165375E1,-3.892512510E0,-6.492105067E-2,3.644496426E0,5.332750002E0
1.628168375E1,-2.993366863E0,-9.342681170E-2,1.391508687E0,3.302312852E0
1.629171275E1,-2.580649040E0,-2.978027862E-1,-1.819828928E-1,2.604141651E0
1.630174275E1,-2.193856602E0,-4.306959647E-1,-1.036613687E0,2.464360716E0
1.631177275E1,-1.807910548E0,-5.811050624E-1,-1.624038420E0,2.498744571E0
1.632180175E1,-1.484807883E0,-7.448674464E-1,-1.856326663E0,2.491070180E0
1.633183175E1,-1.176278818E0,-8.540671223E-1,-1.773452321E0,2.293075586E0
1.634186075E1,-1.101243838E0,-9.434885913E-1,-1.384917120E0,2.005219226E0
1.635189075E1,-1.181453165E0,-9.698659658E-1,-8.528158182E-1,1.750361789E0
