"Time (s)","Linear Acceleration x (m/s^2)","Linear Acceleration y (m/s^2)","Linear Acceleration z (m/s^2)","Absolute acceleration (m/s^2)"
3.831541660E-3,-1.904862061E-1,1.063912582E-1,9.595865607E-3,2.183945402E-1
1.388054166E-2,-8.053779423E-2,-1.341286951E-1,1.842519048E-1,2.417138961E-1
2.392954165E-2,-2.324999124E-1,-1.166133606E-1,-2.882677317E-2,2.616980474E-1
3.397854166E-2,-1.389231196E-1,-1.614006937E-1,-8.598476797E-2,2.296588718E-1
4.402754166E-2,-1.165244830E-1,-4.260871893E-1,-1.390961972E-1,4.631155365E-1
5.407654167E-2,-5.281263649E-2,-1.135217038E0,-2.861001688E-1,1.171904521E0
6.412554166E-2,8.622596562E-2,-1.692159067E0,-1.605411530E-1,1.701943209E0
7.417354167E-2,-1.053902149E-2,-1.726716111E0,1.697470093E-1,1.735071655E0
8.422254166E-2,-3.390876371E-1,-1.431211866E0,6.059393567E-1,1.590757786E0
9.427154166E-2,-5.985598782E-1,-9.605080819E-1,1.023010139E0,1.525581676E0
1.043205417E-1,-6.381256476E-1,-5.296080494E-1,1.421223359E0,1.645467978E0
1.143695417E-1,-5.976716861E-1,-2.106997383E-1,1.721138452E0,1.834100160E0
1.244185417E-1,-5.285827401E-1,1.098849696E-1,1.668950591E0,1.754101050E0
1.344677917E-1,-8.024420553E-1,2.065061152E-1,1.463213384E0,1.681532467E0
1.445167917E-1,-1.291025455E0,-8.212999105E-3,1.270235095E0,1.811162990E0
1.545647917E-1,-1.584513581E0,-3.702492034E-1,1.132003701E0,1.982221012E0
1.646137917E-1,-1.455210008E0,-6.351327503E-1,1.110527755E0,1.937602042E0
1.746627917E-1,-1.225475829E0,-7.500855017E-1,1.202594212E0,1.873673425E0
1.847117917E-1,-9.152325064E-1,-7.811728084E-1,1.244003901E0,1.730730251E0
1.947607917E-1,-8.231578633E-1,-7.613484085E-1,1.196039483E0,1.639436096E0
2.048097917E-1,-7.047037992E-1,-7.191782892E-1,1.048947803E0,1.454000121E0
2.148587917E-1,-6.956955788E-1,-7.454843277E-1,9.727235001E-1,1.409230368E0
2.249067917E-1,-6.641709003E-1,-8.511920464E-1,1.116900928E0,1.553421568E0
2.349557917E-1,-6.033446547E-1,-7.937589401E-1,1.362278455E0,1.688158943E0
2.450047917E-1,-5.777297571E-1,-4.259977269E-1,1.552264432E0,1.710196072E0
2.550537917E-1,-4.859311026E-1,-4.206720829E-2,1.908998966E0,1.970323765E0
2.651027917E-1,-5.474607682E-1,1.358828598E-1,2.118849396E0,2.192646850E0
2.751517917E-1,-6.954400554E-1,1.503979880E-1,2.115311539E0,2.231770448E0
2.852007917E-1,-8.478073856E-1,-6.785109043E-2,1.909770799E0,2.090599349E0
2.952497917E-1,-8.990728489E-1,-3.789703256E-1,1.575173239E0,1.852868378E0
3.052977917E-1,-9.887483793E-1,-7.112991661E-1,1.244198613E0,1.741149060E0
3.153467917E-1,-1.066661943E0,-9.734772062E-1,1.034358416E0,1.776322860E0
3.253957917E-1,-9.935802260E-1,-1.155092894E0,9.639180319E-1,1.802936280E0
3.354447917E-1,-8.917819557E-1,-1.299738391E0,1.127585106E0,1.938051370E0
3.454937917E-1,-7.542183137E-1,-1.130963774E0,1.220685643E0,1.827018818E0
3.555427917E-1,-5.790810487E-1,-6.241300446E-1,1.285395025E0,1.541789072E0
3.655917917E-1,-4.263886133E-1,-8.633413911E-3,1.472328317E0,1.532851088E0
3.756397917E-1,-3.187799647E-1,5.035119259E-1,1.612741014E0,1.719325014E0
3.856887917E-1,-6.936376512E-2,1.025952458E0,1.497074464E0,1.816210816E0
3.957377917E-1,1.680457619E-1,1.495482121E0,1.348320128E0,2.020562625E0
4.057867917E-1,3.845997325E-1,1.559946504E0,1.348265018E0,2.097419512E0
4.158357917E-1,6.134682316E-1,1.331484679E0,1.408109517E0,2.032724067E0
4.258847917E-1,8.958247206E-1,9.250306857E-1,1.699218410E0,2.132024133E0
4.359337917E-1,1.138578018E0,6.330546498E-1,2.022781690E0,2.405985008E0
4.459817917E-1,1.306738678E0,3.945531553E-1,2.317635725E0,2.689734842E0
4.560307917E-1,1.372826833E0,2.224327612E-1,2.336536265E0,2.719104919E0
4.660797917E-1,1.612885441E0,6.841651618E-2,2.097419643E0,2.646743173E0
4.761287917E-1,1.898121683E0,1.176108956E-2,1.733860239E0,2.570851139E0
4.861777917E-1,2.014918354E0,1.710959619E-1,1.404640948E0,2.462150685E0
4.962267917E-1,2.047494654E0,3.060649019E-1,1.160913797E0,2.373527107E0
5.062757917E-1,2.053280182E0,4.706932586E-1,8.215981185E-1,2.261091577E0
5.163247917E-1,1.941763985E0,5.562070334E-1,5.005269223E-1,2.080947101E0
5.263727917E-1,1.779909109E0,5.091655988E-1,2.962047422E-1,1.874850206E0
5.364217917E-1,1.723349285E0,3.867816210E-1,6.885626335E-2,1.767561587E0
5.464707917E-1,1.761222285E0,2.202324539E-1,-7.071973443E-2,1.776346687E0
5.565197917E-1,1.861364770E0,5.694018602E-3,-5.927501578E-2,1.862317040E0
5.665687917E-1,1.945485738E0,-1.453617811E-1,-5.504568815E-2,1.951685126E0
5.766177917E-1,1.985210990E0,-8.496062815E-2,-9.719585381E-2,1.989403935E0
5.866667917E-1,2.197053128E0,-7.712652862E-2,-6.065324105E-2,2.199242998E0
5.967147917E-1,2.424984026E0,-2.236337793E-1,-8.618737400E-2,2.436798691E0
6.067637917E-1,2.474918810E0,-3.948741674E-1,-1.847936859E-1,2.513025553E0
6.168127917E-1,2.590655088E0,-5.181545234E-1,-3.324147215E-1,2.662795043E0
6.268617917E-1,2.701793116E0,-6.154317266E-1,-4.161065038E-1,2.802068321E0
6.369107917E-1,2.761147909E0,-6.867718506E-1,-4.238359382E-1,2.876669994E0
6.469597917E-1,2.866051928E0,-7.226743394E-1,-4.578177263E-1,2.991004669E0
6.570087917E-1,3.030802492E0,-7.750361556E-1,-4.902370653E-1,3.166508672E0
6.670567917E-1,3.146877324E0,-8.119133753E-1,-6.679631120E-1,3.317863008E0
6.771057917E-1,3.107820847E0,-8.685366422E-1,-8.467236773E-1,3.336142578E0
6.871547917E-1,3.094428969E0,-8.479836792E-1,-8.752369666E-1,3.325749045E0
6.972037917E-1,3.256535422E0,-7.596527159E-1,-8.381159911E-1,3.447395193E0
7.072527917E-1,3.395127296E0,-5.579249454E-1,-7.722265685E-1,3.526259134E0
7.173017917E-1,3.267563855E0,-4.423208141E-1,-7.584546214E-1,3.383470801E0
7.273507917E-1,3.624819668E0,-4.735122013E-1,-5.972965141E-1,3.704091597E0
7.373997917E-1,3.679294668E0,-3.311816168E-1,-3.348133224E-1,3.709311321E0
7.474477917E-1,3.449463133E0,-5.817394853E-2,-8.966950786E-1,3.564581627E0
7.574967917E-1,4.068702858E0,-1.978686082E-1,-4.801575254E-1,4.101712592E0
7.675457917E-1,3.536431402E0,-1.853643376E-1,-3.429094138E-1,3.557849613E0
7.775947917E-1,3.258572592E0,-1.580356210E-1,-5.510789887E-1,3.308618842E0
7.876437917E-1,3.117110611E0,-2.073428518E-1,-6.960601526E-1,3.200604530E0
7.976927917E-1,2.887037585E0,-2.344780254E-1,-8.387164271E-1,3.015528347E0
8.077417917E-1,2.528462640E0,-3.155368066E-1,-8.473428243E-1,2.685270314E0
8.177897917E-1,2.161912970E0,-4.277711874E-1,-8.205988294E-1,2.351645874E0
8.278387917E-1,1.935574854E0,-5.366247082E-1,-7.366199487E-1,2.139398289E0
8.378877917E-1,1.706668640E0,-5.741182244E-1,-7.598754948E-1,1.954415603E0
8.479367917E-1,1.385069440E0,-5.000983214E-1,-8.739166653E-1,1.712380222E0
8.579857917E-1,1.139157769E0,-3.275966889E-1,-9.081065778E-1,1.493203794E0
8.680347917E-1,9.696396786E-1,-9.450386882E-2,-8.075082292E-1,1.265385960E0
8.780837917E-1,7.908481961E-1,1.800141352E-1,-7.982887781E-1,1.138029407E0
8.881317917E-1,6.203618065E-1,3.306939590E-1,-8.099786047E-1,1.072507625E0
8.981807917E-1,4.165632445E-1,3.173511976E-1,-7.497715062E-1,9.145458057E-1
9.082297917E-1,1.023055163E-1,2.588182300E-1,-7.489003441E-1,7.989399354E-1
9.182787917E-1,-2.467042610E-1,2.374244374E-1,-7.626774806E-1,8.360085498E-1
9.283277917E-1,-5.059110385E-1,2.784830010E-1,-7.778024733E-1,9.687494249E-1
9.383767917E-1,-6.826343608E-1,3.696101028E-1,-7.623933790E-1,1.088046397E0
9.484257917E-1,-8.370447081E-1,5.281216872E-1,-8.074431789E-1,1.277310004E0
9.584737917E-1,-9.441101503E-1,8.273903704E-1,-9.225630876E-1,1.557896483E0
9.685227917E-1,-1.083376794E0,1.214761391E0,-9.581417137E-1,1.888752514E0
9.785717917E-1,-1.252235026E0,1.575898293E0,-8.781505611E-1,2.196063842E0
9.886207917E-1,-1.366565049E0,1.725823241E0,-8.442028695E-1,2.357677751E0
9.986697917E-1,-1.404305903E0,1.769745187E0,-9.387174095E-1,2.446479812E0
1.008718792E0,-1.524925191E0,2.113467911E0,-1.152313712E0,2.849556166E0
1.018767792E0,-1.777383989E0,2.717145565E0,-1.212356943E0,3.465801960E0
1.028816792E0,-1.935005627E0,3.222361370E0,-9.395504916E-1,3.874353456E0
1.038864792E0,-1.934729054E0,3.358233120E0,-5.707174107E-1,3.917476811E0
1.048913792E0,-1.828237808E0,3.242568762E0,-5.196560884E-1,3.758556653E0
1.058962792E0,-1.907680419E0,3.110128158E0,-6.469873953E-1,3.705500564E0
1.069011792E0,-2.152078246E0,3.229503159E0,-7.905138085E-1,3.960561010E0
1.079060792E0,-2.401725118E0,3.606414680E0,-8.729916358E-1,4.420025428E0
1.089109792E0,-2.371009110E0,3.812142531E0,-8.426369852E-1,4.567729410E0
1.099158792E0,-2.287927777E0,3.686937271E0,-8.019899925E-1,4.412630497E0
1.109206792E0,-2.383411639E0,3.311745417E0,-9.445539540E-1,4.188136927E0
1.119255792E0,-2.528796809E0,2.727782235E0,-1.122922098E0,3.885429611E0
1.129304792E0,-2.660855590E0,2.007074314E0,-1.212292112E0,3.546569037E0
1.139353417E0,-2.757260973E0,1.219324558E0,-1.142485127E0,3.224052220E0
1.149402417E0,-2.732734242E0,4.706803948E-1,-1.018004923E0,2.953931363E0
1.159451417E0,-2.670026363E0,-2.340114176E-1,-9.847009367E-1,2.855422570E0
1.169500417E0,-2.603297938E0,-8.978341162E-1,-9.377600741E-1,2.909065178E0
1.179548417E0,-2.541491699E0,-1.448453550E0,-8.666567624E-1,3.050949309E0
1.189597417E0,-2.532719706E0,-1.828242486E0,-8.260145205E-1,3.231012176E0
1.199646417E0,-2.452119346E0,-2.078540154E0,-8.565685612E-1,3.326699289E0
1.209695417E0,-2.392281280E0,-2.051341830E0,-8.847474629E-1,3.273192799E0
1.219744417E0,-2.485205816E0,-1.801206130E0,-7.700940889E-1,3.164433026E0
1.229793417E0,-2.406292963E0,-1.511917475E0,-5.184012759E-1,2.888750622E0
1.239842417E0,-2.208387517E0,-1.071189442E0,-2.576721758E-1,2.467958103E0
1.249890417E0,-2.059093484E0,-4.258363438E-1,-2.762050171E-2,2.102846989E0
1.259939417E0,-1.997546276E0,1.997408867E-1,2.138203973E-1,2.018862727E0
1.269988417E0,-2.040682940E0,7.420672148E-1,4.015698141E-1,2.208236611E0
1.280037417E0,-2.143969327E0,1.225705040E0,5.163629365E-1,2.523011693E0
1.290086417E0,-2.108808850E0,1.624334289E0,5.903138423E-1,2.726537563E0
1.300135417E0,-2.024805411E0,1.879151854E0,8.299736702E-1,2.884424542E0
1.310184417E0,-1.970532725E0,2.120285765E0,1.151892128E0,3.115359758E0
1.320232417E0,-2.076094263E0,2.313758436E0,1.482853889E0,3.444198187E0
1.330281417E0,-2.217019177E0,2.366500906E0,1.871161634E0,3.743894554E0
1.340330417E0,-2.220871907E0,2.381559826E0,2.153193895E0,3.903888213E0
1.350379417E0,-2.213904365E0,2.304671863E0,2.296136098E0,3.935114473E0
1.360428417E0,-2.314188207E0,2.135413681E0,2.277613288E0,3.886255388E0
1.370477417E0,-2.506191473E0,1.977864549E0,2.146208811E0,3.846967134E0
1.380526417E0,-2.604182621E0,1.796547654E0,1.928405875E0,3.705145046E0
1.390574417E0,-2.554180157E0,1.660284140E0,1.656559464E0,3.467646025E0
1.400623417E0,-2.501956335E0,1.588228902E0,1.466790419E0,3.306619222E0
1.410672417E0,-2.432379146E0,1.530202303E0,1.378199254E0,3.187070847E0
1.420721417E0,-2.322428103E0,1.412370383E0,1.379265786E0,3.048087351E0
1.430770417E0,-2.065627162E0,1.250314216E0,1.391268951E0,2.786706032E0
1.440819417E0,-1.866407847E0,1.169340219E0,1.315660944E0,2.565501612E0
1.450868417E0,-1.647838926E0,1.013103787E0,1.313130123E0,2.337961319E0
1.460917417E0,-1.341863487E0,7.445838565E-1,1.457558835E0,2.116478323E0
1.470965417E0,-1.216169400E0,5.129551792E-1,1.602579284E0,2.076162660E0
1.481014417E0,-1.182912192E0,3.806186557E-1,1.674247291E0,2.085007388E0
1.491063417E0,-9.495968851E-1,3.184335172E-1,1.621055170E0,1.905506236E0
1.501112417E0,-5.023141238E-1,3.303021955E-1,1.439378672E0,1.559881399E0
1.511161417E0,-1.165604433E-1,3.167389941E-1,1.291674496E0,1.335040423E0
1.521210417E0,1.751112449E-1,2.347142529E-1,1.205458617E0,1.240518120E0
1.531259417E0,2.385117272E-1,2.079106164E-1,1.348759693E0,1.385376258E0
1.541307417E0,5.198323819E-1,1.950812405E-1,1.634485055E0,1.726216612E0
1.551356417E0,1.079627852E0,3.848403454E-2,1.608922198E0,1.937964901E0
1.561405417E0,1.487573762E0,-2.703126866E-1,1.132984571E0,1.889338161E0
1.571454417E0,1.525640305E0,-5.232842857E-1,6.884874237E-1,1.753687463E0
1.581503417E0,1.607394905E0,-6.818812394E-1,5.419398272E-1,1.828217488E0
1.591552417E0,2.124710061E0,-9.912258446E-1,4.931015432E-1,2.395844454E0
1.601601417E0,2.690475537E0,-1.210930880E0,2.912019010E-1,2.964761501E0
1.611649417E0,3.091028521E0,-1.230897367E0,-8.969394922E-2,3.328304471E0
1.621698417E0,3.457588423E0,-1.147720724E0,-3.555633366E-1,3.660410613E0
1.631747417E0,3.848244702E0,-1.041992540E0,-4.391972681E-1,4.010938790E0
1.641796417E0,4.263357545E0,-9.902686554E-1,-4.486346741E-1,4.399786658E0
1.651845417E0,4.724365768E0,-8.395151567E-1,-5.067782171E-1,4.825063913E0
1.661894417E0,5.253384125E0,-5.320773286E-1,-5.573881710E-1,5.309598160E0
1.671943417E0,5.820778052E0,-1.601470506E-1,-5.177686071E-1,5.845954886E0
1.681991417E0,6.438874354E0,1.806579137E-1,-4.776906216E-1,6.459096575E0
1.692040417E0,6.982744347E0,3.931088930E-1,-4.997451862E-1,7.011633082E0
1.702089417E0,7.434116067E0,3.585600346E-1,-5.273989348E-1,7.461420550E0
1.712138417E0,7.717779701E0,1.770811719E-1,-6.648085392E-1,7.748383809E0
1.722187417E0,7.990872738E0,-3.362149000E-2,-6.878301966E-1,8.020491750E0
1.732236417E0,8.274088476E0,-4.261427379E-1,-4.595560670E-1,8.297790641E0
1.742285417E0,8.647425009E0,-9.230747920E-1,-2.445059820E-1,8.699989054E0
1.752333417E0,8.899865096E0,-1.325919299E0,-2.466203535E-1,9.001471120E0
1.762382417E0,9.040854329E0,-1.284747300E0,-4.373997974E-1,9.142151892E0
1.772431417E0,9.036389980E0,-6.197703606E-1,-6.206784332E-1,9.078860110E0
1.782480417E0,9.144096277E0,1.656796861E-1,-8.270570791E-1,9.182917287E0
1.792529417E0,9.357730733E0,4.827016854E-1,-1.032692544E0,9.426907196E0
1.802578417E0,9.403424385E0,3.176768875E-1,-1.089487134E0,9.471657246E0
1.812627417E0,9.091728614E0,-1.297111237E-1,-9.444223917E-1,9.141569221E0
1.822675417E0,8.633757727E0,-4.053839529E-1,-7.305505389E-1,8.674088582E0
1.832724417E0,8.173067300E0,-2.602180535E-1,-6.333926189E-1,8.201702795E0
1.842773417E0,7.981874458E0,6.118935764E-2,-5.880281657E-1,8.003739197E0
1.852822417E0,7.910069481E0,1.170454699E-1,-5.001614714E-1,7.926730746E0
1.862871417E0,7.668679461E0,-1.538665563E-1,-4.245955646E-1,7.681965959E0
1.872920417E0,7.165839965E0,-6.136623591E-1,-2.940728656E-1,7.198077712E0
1.882969417E0,6.566268811E0,-1.016805074E0,-2.966060439E-2,6.644596181E0
1.893017417E0,6.113912421E0,-1.306433453E0,2.851008797E-1,6.258432389E0
1.903066417E0,5.703065414E0,-1.478458537E0,5.128470057E-1,5.913865641E0
1.913115417E0,5.202802202E0,-1.486240012E0,5.675804526E-1,5.440607291E0
1.923164417E0,4.602193751E0,-1.370406670E0,4.317952412E-1,4.821270465E0
1.933213417E0,4.044914923E0,-9.795898855E-1,1.959589076E-1,4.166453285E0
1.943262417E0,3.531187035E0,-4.098097104E-1,-4.831612766E-2,3.555215932E0
1.953311417E0,3.148032149E0,4.276419640E-2,-3.185767740E-1,3.164399840E0
1.963359417E0,2.793555810E0,5.076295352E-1,-6.431715024E-1,2.911238807E0
1.973408417E0,2.372588443E0,9.594894969E-1,-9.854552275E-1,2.742429218E0
1.983457417E0,2.112539666E0,1.305762777E0,-1.086418515E0,2.710746292E0
1.993506417E0,2.194108909E0,1.641239759E0,-9.108137655E-1,2.887449318E0
2.003555417E0,2.388482052E0,1.901657202E0,-4.590403426E-1,3.087371805E0
2.013604417E0,2.545006168E0,2.187590141E0,1.654294252E-1,3.360055641E0
2.023653417E0,2.767688020E0,2.626061733E0,7.192882168E-1,3.882482806E0
2.033701417E0,3.082877795E0,2.900123069E0,1.271437283E0,4.419434588E0
2.043750417E0,3.261150629E0,3.003396592E0,1.836237384E0,4.798672967E0
2.053799417E0,3.133026732E0,3.219367595E0,2.301559975E0,5.047510529E0
2.063848417E0,2.743104571E0,3.316299813E0,2.767733921E0,5.116914910E0
2.073897417E0,2.510193892E0,3.338848431E0,3.099154104E0,5.201320830E0
2.083946417E0,2.364292705E0,3.445725592E0,3.175434541E0,5.248455904E0
2.093995417E0,2.184757165E0,3.666115921E0,3.034496763E0,5.236577166E0
2.104043417E0,1.891092453E0,3.865696009E0,2.911171968E0,5.195648038E0
2.114092417E0,1.551924709E0,3.941808046E0,3.054849751E0,5.222875451E0
2.124141417E0,1.134805979E0,4.076721438E0,3.318202497E0,5.377537550E0
2.134190792E0,5.376713598E-1,3.908612233E0,3.513800046E0,5.283287882E0
2.144239792E0,1.501015341E-1,3.463452011E0,3.224262300E0,4.734331809E0
2.154288792E0,-3.360225266E-1,3.502990884E0,2.898717399E0,4.559212523E0
2.164337792E0,-7.369731206E-1,3.549466892E0,3.115341536E0,4.779874212E0
2.174385792E0,-1.090232069E0,3.607412800E0,3.014954199E0,4.826176736E0
2.184434792E0,-1.555045953E0,3.795249925E0,2.724518319E0,4.923930339E0
2.194483792E0,-2.000948771E0,3.908439741E0,2.504320364E0,5.054831122E0
2.204532792E0,-2.353645218E0,4.051111218E0,2.237768022E0,5.192181972E0
2.214581792E0,-2.664511269E0,4.220461786E0,1.953010958E0,5.359680008E0
2.224630792E0,-2.982020926E0,4.273715302E0,1.759311415E0,5.500206173E0
2.234679792E0,-3.376648926E0,4.246356180E0,1.598422937E0,5.655816003E0
2.244727792E0,-3.692552937E0,4.176133459E0,1.480014482E0,5.767623491E0
2.254776792E0,-3.973934988E0,4.092965587E0,1.402902571E0,5.874747842E0
2.264825792E0,-4.248322014E0,4.025886914E0,1.350236700E0,6.006591756E0
2.274874792E0,-4.583078619E0,4.005505859E0,1.290655911E0,6.222096069E0
2.284923792E0,-4.998128019E0,3.895935470E0,1.193909050E0,6.448644485E0
2.294972792E0,-5.343580935E0,3.740934554E0,1.000629337E0,6.599220228E0
2.305021792E0,-5.629323254E0,3.682250143E0,7.925631845E-1,6.773212149E0
2.315069792E0,-5.964704926E0,3.646809877E0,5.522028967E-1,7.012977625E0
2.325118792E0,-6.225700074E0,3.584209586E0,3.716478574E-1,7.193331767E0
2.335167792E0,-6.468758889E0,3.571683973E0,2.621821332E-1,7.393950733E0
2.345216792E0,-6.704707489E0,3.549013149E0,1.386678978E-1,7.587346415E0
2.355265792E0,-6.831583298E0,3.437466400E0,-4.432184896E-3,7.647661424E0
2.365314792E0,-6.940087740E0,3.303300868E0,-1.641810447E-1,7.687884616E0
2.375363792E0,-7.085402743E0,3.252433600E0,-2.950452393E-1,7.801814407E0
2.385411792E0,-7.160460527E0,3.215407569E0,-2.971554995E-1,7.854892882E0
2.395460792E0,-7.100282738E0,3.204144369E0,-1.979025221E-1,7.792286025E0
2.405509792E0,-6.991608726E0,3.324708694E0,-1.953250694E-1,7.744316133E0
2.415558792E0,-6.918434916E0,3.502645021E0,-2.943085084E-1,7.760146991E0
2.425607792E0,-6.923373474E0,3.636080236E0,-4.262322003E-1,7.831720988E0
2.435656792E0,-6.921493009E0,3.686907158E0,-6.065556532E-1,7.865637904E0
2.445705792E0,-6.895351278E0,3.722135755E0,-8.312507021E-1,7.879793243E0
2.455753792E0,-6.824355555E0,3.850038628E0,-1.084466715E0,7.910163982E0
2.465802792E0,-6.596828114E0,4.413956677E0,-1.371394265E0,8.054928736E0
2.475851792E0,-6.401645717E0,5.379340167E0,-1.525769529E0,8.499784772E0
2.485900792E0,-6.305310500E0,6.134760668E0,-1.341216200E0,8.898937569E0
2.495949792E0,-6.014093433E0,6.195851208E0,-9.872894990E-1,8.690951189E0
2.505998792E0,-5.661228586E0,5.827227530E0,-8.122811651E-1,8.164918278E0
2.516047792E0,-5.577973591E0,5.485689325E0,-9.006969130E-1,7.875140106E0
2.526095792E0,-5.353148734E0,5.326086066E0,-1.184455857E0,7.643711783E0
2.536144792E0,-4.959637552E0,5.282082260E0,-1.419774712E0,7.383370361E0
2.546193792E0,-4.565199587E0,5.348386177E0,-1.329842781E0,7.156449105E0
2.556242792E0,-4.169249532E0,5.247731037E0,-1.036963350E0,6.782080484E0
2.566291792E0,-3.682044906E0,4.775135095E0,-7.700309390E-1,6.078841790E0
2.576340792E0,-3.416291294E0,4.162529327E0,-6.792312813E-1,5.427619343E0
2.586389792E0,-3.235129935E0,3.607194114E0,-8.489882308E-1,4.919217019E0
2.596437792E0,-2.985957271E0,3.210184543E0,-1.145592338E0,4.531402369E0
2.606486792E0,-2.658407360E0,2.988770367E0,-1.335946689E0,4.217182893E0
2.616535792E0,-2.307804801E0,2.882371507E0,-1.371574359E0,3.938939544E0
2.626584792E0,-1.888067688E0,2.906893560E0,-1.398363962E0,3.737679967E0
2.636633792E0,-1.346034890E0,3.103201547E0,-1.460643826E0,3.684447062E0
2.646682792E0,-9.089952815E-1,3.308738194E0,-1.442168963E0,3.722079012E0
2.656731792E0,-5.116991973E-1,3.427904449E0,-1.350138466E0,3.719575091E0
2.666779792E0,-1.276511496E-1,3.530896136E0,-1.199833449E0,3.731370076E0
2.676828792E0,2.478564548E-1,3.648562580E0,-9.381144154E-1,3.775380825E0
2.686877792E0,6.912905788E-1,3.712405404E0,-5.062542335E-1,3.810003923E0
2.696926792E0,1.036842898E0,3.711209064E0,-3.524475016E-2,3.853486486E0
2.706975792E0,1.345659499E0,3.637363992E0,4.180805238E-1,3.900770132E0
2.717024792E0,1.635511826E0,3.563028924E0,8.745914340E-1,4.016837590E0
2.727073792E0,1.814964629E0,3.473858886E0,1.304553573E0,4.130817375E0
2.737121792E0,1.969490751E0,3.376999174E0,1.650727451E0,4.243573772E0
2.747170792E0,2.086111128E0,3.236950173E0,1.817238611E0,4.258175928E0
2.757219792E0,2.193074244E0,2.958223343E0,1.842342754E0,4.117631214E0
2.767268792E0,2.239345016E0,2.612751716E0,1.826987089E0,3.896026110E0
2.777317792E0,2.250373449E0,2.281375387E0,1.766729047E0,3.659260286E0
2.787366792E0,2.238673756E0,1.979784189E0,1.627257897E0,3.402818520E0
2.797415792E0,2.215845641E0,1.650697630E0,1.493029068E0,3.140686289E0
2.807463792E0,2.277894539E0,1.347276839E0,1.387334798E0,2.988085717E0
2.817512792E0,2.456087559E0,1.102645124E0,1.280022018E0,2.981048261E0
2.827561792E0,2.592275351E0,8.527871668E-1,1.244309710E0,2.999240588E0
2.837610792E0,2.627602766E0,6.257356900E-1,1.263895544E0,2.982159184E0
2.847659792E0,2.693243025E0,4.604968840E-1,1.308640923E0,3.029547233E0
2.857708792E0,2.887930748E0,3.371715045E-1,1.250207066E0,3.164940179E0
2.867757792E0,3.046300537E0,1.598348093E-1,1.126360846E0,3.251796870E0
2.877805792E0,3.159247401E0,-2.927700877E-2,1.031728338E0,3.323577086E0
2.887854792E0,3.290260407E0,-1.756567901E-1,9.796448493E-1,3.437495147E0
2.897903792E0,3.431998961E0,-3.479613715E-1,8.706819856E-1,3.557777552E0
2.907952792E0,3.594885432E0,-5.972509789E-1,7.774234276E-1,3.726163870E0
2.918001792E0,3.703255973E0,-9.289161605E-1,6.977353799E-1,3.881214333E0
2.928050792E0,3.758225940E0,-1.249659328E0,5.978590894E-1,4.005414603E0
2.938099792E0,3.935468495E0,-1.440939294E0,5.825547333E-1,4.231263208E0
2.948147792E0,4.195623983E0,-1.545554168E0,5.558762272E-1,4.505662734E0
2.958196792E0,4.363123323E0,-1.644463913E0,5.341642729E-1,4.693233231E0
2.968245792E0,4.473248613E0,-1.814848269E0,5.254401541E-1,4.855894845E0
2.978294792E0,4.591131989E0,-2.048736895E0,4.684777486E-1,5.049285811E0
2.988343792E0,4.701737920E0,-2.258289995E0,3.991799109E-1,5.231209972E0
2.998392792E0,4.770425747E0,-2.411078324E0,3.315792274E-1,5.355390301E0
3.008441792E0,4.827536087E0,-2.551456524E0,2.549843569E-1,5.466264912E0
3.018489792E0,4.975352529E0,-2.699181165E0,1.731851721E-1,5.663011995E0
3.028538792E0,5.150399455E0,-2.746265869E0,1.122327729E-1,5.837909468E0
3.038587792E0,5.309243746E0,-2.678437582E0,5.145798281E-2,5.946826461E0
3.048636792E0,5.537871047E0,-2.578083574E0,1.730892777E-2,6.108586600E0
3.058685792E0,5.815240738E0,-2.484715235E0,-7.677394152E-3,6.323835354E0
3.068734792E0,6.085471564E0,-2.404287368E0,-1.034701355E-1,6.544025365E0
3.078782792E0,6.307573373E0,-2.291545449E0,-2.115953855E-1,6.714270996E0
3.088831792E0,6.547140230E0,-2.122698326E0,-2.618546891E-1,6.887631033E0
3.098880792E0,6.865867277E0,-1.959028913E0,-2.654390323E-1,7.144815297E0
3.108929792E0,7.245584877E0,-1.759462858E0,-1.135821640E-1,7.457017545E0
3.118978792E0,7.581682833E0,-1.628038500E0,2.345049226E-1,7.758054943E0
3.129027792E0,7.829843343E0,-1.769377397E0,6.474540031E-1,8.053343395E0
3.139077125E0,8.032755175E0,-2.064804459E0,1.042464995E0,8.359145077E0
3.149125125E0,8.147646530E0,-2.246678594E0,1.338777326E0,8.557104266E0
3.159174125E0,8.172596599E0,-1.848094953E0,1.545105686E0,8.520219581E0
3.169223125E0,8.150615746E0,-6.384241480E-1,1.627584171E0,8.336015395E0
3.179272125E0,8.163488976E0,9.183900028E-1,1.496879021E0,8.350247857E0
3.189321125E0,8.278059320E0,1.705013001E0,1.130158027E0,8.527050639E0
3.199370125E0,8.202239059E0,1.392917866E0,8.965828121E-1,8.367843599E0
3.209419125E0,7.822954153E0,9.878771442E-1,9.377613167E-1,7.940649169E0
3.219467125E0,6.888280824E0,7.229754710E-1,1.322553642E0,7.051259064E0
3.229516125E0,6.146157476E0,7.270796317E-1,1.726314408E0,6.425267150E0
3.239565125E0,5.826546915E0,7.323777938E-1,1.990479916E0,6.200567432E0
3.249614125E0,5.680790446E0,4.991674447E-1,1.978867346E0,6.036262437E0
3.259663125E0,5.206577749E0,2.077580041E-1,1.908023651E0,5.549069246E0
3.269712125E0,4.434679794E0,-4.937739730E-2,1.891523978E0,4.821481718E0
3.279761125E0,3.703268545E0,-3.460206807E-1,1.844339286E0,4.151567852E0
3.289809125E0,3.136837362E0,-5.953471255E-1,1.674585260E0,3.605332527E0
3.299858125E0,2.490896326E0,-7.185789496E-1,1.446631558E0,2.968781413E0
3.309907125E0,1.766138916E0,-7.009466708E-1,1.262755337E0,2.281474073E0
3.319956125E0,1.117382154E0,-6.236172438E-1,1.113934343E0,1.696552700E0
3.330005125E0,5.891812366E-1,-4.069515914E-1,9.182151711E-1,1.164415402E0
3.340054125E0,1.602084464E-1,-3.863430798E-2,6.594010341E-1,6.796830731E-1
3.350103125E0,-1.164297581E-1,4.290078735E-1,4.172327507E-1,6.096612275E-1
3.360151125E0,-2.966353896E-1,9.148167694E-1,2.024890415E-1,9.827940210E-1
3.370200125E0,-4.058964613E-1,1.312981165E0,1.054954648E-2,1.374329935E0
3.380249125E0,-2.264766955E-1,1.625523612E0,-2.125345945E-1,1.654928899E0
3.390298125E0,4.143389636E-1,1.909972528E0,-2.643596363E-1,1.972196200E0
3.400347125E0,1.275797259E0,2.025716992E0,5.214203395E-2,2.394557740E0
3.410396125E0,2.186376843E0,1.844437519E0,6.367933595E-1,2.930477648E0
3.420445125E0,3.117931852E0,1.785667155E0,1.438564739E0,3.870345557E0
3.430493125E0,3.761768768E0,1.921216723E0,2.236881584E0,4.779708901E0
3.440542125E0,3.912987705E0,1.890234666E0,2.764333180E0,5.150339581E0
3.450591125E0,3.595955181E0,1.593197865E0,2.944316325E0,4.913061339E0
3.460640125E0,3.168022610E0,1.221987965E0,2.702701188E0,4.339840499E0
3.470689125E0,2.626583304E0,9.588387018E-1,2.291992761E0,3.615458799E0
3.480738125E0,2.209048837E0,9.905645245E-1,1.917438837E0,3.088314514E0
3.490786125E0,1.859121632E0,1.210040349E0,1.661610289E0,2.771548239E0
3.500835125E0,1.470000540E0,1.553666595E0,1.536489229E0,2.633549055E0
3.510884125E0,1.070813466E0,2.011745655E0,1.511484196E0,2.734656566E0
3.520933125E0,6.980224782E-1,2.429407007E0,1.511245630E0,2.945015643E0
3.530982125E0,3.456610769E-1,2.760347133E0,1.498781705E0,3.159959569E0
3.541031125E0,-4.064925849E-2,3.020399126E0,1.439951699E0,3.346329950E0
3.551080125E0,-4.766696978E-1,3.208653742E0,1.327295734E0,3.504908958E0
3.561128125E0,-9.396686053E-1,3.372005652E0,1.253833655E0,3.718265461E0
3.571177125E0,-1.427048063E0,3.451072871E0,1.299875801E0,3.954244205E0
3.581226125E0,-1.790648983E0,3.514716305E0,1.298920366E0,4.152932530E0
3.591275125E0,-2.110629088E0,3.513180242E0,1.204597760E0,4.271796615E0
3.601324125E0,-2.469294958E0,3.501285836E0,1.019045727E0,4.403961204E0
3.611373125E0,-2.833023346E0,3.502783892E0,8.324411952E-1,4.581318000E0
3.621422125E0,-3.114863234E0,3.425076150E0,7.846834767E-1,4.695662654E0
3.631470125E0,-3.333899347E0,3.332295456E0,7.663875389E-1,4.775607576E0
3.641519125E0,-3.574639156E0,3.320287029E0,6.748809528E-1,4.925222366E0
3.651568125E0,-3.857294730E0,3.372454718E0,5.416591609E-1,5.152239135E0
3.661617125E0,-4.177250862E0,3.452891940E0,4.634637612E-1,5.439364501E0
3.671666125E0,-4.426080294E0,3.486455542E0,4.005822194E-1,5.648541859E0
3.681715125E0,-4.608829172E0,3.475459561E0,3.011649352E-1,5.780209842E0
3.691764125E0,-4.724987619E0,3.546984457E0,3.838581045E-2,5.908306035E0
3.701812125E0,-4.775043878E0,3.707629690E0,-2.131234092E-1,6.049213465E0
3.711861125E0,-4.991295547E0,3.758347854E0,-2.350972456E-1,6.252477953E0
3.721910125E0,-5.184723780E0,3.771436262E0,-1.268313700E-1,6.412579695E0
3.731959125E0,-5.291157723E0,3.780882439E0,-2.840869725E-2,6.503247583E0
3.742008125E0,-5.317041593E0,3.778221956E0,2.299826860E-2,6.522761790E0
3.752057125E0,-5.337786344E0,3.948244661E0,2.307486256E-2,6.639362274E0
3.762106125E0,-5.391176101E0,4.161607514E0,8.929399967E-2,6.811147500E0
3.772154125E0,-5.461563714E0,4.229358909E0,1.469569016E-1,6.909251140E0
3.782203125E0,-5.554719799E0,4.196772961E0,3.389981747E-2,6.961965565E0
3.792252125E0,-5.641312385E0,4.176504173E0,-1.837025589E-1,7.021491235E0
3.802301125E0,-5.806399748E0,4.202108545E0,-3.821418554E-1,7.177605914E0
3.812350125E0,-5.974158704E0,4.102342475E0,-4.205516303E-1,7.259245806E0
3.822399125E0,-5.971879460E0,3.976268027E0,-4.145629120E-1,7.186509174E0
3.832448125E0,-5.836283698E0,3.939511260E0,-5.449295086E-1,7.062499879E0
3.842496125E0,-5.658952850E0,4.203461006E0,-8.671631312E-1,7.102450541E0
3.852545125E0,-5.546000431E0,4.801961243E0,-1.084625759E0,7.415751182E0
3.862594125E0,-5.373156736E0,5.411541368E0,-1.101046495E0,7.705056566E0
3.872643125E0,-5.073948280E0,5.655505332E0,-1.001746155E0,7.663758025E0
3.882692125E0,-4.848613545E0,5.601805673E0,-9.324075329E-1,7.467172418E0
3.892741125E0,-4.666475117E0,5.499960625E0,-9.106108671E-1,7.270128543E0
3.902789125E0,-4.452766401E0,5.493228725E0,-9.504385918E-1,7.134845756E0
3.912838125E0,-4.326025663E0,5.547472175E0,-1.086266488E0,7.118210481E0
3.922887125E0,-4.091635346E0,5.429635577E0,-1.165319089E0,6.897854078E0
3.932936125E0,-3.704452606E0,5.069781554E0,-1.127253131E0,6.379369384E0
3.942985125E0,-3.361235665E0,4.612320544E0,-1.047723396E0,5.802510691E0
3.953034125E0,-3.041215798E0,4.084543843E0,-1.001498233E0,5.189941295E0
3.963083125E0,-2.722280005E0,3.627967517E0,-1.002545469E0,4.645218418E0
3.973131125E0,-2.405615271E0,3.327746907E0,-1.035377001E0,4.234724293E0
3.983180125E0,-2.080025931E0,3.223414453E0,-1.068325476E0,3.982239060E0
3.993229125E0,-1.689589216E0,3.377110271E0,-1.137408575E0,3.943765176E0
4.003278125E0,-1.222941645E0,3.602342679E0,-1.167158039E0,3.979285983E0
4.013327125E0,-7.790795052E-1,3.761382852E0,-1.150087677E0,4.009696684E0
4.023376125E0,-3.787972480E-1,3.800222982E0,-1.074934584E0,3.967450872E0
4.033425125E0,-1.352186161E-1,3.723947223E0,-9.992049551E-1,3.858040634E0
4.043473125E0,3.635564804E-2,3.507295604E0,-8.795580590E-1,3.616084424E0
4.053522125E0,2.418116033E-1,3.362117425E0,-5.840771655E-1,3.421030922E0
4.063571125E0,3.031173205E-1,3.136081610E0,-1.846679707E-1,3.156103647E0
4.073620125E0,4.055581999E-1,2.770862181E0,1.884803553E-1,2.806720422E0
4.083669125E0,4.367963648E-1,2.381659228E0,5.487331954E-1,2.482780672E0
4.093718125E0,3.447249377E-1,2.042662808E0,8.447987739E-1,2.237183854E0
4.103767125E0,2.363970816E-1,1.758582267E0,1.025865920E0,2.049608757E0
4.113815125E0,2.061558670E-1,1.554264180E0,1.040524889E0,1.881735749E0
4.123864125E0,9.530493736E-2,1.327340757E0,1.029030506E0,1.682206973E0
4.133913125E0,9.663810253E-2,1.155850108E0,9.987371778E-1,1.530622209E0
4.143961875E0,1.602932310E-1,1.028854432E0,9.659553480E-1,1.420318660E0
4.154010875E0,2.223947543E-1,8.994467783E-1,1.006787697E0,1.368241719E0
4.164059875E0,3.134844339E-1,7.073604816E-1,1.126130685E0,1.366309504E0
4.174107875E0,4.775573051E-1,5.231533080E-1,1.241182619E0,1.429085252E0
4.184156875E0,5.618571979E-1,3.462305957E-1,1.306750957E0,1.463952595E0
4.194205875E0,5.730604631E-1,1.492981267E-1,1.314662240E0,1.441882460E0
4.204254875E0,6.546139187E-1,-6.182553470E-2,1.315463308E0,1.470641185E0
4.214303875E0,7.905757159E-1,-1.860712659E-1,1.341374660E0,1.568093893E0
4.224352875E0,9.224655122E-1,-2.873608285E-1,1.409252647E0,1.708657921E0
4.234401875E0,1.046351055E0,-4.066814500E-1,1.414846094E0,1.806109022E0
4.244449875E0,1.181064472E0,-4.826502299E-1,1.434305627E0,1.919660690E0
4.254498875E0,1.339026418E0,-4.943680501E-1,1.483280590E0,2.058522000E0
4.264547875E0,1.506558794E0,-4.405315661E-1,1.492568454E0,2.165998165E0
4.274596875E0,1.746997179E0,-3.680699462E-1,1.445331137E0,2.297053923E0
4.284645875E0,1.986851427E0,-3.727681839E-1,1.346577512E0,2.428951565E0
4.294694875E0,2.198345217E0,-4.793307656E-1,1.216694480E0,2.557894668E0
4.304743875E0,2.380130474E0,-5.797637111E-1,1.169817352E0,2.714704343E0
4.314791875E0,2.580796682E0,-7.143145752E-1,1.170397250E0,2.922428194E0
4.324840875E0,2.845297529E0,-9.062383193E-1,1.180613651E0,3.211048818E0
4.334889875E0,3.106520134E0,-1.026102732E0,1.175248100E0,3.476285698E0
4.344938875E0,3.314319946E0,-1.078451099E0,1.142148401E0,3.667734511E0
4.354987875E0,3.464591049E0,-1.132013349E0,1.080939674E0,3.801746433E0
4.365036875E0,3.639570147E0,-1.155191712E0,1.026820039E0,3.954149483E0
4.375085875E0,3.879922285E0,-1.134976718E0,1.014153800E0,4.167790424E0
4.385133875E0,4.143178259E0,-1.155070674E0,9.896424186E-1,4.413559388E0
4.395182875E0,4.469434474E0,-1.209610578E0,9.977305797E-1,4.736503835E0
4.405231875E0,4.787939620E0,-1.161597337E0,1.014883825E0,5.030274680E0
4.415280875E0,5.195087970E0,-1.047583648E0,1.095747163E0,5.411749473E0
4.425329875E0,5.582740241E0,-1.072934251E0,1.097343453E0,5.789847940E0
4.435378875E0,5.978509033E0,-1.034893436E0,1.072693931E0,6.161513365E0
4.445426875E0,6.455640661E0,-9.212808663E-1,9.558151066E-1,6.590723579E0
4.455475875E0,6.834853646E0,-8.579251152E-1,7.582669258E-1,6.930095857E0
4.465524875E0,6.977592366E0,-8.429246682E-1,6.848095250E-1,7.061606142E0
4.475573875E0,6.885525616E0,-1.169796887E0,6.501308584E-1,7.014382218E0
4.485622875E0,7.058908424E0,-1.654376113E0,5.906448678E-1,7.274201663E0
4.495671875E0,7.384815268E0,-2.047771520E0,5.884240222E-1,7.686033279E0
4.505720875E0,7.690826375E0,-2.129290477E0,6.853825521E-1,8.009521678E0
4.515768875E0,7.986023058E0,-1.497649684E0,7.305919079E-1,8.158019575E0
4.525817875E0,8.318794532E0,-3.543365908E-1,7.222982173E-1,8.357608007E0
4.535866875E0,8.897624443E0,3.897473288E-1,5.258727019E-1,8.921668331E0
4.545915875E0,9.376302075E0,3.467907590E-1,3.285256653E-1,9.388462789E0
4.555964875E0,9.625853053E0,1.195094866E-1,1.609013414E-1,9.627939486E0
4.566013875E0,9.693433417E0,-1.897263604E-1,1.396526328E-1,9.696295703E0
4.576062875E0,9.424950324E0,-6.268659568E-1,4.036544196E-1,9.454395086E0
4.586110875E0,9.131602532E0,-9.437324202E-1,8.338433576E-1,9.218030724E0
4.596159875E0,8.895138207E0,-1.175362852E0,1.330984157E0,9.070638367E0
4.606208875E0,8.560429550E0,-1.519067450E0,1.747294217E0,8.868007503E0
4.616257875E0,7.972151123E0,-1.840378382E0,1.935010890E0,8.407523611E0
4.626306875E0,7.179645826E0,-1.957568278E0,1.835815215E0,7.664829108E0
4.636355875E0,6.407474806E0,-1.919506997E0,1.488315189E0,6.852395392E0
4.646403875E0,5.690498579E0,-1.788879615E0,1.056398910E0,6.057874463E0
4.656452875E0,5.003722635E0,-1.484542565E0,7.014284813E-1,5.266223386E0
4.666501875E0,4.297807000E0,-1.053085878E0,3.995917010E-1,4.442950417E0
4.676550875E0,3.680419965E0,-6.185675883E-1,9.057808477E-2,3.733138273E0
4.686599875E0,3.216992749E0,-2.383705169E-1,-2.009804599E-1,3.232066830E0
4.696648875E0,2.833292026E0,7.695286632E-2,-4.119725955E-1,2.864120609E0
4.706697875E0,2.408530400E0,3.811074829E-1,-5.190234196E-1,2.493119915E0
4.716745875E0,2.011943876E0,6.687641805E-1,-5.131446290E-1,2.181394301E0
4.726794875E0,1.799309586E0,9.822322422E-1,-4.391469455E-1,2.096460160E0
4.736843875E0,1.710906994E0,1.265759051E0,-3.227353138E-1,2.152558200E0
4.746892875E0,1.603373190E0,1.538806481E0,-1.913156337E-1,2.230545369E0
4.756941875E0,1.488821850E0,1.830680190E0,-8.865139067E-2,2.361321564E0
4.766990875E0,1.369905856E0,1.977542952E0,-4.895405889E-2,2.406182595E0
4.777038875E0,1.279839731E0,1.944430169E0,5.420018077E-2,2.328462171E0
4.787087875E0,1.312704884E0,1.978676142E0,2.472436484E-1,2.387358961E0
4.797136875E0,1.461885774E0,2.077053791E0,4.841248977E-1,2.585660338E0
4.807185875E0,1.619976359E0,2.170348456E0,7.690105999E-1,2.815335349E0
4.817234875E0,1.757422180E0,2.179975312E0,1.038487719E0,2.986516670E0
4.827283875E0,1.884322547E0,2.148379297E0,1.279251502E0,3.130924699E0
4.837332875E0,1.929665365E0,2.110610962E0,1.527511414E0,3.242156408E0
4.847380875E0,1.886087821E0,2.075188529E0,1.832428508E0,3.349855062E0
4.857429875E0,1.875043600E0,2.078792753E0,2.095597651E0,3.496955437E0
4.867478875E0,1.775015867E0,2.086579490E0,2.424669592E0,3.658349071E0
4.877527875E0,1.554960583E0,2.146265529E0,2.737134272E0,3.810021281E0
4.887576875E0,1.138127198E0,2.117432908E0,3.062103807E0,3.892985405E0
4.897625875E0,7.686942655E-1,2.213880976E0,3.376328790E0,4.109958145E0
4.907674875E0,4.765416437E-1,2.431193916E0,3.576787423E0,4.351000352E0
4.917722875E0,1.288182539E-1,2.618153374E0,3.592302425E0,4.447016746E0
4.927771875E0,-2.193606341E-1,2.695155357E0,3.431409270E0,4.368815750E0
4.937820875E0,-6.043547612E-1,2.797524315E0,3.216163906E0,4.305240672E0
4.947869875E0,-1.045717217E0,2.951027175E0,3.094783895E0,4.402246386E0
4.957918875E0,-1.467086872E0,3.087536271E0,3.055908097E0,4.585171580E0
4.967967875E0,-1.836466595E0,3.184321724E0,3.056805060E0,4.780854690E0
4.978016875E0,-2.173684292E0,3.296760757E0,3.061897985E0,4.996874439E0
4.988064875E0,-2.507424066E0,3.409075245E0,3.010168837E0,5.193273139E0
4.998113875E0,-2.843481676E0,3.512034187E0,2.974669514E0,5.410030581E0
5.008162875E0,-3.190031530E0,3.542861293E0,2.944076297E0,5.603191282E0
5.018211875E0,-3.527276709E0,3.471485501E0,2.912581147E0,5.742475207E0
5.028260875E0,-3.883393777E0,3.456646437E0,2.866710033E0,5.936933403E0
5.038309875E0,-4.194466234E0,3.510594018E0,2.827313248E0,6.157232946E0
5.048357875E0,-4.423818591E0,3.588614001E0,2.833290856E0,6.362064009E0
5.058406875E0,-4.675300319E0,3.738078189E0,2.882398112E0,6.643785103E0
5.068455875E0,-4.776567078E0,3.874142020E0,2.823080448E0,6.767152478E0
5.078504875E0,-4.906492209E0,4.018337282E0,2.669522625E0,6.880919368E0
5.088553875E0,-5.253802201E0,4.191722429E0,2.595606802E0,7.204869822E0
5.098602875E0,-5.491945846E0,4.351768907E0,2.549055072E0,7.456342505E0
5.108651875E0,-5.598300852E0,4.615734733E0,2.397148941E0,7.641485628E0
5.118699875E0,-5.774797887E0,4.868326556E0,2.197209249E0,7.866169498E0
5.128748875E0,-6.011475635E0,4.797215350E0,2.001091297E0,7.947042267E0
5.138797375E0,-6.253050426E0,4.725590467E0,1.774826417E0,8.036283575E0
5.148846375E0,-6.443745085E0,4.786298014E0,1.354773993E0,8.140387704E0
5.158895375E0,-6.693005456E0,4.662839026E0,8.959033656E-1,8.206158215E0
5.168944375E0,-6.836103196E0,4.451591111E0,5.223458076E-1,8.174461173E0
5.178992375E0,-6.893229908E0,4.432253492E0,2.184568007E-1,8.198122526E0
5.189041375E0,-6.738365232E0,4.934991539E0,-1.611855161E-1,8.353782871E0
5.199090375E0,-6.632082732E0,5.845305952E0,-3.055052503E-1,8.845646188E0
5.209139375E0,-6.361363079E0,6.569371344E0,-1.023016425E-1,9.145165154E0
5.219188375E0,-6.086964358E0,6.695150800E0,2.147558056E-2,9.048571187E0
5.229237375E0,-5.999636192E0,6.515250100E0,-1.155433202E-1,8.857622061E0
5.239286375E0,-5.962214012E0,6.308107224E0,-4.370805395E-1,8.690871767E0
5.249334375E0,-5.653274034E0,6.270785031E0,-8.311923031E-1,8.483698065E0
5.259383375E0,-5.131294847E0,6.334033778E0,-1.095388144E0,8.224964796E0
5.269432375E0,-4.504151732E0,5.972855360E0,-1.116405449E0,7.563646284E0
5.279481375E0,-3.977948517E0,5.068389332E0,-1.071977062E0,6.531598552E0
5.289530375E0,-3.572352310E0,4.014112084E0,-1.036034155E0,5.472491536E0
5.299579375E0,-3.247424875E0,3.065509810E0,-9.814889149E-1,4.572355979E0
5.309628375E0,-2.829675230E0,2.393693383E0,-8.888199755E-1,3.811407990E0
5.319676375E0,-2.303904709E0,2.128742008E0,-8.345520401E-1,3.245919985E0
5.329725375E0,-1.780228075E0,2.178823410E0,-9.374723911E-1,2.965693500E0
5.339774375E0,-1.273640513E0,2.337541986E0,-1.208732984E0,2.923576256E0
5.349823375E0,-8.350847214E-1,2.451313015E0,-1.595608088E0,3.041753961E0
5.359872375E0,-4.372746670E-1,2.507647430E0,-1.884565791E0,3.167190077E0
5.369921375E0,-1.044739562E-1,2.504003445E0,-1.991975634E0,3.201392664E0
5.379969375E0,2.078813803E-1,2.455390863E0,-1.866694361E0,3.091392372E0
5.390018375E0,5.646685392E-1,2.370937774E0,-1.621080898E0,2.927131661E0
5.400067375E0,7.708045256E-1,2.163864478E0,-1.238737314E0,2.609773789E0
5.410116375E0,8.078858131E-1,1.879721957E0,-7.231204089E-1,2.170008583E0
5.420165375E0,8.956495965E-1,1.644435262E0,-8.361167550E-2,1.874392286E0
5.430214375E0,1.059632421E0,1.607004896E0,6.114116927E-1,2.019680633E0
5.440263375E0,1.207468159E0,1.567957774E0,1.161338743E0,2.294597702E0
5.450311375E0,1.413355054E0,1.493728541E0,1.386788814E0,2.480318664E0
5.460360375E0,1.416571607E0,1.393008497E0,1.420264124E0,2.442191224E0
5.470409375E0,1.248666471E0,1.280145541E0,1.421907191E0,2.284679545E0
5.480458375E0,1.172098936E0,1.158146310E0,1.427608227E0,2.180179818E0
5.490507375E0,1.102664419E0,9.295692945E-1,1.393544687E0,2.005476175E0
5.500556375E0,1.057938482E0,6.992047852E-1,1.298577865E0,1.815055271E0
5.510604375E0,1.011097607E0,5.212874615E-1,1.229330459E0,1.674906674E0
5.520653375E0,9.516220683E-1,3.985199064E-1,1.256787961E0,1.626013117E0
5.530702375E0,1.008944077E0,3.386409098E-1,1.382511137E0,1.744701368E0
5.540751375E0,1.211474671E0,2.999153852E-1,1.529275227E0,1.973905478E0
5.550800375E0,1.413595374E0,2.727807963E-1,1.597819797E0,2.150741581E0
5.560849375E0,1.631246867E0,2.829882807E-1,1.586557914E0,2.293079746E0
5.570898375E0,1.831493538E0,2.797997940E-1,1.593439940E0,2.443707705E0
5.580946375E0,1.994971747E0,1.149860805E-1,1.622053875E0,2.573750735E0
5.590995375E0,2.303311801E0,-1.661182272E-1,1.643915445E0,2.834660210E0
5.601044375E0,2.635189236E0,-4.041121835E-1,1.617283716E0,3.118194283E0
5.611093375E0,2.932442092E0,-5.725260276E-1,1.527425022E0,3.355596798E0
5.621142375E0,3.169479444E0,-7.457649940E-1,1.448790496E0,3.563812463E0
5.631191375E0,3.428092436E0,-1.011291150E0,1.422418384E0,3.846791079E0
5.641240375E0,3.770689280E0,-1.311515268E0,1.355044426E0,4.215959599E0
5.651288375E0,4.080249940E0,-1.579197877E0,1.252905263E0,4.551052308E0
5.661337375E0,4.261967661E0,-1.885653958E0,1.140636311E0,4.798031929E0
5.671386375E0,4.471630104E0,-2.219335259E0,1.016530255E0,5.094532220E0
5.681435375E0,4.744103921E0,-2.515918901E0,8.615617179E-1,5.438626529E0
5.691484375E0,4.950175588E0,-2.630987427E0,6.953942279E-1,5.648885406E0
5.701533375E0,5.151375355E0,-2.610361374E0,5.508487912E-1,5.801214437E0
5.711581375E0,5.414590691E0,-2.584647074E0,4.357989029E-1,6.015655703E0
5.721630375E0,5.628885298E0,-2.756587374E0,2.938002940E-1,6.274507332E0
5.731679375E0,5.615401618E0,-2.953587670E0,1.763661305E-1,6.347245109E0
5.741728375E0,5.538468633E0,-2.982156581E0,1.117964244E-1,6.291294868E0
5.751777375E0,5.548064498E0,-2.933737543E0,5.618476231E-2,6.276224372E0
5.761826375E0,5.625968707E0,-2.838764727E0,-7.430637997E-2,6.302033839E0
5.771875375E0,5.685121479E0,-2.674193088E0,-2.187829292E-1,6.286476030E0
5.781923375E0,5.676989172E0,-2.454013844E0,-3.138387752E-1,6.192647639E0
5.791972375E0,5.697428699E0,-2.147435557E0,-4.261754457E-1,6.103589006E0
5.802021375E0,5.799551489E0,-1.852428324E0,-5.312803531E-1,6.111345759E0
5.812070375E0,5.975112385E0,-1.617732782E0,-6.070462346E-1,6.219930265E0
5.822119375E0,6.035893607E0,-1.430842322E0,-6.216420543E-1,6.234240951E0
5.832168375E0,6.038658755E0,-1.396712124E0,-4.989768255E-1,6.218133337E0
5.842216375E0,6.048762159E0,-1.537895485E0,-2.812452257E-1,6.247539120E0
5.852265375E0,6.013101161E0,-1.643572213E0,-8.546407342E-2,6.234261728E0
5.862314375E0,6.017450320E0,-1.585311141E0,-4.827227354E-2,6.222961512E0
5.872363375E0,6.213914427E0,-1.003800867E0,-1.779752111E-1,6.296985299E0
5.882412375E0,6.327439873E0,3.056497496E-1,-5.057455623E-1,6.354974090E0
5.892461375E0,6.349360499E0,1.639680891E0,-1.166877372E0,6.660670760E0
5.902510375E0,6.423447061E0,1.966858335E0,-1.749855883E0,6.941988149E0
5.912558375E0,6.626209788E0,1.723150479E0,-2.075095559E0,7.154154409E0
5.922607375E0,5.882556809E0,1.318910242E0,-1.890075037E0,6.317941317E0
5.932656375E0,5.114125668E0,1.265144509E0,-1.670465312E0,5.526782639E0
5.942705375E0,4.831954828E0,1.299282308E0,-1.465989935E0,5.213928314E0
5.952754375E0,4.681253662E0,1.045787383E0,-1.443978091E0,5.009279372E0
5.962803375E0,4.355118484E0,5.782106906E-1,-1.542233534E0,4.656164612E0
5.972851375E0,3.690629496E0,1.397092777E-1,-1.545128490E0,4.003459355E0
5.982900375E0,3.029076979E0,-1.992321789E-1,-1.461479977E0,3.369113315E0
5.992949375E0,2.565366465E0,-3.647615916E-1,-1.437056158E0,2.962986081E0
6.002998375E0,2.256669439E0,-2.627645159E-1,-1.527526617E0,2.737688754E0
6.013047375E0,1.897599527E0,7.241367280E-2,-1.625296156E0,2.499543018E0
6.023096375E0,1.586325925E0,5.857500905E-1,-1.666470494E0,2.374164488E0
6.033145375E0,1.321075173E0,1.166247042E0,-1.756433415E0,2.488057499E0
6.043193375E0,1.049072349E0,1.695237041E0,-1.835615825E0,2.709956988E0
6.053242375E0,8.839227131E-1,2.170150235E0,-1.952893429E0,3.050354759E0
6.063291375E0,7.110988989E-1,2.579069999E0,-2.121829430E0,3.414589849E0
6.073340375E0,6.361355478E-1,2.805240886E0,-2.118600597E0,3.572466004E0
6.083389375E0,7.310709411E-1,2.839811963E0,-1.995568163E0,3.547011278E0
6.093438375E0,7.432992232E-1,2.863738770E0,-1.769726475E0,3.447524514E0
6.103486375E0,8.494636095E-1,2.945453609E0,-1.419226243E0,3.378089477E0
6.113535375E0,1.031731262E0,2.955605544E0,-1.094694664E0,3.316388086E0
6.123584375E0,1.040956414E0,2.881761643E0,-8.604774249E-1,3.182540152E0
6.133633375E0,9.644374108E-1,2.776472000E0,-7.194443375E-1,3.025976940E0
6.143682417E0,9.478476906E-1,2.750657712E0,-5.982730722E-1,2.970263248E0
6.153731417E0,8.681308454E-1,2.763813947E0,-4.352679026E-1,2.929466990E0
6.163780417E0,6.050043869E-1,2.816312004E0,-3.569046879E-1,2.902589287E0
6.173828417E0,2.525038218E-1,2.841034032E0,-4.505145174E-1,2.887593441E0
6.183877417E0,-1.019046897E-1,2.882296663E0,-6.442684400E-1,2.955181964E0
6.193926417E0,-5.138305074E-1,2.921350801E0,-8.180196226E-1,3.076925153E0
6.203975417E0,-9.706711274E-1,3.007430001E0,-8.806111425E-1,3.280596537E0
6.214024417E0,-1.319252304E0,3.161361462E0,-9.352603894E-1,3.550963944E0
6.224073417E0,-1.626964366E0,3.342868391E0,-1.006901060E0,3.851705061E0
6.234121417E0,-1.943198746E0,3.499379643E0,-1.049102755E0,4.137909598E0
6.244170417E0,-2.307992497E0,3.627306197E0,-1.043003524E0,4.424029381E0
6.254219417E0,-2.685809167E0,3.751587596E0,-1.049912009E0,4.731838501E0
6.264268417E0,-2.988880295E0,3.832113111E0,-1.043104681E0,4.970569755E0
6.274317417E0,-3.302084647E0,3.987463106E0,-1.010035168E0,5.274826639E0
6.284366417E0,-3.624876679E0,4.158916333E0,-9.763376641E-1,5.602637882E0
6.294415417E0,-4.081105095E0,4.215706830E0,-8.543396026E-1,5.929375939E0
6.304463417E0,-4.439863935E0,4.276654405E0,-7.186719934E-1,6.206339831E0
6.314512417E0,-4.694215477E0,4.406337755E0,-6.564470939E-1,6.471660849E0
6.324561417E0,-4.916181630E0,4.508696188E0,-6.474621161E-1,6.701969139E0
6.334610417E0,-5.272147840E0,4.482312382E0,-7.141596971E-1,6.956773046E0
6.344659417E0,-5.729876652E0,4.296417702E0,-8.023567591E-1,7.206557284E0
6.354708417E0,-6.017415236E0,4.078103427E0,-9.097841439E-1,7.325839261E0
6.364756417E0,-6.175223985E0,3.895641647E0,-1.033220036E0,7.374073417E0
6.374805417E0,-6.311029077E0,3.701754701E0,-1.173270718E0,7.410036441E0
6.384854417E0,-6.465675652E0,3.477631509E0,-1.202728990E0,7.439451564E0
6.394903417E0,-6.583302335E0,3.297414476E0,-1.142789036E0,7.451092446E0
6.404952417E0,-6.648918035E0,3.160776156E0,-1.042942786E0,7.435478908E0
6.415001417E0,-6.655424232E0,3.018646715E0,-1.009172192E0,7.377352385E0
6.425050417E0,-6.682052452E0,2.911975668E0,-1.088082121E0,7.369759152E0
6.435098417E0,-6.757612512E0,2.847154020E0,-1.211480591E0,7.432314450E0
6.445147417E0,-6.853095789E0,2.818889749E0,-1.303581181E0,7.523987321E0
6.455196417E0,-6.851871967E0,2.838421788E0,-1.354042214E0,7.539112548E0
6.465245417E0,-6.767703636E0,2.893873565E0,-1.396846171E0,7.491828612E0
6.475294417E0,-6.699505806E0,3.004625092E0,-1.445329968E0,7.483323373E0
6.485343417E0,-6.640364728E0,3.114170923E0,-1.508689812E0,7.487900187E0
6.495391417E0,-6.502400844E0,3.291642981E0,-1.551370393E0,7.451367683E0
6.505440417E0,-6.322079730E0,3.543188152E0,-1.560779148E0,7.413427409E0
6.515489417E0,-6.127366864E0,3.765785220E0,-1.563550143E0,7.360057884E0
6.525538417E0,-5.861150152E0,3.998701454E0,-1.637406324E0,7.281743877E0
6.535587417E0,-5.473270424E0,4.551520903E0,-1.798842101E0,7.342265629E0
6.545636417E0,-5.172362182E0,5.426101520E0,-1.888492927E0,7.730608888E0
6.555685417E0,-4.760131139E0,6.101452589E0,-1.804758899E0,7.946302715E0
6.565733417E0,-4.222239339E0,6.363855747E0,-1.453537704E0,7.774235452E0
6.575782417E0,-3.750104742E0,6.389214537E0,-1.028621128E0,7.479532699E0
6.585831417E0,-3.362381719E0,6.408905620E0,-6.843668908E-1,7.269665750E0
6.595880417E0,-2.878462644E0,6.422560623E0,-4.650536557E-1,7.053446466E0
6.605929417E0,-2.292383940E0,6.314466071E0,-3.654515995E-1,6.727634113E0
6.615978417E0,-1.742733389E0,6.167575243E0,-2.807680563E-1,6.415211200E0
6.626026417E0,-1.186620496E0,5.912300425E0,-1.343754659E-1,6.031701359E0
6.636075417E0,-6.800960845E-1,5.510788499E0,3.293327272E-2,5.552693505E0
6.646124417E0,-1.744510943E-1,5.055845300E0,1.897000480E-1,5.062409603E0
6.656173417E0,3.317295009E-1,4.547199519E0,3.442080438E-1,4.572258425E0
6.666222417E0,8.667678595E-1,3.965199832E0,5.038019844E-1,4.089977099E0
6.676271417E0,1.455745613E0,3.288074133E0,5.699971068E-1,3.640813576E0
6.686320417E0,1.956832114E0,2.612632433E0,6.078554893E-1,3.320320534E0
6.696368417E0,2.406729750E0,2.161893382E0,7.151881492E-1,3.313249941E0
6.706417417E0,2.801075914E0,1.983529331E0,9.110407106E-1,3.551113918E0
6.716466417E0,3.066000391E0,1.907390397E0,1.102735755E0,3.775516213E0
6.726515417E0,3.263932149E0,1.796397380E0,1.194464536E0,3.912421520E0
6.736564417E0,3.384558454E0,1.746614771E0,1.254945796E0,4.010085789E0
6.746613417E0,3.517004905E0,1.757149115E0,1.385405363E0,4.168482282E0
6.756661417E0,3.672212813E0,1.751955033E0,1.635701130E0,4.385203709E0
6.766710417E0,3.746418657E0,1.717535398E0,1.948556550E0,4.558777602E0
6.776759417E0,3.846804825E0,1.660490547E0,2.214818724E0,4.739257136E0
6.786808417E0,4.011851550E0,1.493052603E0,2.331884805E0,4.874612362E0
6.796857417E0,4.074425528E0,1.246885993E0,2.352147746E0,4.867059388E0
6.806906417E0,4.030718176E0,1.000187287E0,2.388201678E0,4.790675409E0
6.816955417E0,4.019949067E0,7.577418458E-1,2.380703062E0,4.733065632E0
6.827003417E0,3.960707417E0,4.451339096E-1,2.290231580E0,4.596793244E0
6.837052417E0,3.794148309E0,9.026112914E-2,2.106079370E0,4.340423801E0
6.847101417E0,3.581089219E0,-2.208674616E-1,1.927248126E0,4.072746957E0
6.857150417E0,3.308206682E0,-5.223446381E-1,1.775522528E0,3.790719670E0
6.867199417E0,3.108029008E0,-7.752870011E-1,1.610040332E0,3.585128187E0
6.877248417E0,2.994797677E0,-1.026047768E0,1.481713682E0,3.495291488E0
6.887296417E0,2.952916995E0,-1.285303370E0,1.303925582E0,3.474470529E0
6.897345417E0,2.938252763E0,-1.427611735E0,1.113548427E0,3.451288841E0
6.907394417E0,2.863163989E0,-1.521421539E0,1.045995398E0,3.406836934E0
6.917443417E0,2.792720535E0,-1.645177274E0,1.015623937E0,3.396673112E0
6.927492417E0,2.751384521E0,-1.741008461E0,9.694028664E-1,3.397200194E0
6.937541417E0,2.720092269E0,-1.819878629E0,9.159065442E-1,3.398491574E0
6.947590417E0,2.717772679E0,-1.883528495E0,8.827575092E-1,3.422459459E0
6.957638417E0,2.782415110E0,-1.955865569E0,8.944789839E-1,3.516722426E0
6.967687417E0,2.815170043E0,-2.034805904E0,8.846157543E-1,3.584433354E0
6.977736417E0,2.874283346E0,-2.137038622E0,8.698550431E-1,3.685795250E0
6.987785417E0,2.996150723E0,-2.236899126E0,8.515544276E-1,3.834811833E0
6.997834417E0,3.126863767E0,-2.290586506E0,8.351509412E-1,3.965039804E0
7.007883417E0,3.262570333E0,-2.360001141E0,8.434057479E-1,4.114037411E0
7.017931417E0,3.393613745E0,-2.467147275E0,8.391504367E-1,4.278738527E0
7.027980417E0,3.581719842E0,-2.561220789E0,8.398920098E-1,4.482631765E0
7.038029417E0,3.856614991E0,-2.638772410E0,8.381119712E-1,4.747528904E0
7.048078417E0,4.044900013E0,-2.792399815E0,7.835524790E-1,4.977214817E0
7.058127417E0,4.207639719E0,-2.984503654E0,6.892288506E-1,5.204472161E0
7.068176417E0,4.381269279E0,-3.118784961E0,6.418244500E-1,5.416112883E0
7.078225417E0,4.537393153E0,-3.165626421E0,6.576702583E-1,5.571504055E0
7.088273417E0,4.647544756E0,-3.202925225E0,6.581659560E-1,5.682568493E0
7.098322417E0,4.723684567E0,-3.269370645E0,5.127739155E-1,5.767574654E0
7.108371417E0,4.863617501E0,-3.240411724E0,2.685931666E-1,5.850400467E0
7.118420417E0,5.001413569E0,-3.128135244E0,7.534371257E-2,5.899580025E0
7.128469417E0,5.246653395E0,-2.902391789E0,-8.234619185E-2,5.996501550E0
7.138518917E0,5.428194239E0,-2.609651522E0,-1.685062301E-1,6.025277430E0
7.148566917E0,5.652359530E0,-2.279747522E0,-2.694057834E-1,6.100737373E0
7.158615917E0,5.917474042E0,-1.926532427E0,-3.535344990E-1,6.233218500E0
7.168664917E0,6.174477296E0,-1.550297429E0,-3.933164692E-1,6.378266994E0
7.178713917E0,6.386223686E0,-1.304402130E0,-4.028803213E-1,6.530515327E0
7.188762917E0,6.562391523E0,-1.238204632E0,-3.744078894E-1,6.688670606E0
7.198811917E0,6.662744361E0,-1.252031543E0,-2.770375693E-1,6.785019913E0
7.208860917E0,6.693236421E0,-1.185389072E0,-9.092537284E-2,6.798001800E0
7.218908917E0,6.716879053E0,-8.196398860E-1,8.538791344E-2,6.767242042E0
7.228957917E0,6.750570710E0,1.008235395E-1,2.129007033E-1,6.754679637E0
7.239006917E0,6.822592034E0,1.157204908E0,3.093200469E-1,6.926944792E0
7.249055917E0,6.882065234E0,1.639797835E0,3.651317203E-1,7.084142856E0
7.259104917E0,6.883677896E0,1.556286147E0,2.040432680E-1,7.060359878E0
7.269153917E0,6.371699202E0,1.426042342E0,9.554818153E-2,6.530028862E0
7.279201917E0,5.677207857E0,1.475705084E0,2.618979585E-1,5.871710576E0
7.289250917E0,5.181087981E0,1.632730891E0,4.843331317E-1,5.453811641E0
7.299299917E0,4.889896934E0,1.866294411E0,6.815643203E-1,5.278131940E0
7.309348917E0,4.527203795E0,2.005496151E0,8.676495465E-1,5.026967749E0
7.319397917E0,3.898204482E0,1.811767371E0,1.008532360E0,4.415386360E0
7.329446917E0,3.028032958E0,1.199042321E0,1.032055782E0,3.416405307E0
7.339494917E0,2.135179793E0,7.281707221E-1,1.057016376E0,2.491286609E0
7.349543917E0,1.406695367E0,2.784040636E-1,1.220554812E0,1.883097111E0
7.359592917E0,8.527824891E-1,-1.853035265E-1,1.329737531E0,1.590527357E0
7.369641917E0,3.603352493E-1,-5.147841883E-1,1.303446110E0,1.447002424E0
7.379690917E0,-9.679685444E-2,-5.643779325E-1,1.169700408E0,1.302340634E0
7.389739917E0,-4.595984593E-1,-4.020796913E-1,9.898938489E-1,1.163094430E0
7.399788917E0,-6.242317861E-1,-1.117671883E-1,7.337039423E-1,9.697828118E-1
7.409836917E0,-7.516005152E-1,2.693075502E-1,4.765901756E-1,9.298215348E-1
7.419885917E0,-9.047203821E-1,5.988683188E-1,2.864855003E-1,1.122156930E0
7.429934917E0,-9.780830580E-1,8.479006487E-1,2.215697122E-1,1.313268867E0
7.439983917E0,-8.437421089E-1,9.268690503E-1,3.276534069E-1,1.295509065E0
7.450032917E0,-6.466394860E-1,9.484657413E-1,4.911228454E-1,1.248571799E0
7.460081917E0,-4.658207738E-1,8.821495450E-1,7.511812699E-1,1.248779449E0
7.470129917E0,-2.875368297E-1,7.665489221E-1,1.133051230E0,1.397884032E0
7.480178917E0,-3.878165781E-2,6.641811329E-1,1.486667444E0,1.628748195E0
7.490227917E0,2.049799919E-1,6.195358872E-1,1.716413902E0,1.836278355E0
7.500276917E0,4.141202778E-1,6.158644205E-1,1.848330595E0,1.991760673E0
7.510325917E0,6.799411333E-1,6.433808327E-1,1.991678596E0,2.200691361E0
7.520374917E0,9.040216398E-1,6.556734341E-1,2.255630096E0,2.516948531E0
7.530423917E0,1.111130603E0,5.778785688E-1,2.537198088E0,2.829475039E0
7.540471917E0,1.249614304E0,4.379044122E-1,2.805470681E0,3.102251106E0
7.550520917E0,1.290805600E0,4.014464378E-1,3.113423649E0,3.394222320E0
7.560569917E0,1.274977187E0,4.859650165E-1,3.321091021E0,3.590456015E0
7.570618917E0,1.258645914E0,5.254834235E-1,3.335112644E0,3.603234480E0
7.580667917E0,1.059490918E0,5.152648294E-1,3.311789271E0,3.515105549E0
7.590716917E0,7.287864339E-1,6.102487546E-1,3.406697767E0,3.536823841E0
7.600764917E0,3.787206495E-1,8.047294861E-1,3.570071311E0,3.679188503E0
7.610813917E0,2.952259183E-2,9.315684575E-1,3.717159190E0,3.832227005E0
7.620862917E0,-1.194574463E-1,1.086366475E0,3.766916656E0,3.922259973E0
7.630911917E0,-3.402272594E-1,1.215355468E0,3.706069361E0,3.915072619E0
7.640960917E0,-6.388773072E-1,1.306439300E0,3.546592401E0,3.833179557E0
7.651009917E0,-9.026475441E-1,1.453488003E0,3.394413936E0,3.801242683E0
7.661058917E0,-1.061908742E0,1.638170555E0,3.426586486E0,3.943697236E0
7.671106917E0,-1.147386264E0,1.733805860E0,3.482214557E0,4.055662242E0
7.681155917E0,-1.384661012E0,1.684757077E0,3.485776681E0,4.111730973E0
7.691204917E0,-1.657604361E0,1.604718050E0,3.599576361E0,4.275479180E0
7.701253917E0,-1.929080059E0,1.530202303E0,3.804523609E0,4.531806356E0
7.711302917E0,-2.116906659E0,1.489520885E0,3.922162279E0,4.699289649E0
7.721351917E0,-2.283668665E0,1.392582235E0,3.960964694E0,4.779505117E0
7.731399917E0,-2.471895799E0,1.321935591E0,3.975373403E0,4.864296068E0
7.741448917E0,-2.664004900E0,1.306511221E0,4.027248731E0,5.002262090E0
7.751497917E0,-2.794252798E0,1.364706219E0,4.053011563E0,5.108539370E0
7.761546917E0,-2.895210823E0,1.412863303E0,4.033167282E0,5.161866596E0
7.771595917E0,-3.002813040E0,1.486022496E0,3.999622976E0,5.217483393E0
7.781644917E0,-3.037861251E0,1.607803041E0,4.036267476E0,5.301423086E0
7.791692917E0,-3.044894866E0,1.800166495E0,4.122916195E0,5.432349594E0
7.801741917E0,-3.027423386E0,2.081670753E0,4.184478021E0,5.568527793E0
7.811790917E0,-2.961449836E0,2.407902701E0,4.205374800E0,5.679203973E0
7.821839917E0,-2.933564465E0,2.768876467E0,4.243144305E0,5.854634997E0
7.831888917E0,-3.001966363E0,3.180709898E0,4.285157719E0,6.123013488E0
7.841937917E0,-3.047794501E0,3.599360599E0,4.242020470E0,6.343436427E0
7.851986917E0,-2.983055298E0,3.959593230E0,4.144032830E0,6.461424421E0
7.862034917E0,-2.958634402E0,4.259471777E0,4.035911965E0,6.571544928E0
7.872083917E0,-3.026169743E0,4.524860524E0,3.893869064E0,6.692853081E0
7.882132917E0,-3.143943776E0,4.615204391E0,3.771862231E0,6.738800986E0
7.892181917E0,-3.289094473E0,4.565699524E0,3.584965339E0,6.672011022E0
7.902230917E0,-3.402953795E0,4.481750172E0,3.350463924E0,6.549182212E0
7.912279917E0,-3.460606171E0,4.529744995E0,3.009137388E0,6.445874077E0
7.922327917E0,-3.515677587E0,4.824045007E0,2.544510616E0,6.488908491E0
7.932376917E0,-3.542101740E0,5.102703717E0,2.153332035E0,6.574261085E0
7.942425917E0,-3.479925372E0,5.017118021E0,1.874782376E0,6.387187393E0
7.952474917E0,-3.404591600E0,4.672038742E0,1.619496303E0,6.003495502E0
7.962523917E0,-3.363861065E0,4.206282288E0,1.382918981E0,5.560650758E0
7.972572917E0,-3.358507939E0,3.743590359E0,1.128660994E0,5.154407822E0
7.982621917E0,-3.293237810E0,3.418390444E0,8.769092703E-1,4.826984397E0
7.992669917E0,-3.143070202E0,3.153016316E0,6.257539625E-1,4.495772481E0
8.002718917E0,-3.002714222E0,2.807552290E0,3.853070994E-1,4.128813888E0
8.012767917E0,-2.894300997E0,2.287761716E0,1.982906310E-1,3.694611089E0
8.022816917E0,-2.928950427E0,1.643455269E0,6.874688387E-2,3.359229370E0
8.032865917E0,-2.965724736E0,9.411263162E-1,-5.625131093E-2,3.111977854E0
8.042914917E0,-2.889945406E0,1.807274956E-1,-2.909631519E-1,2.910172921E0
8.052962917E0,-2.851229237E0,-5.004134864E-1,-5.553520974E-1,2.947598645E0
8.063011917E0,-2.725342777E0,-9.602899808E-1,-7.521963465E-1,2.985874988E0
8.073060917E0,-2.573820954E0,-1.051731078E0,-8.566730802E-1,2.909395355E0
8.083109917E0,-2.346543190E0,-7.151869798E-1,-9.026369461E-1,2.613907193E0
8.093158917E0,-2.024873239E0,-1.018959188E-1,-9.552069231E-1,2.241185998E0
8.103207917E0,-1.631857901E0,6.155533487E-1,-1.012613717E0,2.016743086E0
8.113255917E0,-1.197324409E0,1.392778702E0,-1.079958585E0,2.130663933E0
8.123304917E0,-7.032265002E-1,2.102448834E0,-1.137525519E0,2.491742947E0
8.133353917E0,-2.403685105E-1,2.625348372E0,-1.119171109E0,2.864048720E0
8.143402625E0,2.309305197E-1,2.866810312E0,-8.988408606E-1,3.013278143E0
8.153451625E0,4.520371324E-1,2.809793528E0,-5.209927619E-1,2.893218052E0
8.163500625E0,6.241686362E-1,2.694174778E0,-1.678468104E-1,2.770620287E0
8.173549625E0,8.661556560E-1,2.575718960E0,1.005438964E-1,2.719312938E0
8.183597625E0,1.156828347E0,2.342027385E0,3.240550303E-1,2.632177000E0
8.193646625E0,1.349192972E0,2.033431224E0,4.171986906E-1,2.475725947E0
8.203695625E0,1.432397681E0,1.744433175E0,3.074970312E-1,2.278017700E0
8.213744625E0,1.295886830E0,1.508583977E0,-3.419919491E-2,1.989049491E0
8.223793625E0,1.169536686E0,1.289727958E0,-5.170599246E-1,1.816195262E0
8.233842625E0,1.215213965E0,1.160427309E0,-1.026038997E0,1.968779455E0
8.243890625E0,1.296853375E0,1.118807997E0,-1.410769415E0,2.218970561E0
8.253939625E0,1.525226907E0,1.178374752E0,-1.669753121E0,2.550090128E0
8.263988625E0,1.664179555E0,1.191526310E0,-1.733328727E0,2.682099367E0
8.274037625E0,1.654682508E0,1.014241070E0,-1.693967611E0,2.576079466E0
8.284086625E0,1.697673576E0,6.884464931E-1,-1.578692093E0,2.418330595E0
8.294135625E0,1.745771602E0,3.413814998E-1,-1.474060847E0,2.310219729E0
8.304183625E0,1.684940094E0,-3.271517158E-2,-1.451864816E0,2.224411124E0
8.314232625E0,1.607483783E0,-5.080259764E-1,-1.493459569E0,2.252224676E0
8.324281625E0,1.515054506E0,-9.423033607E-1,-1.547314764E0,2.361674990E0
8.334330625E0,1.413482231E0,-1.354576503E0,-1.654849738E0,2.563461951E0
8.344379625E0,1.406951768E0,-1.802429368E0,-1.864994575E0,2.950672749E0
8.354428625E0,1.421775337E0,-2.177556319E0,-2.094825819E0,3.339384949E0
8.364477625E0,1.467356429E0,-2.435792166E0,-2.275606524E0,3.642060326E0
8.374525625E0,1.550123474E0,-2.580157582E0,-2.428911163E0,3.867777833E0
8.384574625E0,1.655951061E0,-2.679115859E0,-2.546672332E0,4.050355005E0
8.394623625E0,1.766638561E0,-2.765677455E0,-2.725336345E0,4.265845963E0
8.404672625E0,1.884324886E0,-2.890733610E0,-2.870992241E0,4.488832535E0
8.414721625E0,2.129810879E0,-2.923923576E0,-2.849907181E0,4.605148684E0
8.424770625E0,2.449470850E0,-2.875634345E0,-2.702096586E0,4.644405914E0
8.434818625E0,2.756847867E0,-2.775452245E0,-2.539820564E0,4.664121978E0
8.444867625E0,3.040421162E0,-2.589117270E0,-2.328495759E0,4.622724476E0
8.454916625E0,3.319680381E0,-2.417213223E0,-2.158954571E0,4.639426951E0
8.464965625E0,3.646652587E0,-2.274145305E0,-1.954724193E0,4.721308995E0
8.475014625E0,3.917032516E0,-2.167814857E0,-1.631514085E0,4.764913766E0
8.485063625E0,4.016890680E0,-2.173143425E0,-1.317917969E0,4.753406237E0
8.495111625E0,4.188265555E0,-2.082618002E0,-1.072195748E0,4.798798789E0
8.505160625E0,4.275042620E0,-1.925082902E0,-8.406805068E-1,4.763263304E0
8.515209625E0,4.324992752E0,-1.678983536E0,-6.685554349E-1,4.687378200E0
8.525258625E0,4.576310467E0,-1.054205035E0,-5.167447231E-1,4.724509588E0
8.535307625E0,4.940987273E0,-3.890251976E-1,-3.403681773E-1,4.967951926E0
8.545356625E0,5.064614954E0,-1.573386329E-1,-6.320898592E-2,5.067452561E0
8.555405625E0,4.915785774E0,-3.231820410E-1,2.897166717E-1,4.934909539E0
8.565453625E0,4.628903540E0,-6.149136633E-1,8.053650784E-1,4.738510283E0
8.575502625E0,4.294591909E0,-8.187224579E-1,1.395107063E0,4.589133888E0
8.585551625E0,4.188817824E0,-5.068653041E-1,1.784998233E0,4.581410906E0
8.595600625E0,4.287739557E0,3.889146852E-1,1.943463625E0,4.723665526E0
8.605649625E0,4.382929304E0,1.241220626E0,2.072103539E0,5.004429138E0
8.615698625E0,4.379355486E0,1.618875913E0,2.291977558E0,5.201218590E0
8.625746625E0,4.111658843E0,1.670082904E0,2.523194007E0,5.105039015E0
8.635795625E0,3.657684821E0,1.742732804E0,2.754571838E0,4.899330759E0
8.645844625E0,3.313193772E0,1.773885015E0,3.104326551E0,4.874501447E0
8.655893625E0,3.052549456E0,1.522164720E0,3.495209409E0,4.883803071E0
8.665942625E0,2.673201985E0,9.911480767E-1,3.806669537E0,4.755955879E0
8.675991625E0,2.313314340E0,4.643513685E-1,3.973556088E0,4.621276168E0
8.686039625E0,1.721057761E0,-3.358172894E-2,4.068694965E0,4.417855392E0
8.696088625E0,9.489118838E-1,-5.181556928E-1,4.134368552E0,4.273397057E0
8.706137625E0,5.035996342E-1,-8.806912494E-1,3.971044124E0,4.098587697E0
8.716186625E0,1.920868814E-1,-1.196446742E0,3.689015372E0,3.882939169E0
8.726235625E0,-4.745424807E-2,-1.454330002E0,3.329376526E0,3.633466074E0
8.736284625E0,-2.054737893E-1,-1.648459901E0,3.017052180E0,3.444160765E0
8.746333625E0,-5.671302170E-2,-1.582847709E0,2.718460604E0,3.146212213E0
8.756381625E0,4.746708271E-1,-1.408121211E0,2.755094579E0,3.130281757E0
8.766430625E0,9.654989728E-1,-1.360046573E0,3.184985383E0,3.595281190E0
8.776479625E0,1.519433778E0,-1.177610521E0,3.640738420E0,4.117088995E0
8.786528625E0,1.783252255E0,-9.376671034E-1,3.910671623E0,4.399154549E0
8.796577625E0,1.907878055E0,-7.063418967E-1,3.929811898E0,4.425193680E0
8.806626625E0,1.946117676E0,-6.913385260E-1,3.944632251E0,4.452577519E0
8.816674625E0,1.841377379E0,-9.534382135E-1,3.995358016E0,4.501399867E0
8.826723625E0,1.676948997E0,-1.350982804E0,3.998348283E0,4.541376605E0
8.836772625E0,1.820520945E0,-1.719518189E0,3.948642272E0,4.675768932E0
8.846821625E0,2.291666194E0,-2.053489512E0,4.174823098E0,5.186299357E0
8.856870625E0,2.691234798E0,-2.338554139E0,4.751220567E0,5.940174836E0
8.866919625E0,2.904960178E0,-2.478155828E0,5.410191246E0,6.621949809E0
8.876967625E0,2.992186603E0,-2.594979689E0,6.180449642E0,7.340644251E0
8.887016625E0,3.154974548E0,-2.730993526E0,6.915706605E0,8.077077930E0
8.897065625E0,3.375479775E0,-2.761876180E0,7.755196034E0,8.897465328E0
8.907114625E0,3.842068580E0,-2.718673443E0,8.456744968E0,9.678285577E0
8.917163625E0,4.245715618E0,-2.621600892E0,8.780685393E0,1.009947168E1
8.927212625E0,4.348550307E0,-2.299544440E0,8.889063535E0,1.015939196E1
8.937261625E0,4.104989217E0,-1.870067035E0,9.043690814E0,1.010625701E1
8.947309625E0,3.721595473E0,-1.576332157E0,9.146988895E0,1.000012509E1
8.957358625E0,3.453721660E0,-1.511740889E0,9.145407808E0,9.892018894E0
8.967407625E0,3.130564762E0,-1.459234062E0,8.992080950E0,9.632617483E0
8.977456625E0,2.482559951E0,-1.294285278E0,8.881351057E0,9.312178848E0
8.987505625E0,1.881362101E0,-1.158425222E0,8.854090168E0,9.125589573E0
8.997554625E0,1.858740978E0,-1.030156022E0,8.818025712E0,9.070486035E0
9.007602625E0,2.323168361E0,-7.528231680E-1,9.071536424E0,9.394499830E0
9.017651625E0,2.621875126E0,-2.985208243E-1,9.669653960E0,1.002325055E1
9.027700625E0,2.677141839E0,4.391492844E-2,1.039746976E1,1.073668451E1
9.037749625E0,2.691837062E0,2.991628486E-1,1.082564148E1,1.115930099E1
9.047798625E0,2.466764283E0,5.166658223E-1,1.076055612E1,1.105176174E1
9.057847625E0,2.370412109E0,7.265633225E-1,1.011432068E1,1.041375199E1
9.067895625E0,2.075193792E0,7.626102376E-1,8.937284353E0,9.206685356E0
9.077944625E0,1.610150698E0,7.224082911E-1,7.612381300E0,7.814269516E0
9.087993625E0,1.251994706E0,5.999085385E-1,6.315888698E0,6.466670785E0
9.098042625E0,9.339623076E-1,4.660242569E-1,5.213883260E0,5.317334186E0
9.108091625E0,8.125010204E-1,4.456104577E-1,4.117777662E0,4.220760531E0
9.118140625E0,6.549869710E-1,3.837872618E-1,3.246991012E0,3.334554127E0
9.128189625E0,6.323705256E-1,3.346022379E-1,2.709142481E0,2.802017866E0
9.138237625E0,5.355722094E-1,4.145921481E-1,2.413359323E0,2.506596789E0
9.148287125E0,3.232346660E-1,6.790658051E-1,2.345688327E0,2.463303624E0
9.158336125E0,2.487873316E-2,1.061631584E0,2.376442342E0,2.602913517E0
9.168385125E0,-2.215281969E-1,1.441329888E0,2.438542696E0,2.841302002E0
9.178434125E0,-2.822187871E-1,1.897450715E0,2.477616130E0,3.133456294E0
9.188483125E0,-2.812668604E-1,2.447827490E0,2.394082807E0,3.435491661E0
9.198531125E0,-3.640412146E-1,2.966438096E0,2.284481428E0,3.761799620E0
9.208580125E0,-5.670448476E-1,3.371095825E0,2.226666498E0,4.079690014E0
9.218629125E0,-8.179553032E-1,3.662186592E0,2.260976790E0,4.380944825E0
9.228678125E0,-1.151184615E0,3.756665318E0,2.402680553E0,4.605500426E0
9.238727125E0,-1.519426469E0,3.838431028E0,2.473106757E0,4.812324447E0
9.248776125E0,-1.900625753E0,3.956346563E0,2.469662747E0,5.036297297E0
9.258824125E0,-2.207775899E0,4.043673559E0,2.493256263E0,5.238501414E0
9.268873125E0,-2.482118486E0,4.086916643E0,2.419517026E0,5.358904969E0
9.278922125E0,-2.764623202E0,4.206346022E0,2.158763952E0,5.476928894E0
9.288971125E0,-3.059169674E0,4.346074011E0,1.757489423E0,5.597825245E0
9.299020125E0,-3.386288061E0,4.535079702E0,1.377164297E0,5.824987231E0
9.309069125E0,-3.694585429E0,4.639686098E0,1.103900521E0,6.032847167E0
9.319118125E0,-3.928303902E0,4.580086891E0,9.460175121E-1,6.107676858E0
9.329166125E0,-4.204962571E0,4.397997871E0,8.428422225E-1,6.142839613E0
9.339215125E0,-4.479837840E0,4.207790285E0,6.921442723E-1,6.184942186E0
9.349264125E0,-4.744685719E0,4.097256859E0,5.426216125E-1,6.292375907E0
9.359313125E0,-4.894494308E0,4.098708138E0,4.877653376E-1,6.402608683E0
9.369362125E0,-4.821448551E0,4.191300844E0,5.151502240E-1,6.409270524E0
9.379411125E0,-4.699691395E0,4.218811409E0,5.797373621E-1,6.342047329E0
9.389459125E0,-4.610987379E0,4.117818885E0,5.549943574E-1,6.206903875E0
9.399508125E0,-4.581480575E0,3.831035762E0,4.967665780E-1,5.992793697E0
9.409557125E0,-4.523932863E0,3.360730173E0,5.279088485E-1,5.660314797E0
9.419606125E0,-4.478784172E0,2.802729506E0,5.691293800E-1,5.314010594E0
9.429655125E0,-4.500870860E0,2.270577626E0,4.810505048E-1,5.064066631E0
9.439704125E0,-4.554884514E0,1.857589369E0,3.149743044E-1,4.929180461E0
9.449752125E0,-4.556837484E0,1.506431325E0,1.865904987E-1,4.803011473E0
9.459801125E0,-4.458807160E0,1.345095828E0,8.670017481E-2,4.658085550E0
9.469850125E0,-4.366969621E0,1.325343056E0,6.479884386E-3,4.563660798E0
9.479899125E0,-4.325160275E0,1.368407507E0,-9.279772438E-2,4.537417980E0
9.489948125E0,-4.255595950E0,1.475062475E0,-2.019885564E-1,4.508514786E0
9.499997125E0,-4.147416029E0,1.680552344E0,-2.323052001E-1,4.480991141E0
9.510046125E0,-4.017504930E0,2.125933006E0,-1.727045310E-1,4.548600210E0
9.520094125E0,-3.887032499E0,2.716891796E0,-2.742694974E-2,4.742496697E0
9.530143125E0,-3.722364966E0,3.208741450E0,1.996356734E-1,4.918523868E0
9.540192125E0,-3.575478231E0,3.570813907E0,4.804903050E-1,5.075985370E0
9.550241125E0,-3.368821843E0,3.827287989E0,6.955111722E-1,5.145952754E0
9.560290125E0,-3.152664898E0,3.949445679E0,8.111737025E-1,5.118146140E0
9.570339125E0,-3.002826489E0,3.959409919E0,9.836982123E-1,5.065723641E0
9.580387125E0,-2.924287857E0,3.913329767E0,1.240498495E0,5.040282319E0
9.590436125E0,-2.890212039E0,3.778108812E0,1.386654328E0,4.954820082E0
9.600485125E0,-2.779878003E0,3.531412445E0,1.304408562E0,4.679751838E0
9.610534125E0,-2.658430164E0,3.340260533E0,1.057396445E0,4.398031220E0
9.620583125E0,-2.660438683E0,3.171893467E0,7.141532651E-1,4.201054277E0
9.630632125E0,-2.675782946E0,2.920791807E0,3.674239019E-1,3.978170368E0
9.640680125E0,-2.531130432E0,2.658264688E0,8.497298039E-2,3.671540934E0
9.650729125E0,-2.205362753E0,2.488114221E0,-1.669461199E-1,3.328995082E0
9.660778125E0,-1.835671374E0,2.333720831E0,-3.784657840E-1,2.993188711E0
9.670827125E0,-1.564853488E0,2.109536244E0,-4.907685041E-1,2.672033556E0
9.680876125E0,-1.203925915E0,1.950357492E0,-4.288032210E-1,2.331781327E0
9.690925125E0,-5.994694126E-1,1.907530146E0,-1.930984497E-1,2.008811052E0
9.700973125E0,-8.697967172E-2,1.804807431E0,1.055999838E-2,1.806932992E0
9.711022125E0,4.335909212E-1,1.702011625E0,1.982871958E-1,1.767530048E0
9.721071125E0,8.608738661E-1,1.499813154E0,3.864892602E-1,1.771981167E0
9.731120125E0,1.202246010E0,1.192633772E0,5.243245053E-1,1.772762525E0
9.741169125E0,1.514162806E0,9.891875052E-1,6.436977518E-1,1.919772830E0
9.751218125E0,1.789456735E0,9.223380429E-1,6.936411595E-1,2.129319359E0
9.761267125E0,2.096554840E0,8.811251128E-1,5.949835018E-1,2.350729468E0
9.771315125E0,2.354946223E0,7.698011434E-1,4.758547421E-1,2.522856169E0
9.781364125E0,2.536975309E0,5.751286232E-1,3.721132227E-1,2.627828933E0
9.791413125E0,2.626903732E0,3.333620435E-1,2.528966817E-1,2.660020714E0
9.801462125E0,2.740317496E0,5.991174102E-2,1.955869516E-1,2.747941712E0
9.811511125E0,2.937145008E0,-3.421404684E-1,1.606207482E-1,2.961364537E0
9.821560125E0,3.058673538E0,-8.337480479E-1,6.977029279E-2,3.171038869E0
9.831608125E0,3.104299361E0,-1.310419500E0,4.071876727E-2,3.369796998E0
9.841657125E0,3.181803035E0,-1.675371126E0,5.996202707E-2,3.596433568E0
9.851706125E0,3.366566572E0,-1.847137764E0,-2.604580086E-2,3.840099840E0
9.861755125E0,3.466546943E0,-1.931808954E0,-1.926177720E-1,3.973151790E0
9.871804125E0,3.467468756E0,-1.985712097E0,-3.658474195E-1,4.012509993E0
9.881853125E0,3.558383604E0,-1.901260176E0,-5.194560770E-1,4.067765818E0
9.891901125E0,3.722471678E0,-1.749141937E0,-6.025883539E-1,4.156850447E0
9.901950125E0,3.825692576E0,-1.609268938E0,-7.183865762E-1,4.212095615E0
9.911999125E0,3.904995146E0,-1.433305753E0,-8.297362733E-1,4.241675937E0
9.922048125E0,4.142675399E0,-1.262392225E0,-9.631697345E-1,4.436562805E0
9.932097125E0,4.544308071E0,-1.187966525E0,-1.227293143E0,4.854714076E0
9.942146125E0,4.930312012E0,-1.210652552E0,-1.516648457E0,5.298478902E0
9.952195125E0,5.266276651E0,-1.204959703E0,-1.689500338E0,5.660389478E0
9.962243125E0,5.726502809E0,-1.456835534E0,-1.827852477E0,6.185163609E0
9.972292125E0,6.152422768E0,-1.865571696E0,-1.988116472E0,6.729433169E0
9.982341125E0,6.260154208E0,-2.159299557E0,-1.780433897E0,6.857262584E0
9.992390125E0,6.484374463E0,-2.124471202E0,-1.458375691E0,6.977632100E0
1.000243912E1,6.876785783E0,-1.531240184E0,-1.339981853E0,7.171501278E0
1.001248812E1,7.389880711E0,-3.426871830E-1,-1.282775034E0,7.508214382E0
1.002253612E1,7.950185473E0,4.916847628E-1,-1.098019391E0,8.040699568E0
1.003258512E1,8.411260062E0,3.566351312E-1,-1.014991268E0,8.479781349E0
1.004263412E1,8.653380983E0,-7.415380418E-2,-9.991242635E-1,8.711185368E0
1.005268312E1,8.554453111E0,-4.959391969E-1,-7.587417197E-1,8.602343443E0
1.006273212E1,8.543876082E0,-8.859473115E-1,-3.765010464E-1,8.597934298E0
1.007278112E1,8.699368165E0,-1.095593966E0,7.755041521E-2,8.768428974E0
1.008282912E1,8.832788762E0,-1.181714097E0,4.947176770E-1,8.925208743E0
1.009287812E1,8.805861164E0,-1.440965021E0,6.566119123E-1,8.947106250E0
1.010292713E1,8.492325860E0,-1.873178338E0,6.599085724E-1,8.721460595E0
1.011297612E1,7.990140667E0,-2.265632343E0,6.424862087E-1,8.329959563E0
1.012302512E1,7.431459092E0,-2.681993859E0,6.680677772E-1,7.928807593E0
1.013307412E1,6.876658899E0,-3.032212840E0,7.318421888E-1,7.551049285E0
1.014312175E1,6.319468948E0,-3.182609659E0,8.008732474E-1,7.120820879E0
1.015317075E1,5.819606270E0,-2.986802194E0,8.261460829E-1,6.593278534E0
1.016321975E1,5.454802578E0,-2.467509803E0,7.383676815E-1,6.032301603E0
1.017326875E1,5.161353629E0,-1.804333806E0,5.402546962E-1,5.494275830E0
1.018331775E1,4.863862499E0,-1.133563446E0,3.866764076E-1,5.009155931E0
1.019336675E1,4.507498386E0,-5.405791801E-1,2.511227461E-1,4.546738412E0
1.020341475E1,4.267671913E0,-9.778766513E-2,-2.755445559E-2,4.268881028E0
1.021346375E1,4.142397071E0,2.510086888E-1,-1.918553317E-1,4.154427437E0
1.022351275E1,4.055269758E0,5.741568160E-1,-1.586735523E-1,4.098785936E0
1.023356175E1,3.912448007E0,7.678376484E-1,9.166332800E-2,3.988135683E0
1.024361075E1,3.908962482E0,8.312664896E-1,3.502143037E-1,4.011688138E0
1.025365975E1,4.007226695E0,7.872211683E-1,5.974695917E-1,4.127293649E0
1.026370875E1,4.163532125E0,7.500287837E-1,8.426316496E-1,4.313649386E0
1.027375675E1,4.266099012E0,7.172212261E-1,1.021222061E0,4.444873627E0
1.028380575E1,4.330298516E0,7.697812629E-1,1.230186346E0,4.566991009E0
1.029385475E1,4.397513429E0,9.683872050E-1,1.588288543E0,4.774783622E0
1.030390375E1,4.397915718E0,1.238536170E0,1.941883707E0,4.964528863E0
1.031395275E1,4.328849283E0,1.443607378E0,2.270558038E0,5.096898290E0
1.032400175E1,3.999266295E0,1.610434873E0,2.582929162E0,5.025848628E0
1.033404975E1,3.434115361E0,1.841287040E0,2.880334922E0,4.845597542E0
1.034409875E1,2.960589711E0,2.158085091E0,3.044804235E0,4.763743856E0
1.035414775E1,2.551745376E0,2.485415146E0,3.116760070E0,4.733168732E0
1.036419675E1,2.056677414E0,2.807655201E0,3.147899125E0,4.692773020E0
1.037424575E1,1.427480757E0,3.074389392E0,3.071932976E0,4.574532069E0
1.038429475E1,7.819610131E-1,3.291543286E0,2.959354194E0,4.494830084E0
1.039434275E1,2.516472048E-1,3.563932319E0,2.892205939E0,4.596715685E0
1.040439175E1,-2.115668803E-1,3.822172260E0,2.861312760E0,4.779212491E0
1.041444075E1,-6.896545279E-1,3.987449657E0,2.851850796E0,4.950599065E0
1.042448975E1,-1.176224731E0,4.100593865E0,2.740505776E0,5.070379332E0
1.043453875E1,-1.677863794E0,4.186448532E0,2.681268804E0,5.246978237E0
1.044458775E1,-2.079971552E0,4.224111618E0,2.670564891E0,5.413069134E0
1.045463675E1,-2.321936352E0,4.269359127E0,2.668868029E0,5.544517322E0
1.046468475E1,-2.630066491E0,4.290468160E0,2.686368746E0,5.704554655E0
1.047473375E1,-3.037549594E0,4.227424065E0,2.610639117E0,5.823509111E0
1.048478275E1,-3.360110661E0,4.174285154E0,2.481402787E0,5.905282381E0
1.049483175E1,-3.611824524E0,4.230320191E0,2.388167764E0,6.053447826E0
1.050488075E1,-3.820773021E0,4.221025750E0,2.420096046E0,6.186455345E0
1.051492975E1,-3.999152859E0,4.175417760E0,2.408768966E0,6.263346150E0
1.052497775E1,-4.233870621E0,4.126212856E0,2.312129402E0,6.348010345E0
1.053502675E1,-4.493329706E0,4.147049116E0,2.240236862E0,6.512041878E0
1.054507575E1,-4.592770963E0,4.177600526E0,2.201562063E0,6.587318634E0
1.055512475E1,-4.686181403E0,4.113222974E0,2.059892067E0,6.566738513E0
1.056517375E1,-4.919298196E0,4.092502196E0,1.782979774E0,6.642822129E0
1.057522275E1,-5.101452997E0,4.233980548E0,1.618669360E0,6.824331796E0
1.058527075E1,-5.146122801E0,4.477310674E0,1.619520861E0,7.010830092E0
1.059531975E1,-5.285330388E0,4.673443244E0,1.560645393E0,7.225745851E0
1.060536875E1,-5.441358075E0,4.770034276E0,1.420625628E0,7.374264836E0
1.061541775E1,-5.536871173E0,4.794930551E0,1.240656516E0,7.428830996E0
1.062546675E1,-5.656050877E0,4.769858275E0,1.097171545E0,7.479722246E0
1.063551575E1,-5.875233171E0,4.604456624E0,1.047896913E0,7.537736633E0
1.064556375E1,-5.916891659E0,4.338927544E0,9.492217863E-1,7.398440453E0
1.065561275E1,-5.901937990E0,4.294420001E0,7.361445701E-1,7.335995093E0
1.066566175E1,-5.808702382E0,4.920470563E0,4.240352552E-1,7.624425213E0
1.067571075E1,-5.716480681E0,5.850411156E0,3.300390708E-1,8.186231603E0
1.068575975E1,-5.688867790E0,6.309601772E0,6.082951999E-1,8.517295011E0
1.069580875E1,-5.737589130E0,6.294980224E0,7.712289604E-1,8.552280348E0
1.070585775E1,-5.715758550E0,6.230108875E0,5.576793623E-1,8.473202386E0
1.071590575E1,-5.708234938E0,6.345483795E0,1.252789342E-1,8.536088420E0
1.072595475E1,-5.779777960E0,6.679149309E0,-3.554767978E-1,8.839866092E0
1.073600375E1,-5.684744918E0,7.161049926E0,-6.595180515E-1,9.166892870E0
1.074605275E1,-4.891303482E0,7.510604664E0,-1.039556517E0,9.023010026E0
1.075610175E1,-4.377923795E0,7.290705501E0,-1.306463274E0,8.603920603E0
1.076615075E1,-4.318113796E0,6.525154699E0,-1.491352233E0,7.965417885E0
1.077619875E1,-4.282724692E0,5.484456732E0,-1.502251443E0,7.118831072E0
1.078624775E1,-3.999803070E0,4.565530540E0,-1.496991287E0,6.251677904E0
1.079629675E1,-3.637715995E0,3.776316348E0,-1.486281527E0,5.450006935E0
1.080634575E1,-3.264174224E0,3.119065920E0,-1.560116658E0,4.776753036E0
1.081639475E1,-2.747844617E0,2.719598472E0,-1.700959711E0,4.223757785E0
1.082644375E1,-2.213742397E0,2.520460433E0,-1.873679445E0,3.842401705E0
1.083649175E1,-1.661299801E0,2.542809369E0,-2.107500243E0,3.696938435E0
1.084654075E1,-1.190404229E0,2.603541182E0,-2.218820704E0,3.621968281E0
1.085658975E1,-7.557467759E-1,2.603059371E0,-2.144052358E0,3.456013859E0
1.086663875E1,-4.126994044E-1,2.646974300E0,-1.888254068E0,3.277544381E0
1.087668775E1,-2.185250670E-1,2.737013819E0,-1.483059565E0,3.120651138E0
1.088673675E1,-1.586209273E-1,2.721680081E0,-1.015232246E0,2.909192255E0
1.089678575E1,-2.140589637E-1,2.562700135E0,-6.020340014E-1,2.641154702E0
1.090683375E1,-4.389452165E-1,2.397984654E0,-2.746332673E-1,2.453248201E0
1.091688275E1,-6.602927345E-1,2.331698279E0,3.220068969E-2,2.423600677E0
1.092693175E1,-7.252915531E-1,2.320580383E0,2.874235399E-1,2.448214337E0
1.093698075E1,-6.458530354E-1,2.310874590E0,3.917190099E-1,2.431195446E0
1.094702975E1,-6.500425655E-1,2.292841777E0,4.695419419E-1,2.429022105E0
1.095707875E1,-7.080030906E-1,2.266758517E0,5.682311015E-1,2.441792197E0
1.096712675E1,-6.419336468E-1,2.219231763E0,6.382317746E-1,2.396749512E0
1.097717575E1,-5.567098939E-1,2.245662348E0,6.680128133E-1,2.408145844E0
1.098722475E1,-4.670153600E-1,2.221596962E0,7.300155187E-1,2.384642335E0
1.099727375E1,-2.855160320E-1,2.128257859E0,7.815190367E-1,2.285119892E0
1.100732275E1,-1.775384241E-1,1.975685291E0,7.762693334E-1,2.130128245E0
1.101737175E1,-1.293047422E-1,1.795128534E0,8.026646881E-1,1.970653895E0
1.102741975E1,2.009214395E-1,1.610536614E0,7.674038581E-1,1.795301170E0
1.103746875E1,4.332377493E-1,1.360145391E0,7.876772511E-1,1.630375995E0
1.104751775E1,6.281155068E-1,1.146665302E0,7.779989398E-1,1.521398289E0
1.105756675E1,9.714710265E-1,9.363105494E-1,8.094826877E-1,1.573434340E0
1.106761575E1,1.349829149E0,7.673166615E-1,8.023876762E-1,1.747752721E0
1.107766475E1,1.731993808E0,6.138389450E-1,7.740133314E-1,1.993915103E0
1.108771275E1,2.091292346E0,4.605910242E-1,7.556975131E-1,2.270842685E0
1.109776175E1,2.482813720E0,2.706529945E-1,7.725129358E-1,2.614267249E0
1.110781075E1,2.823508172E0,2.614114702E-2,7.801742502E-1,2.929428889E0
1.111785975E1,3.126031123E0,-2.642783600E-1,7.320234525E-1,3.221454946E0
1.112790875E1,3.412131877E0,-5.534863240E-1,6.382224190E-1,3.515155603E0
1.113795775E1,3.668786052E0,-8.073092777E-1,5.991747129E-1,3.804043862E0
1.114800550E1,3.965528738E0,-1.039978175E0,6.492911983E-1,4.150729073E0
1.115805450E1,4.253263789E0,-1.353174341E0,6.498466837E-1,4.510391819E0
1.116810350E1,4.469107907E0,-1.688457779E0,6.043157311E-1,4.815497135E0
1.117815250E1,4.616817930E0,-1.970524539E0,5.721288554E-1,5.052257533E0
1.118820150E1,4.825383142E0,-2.227403247E0,5.390067177E-1,5.341926238E0
1.119825050E1,5.020616995E0,-2.437662690E0,5.205400412E-1,5.605332848E0
1.120829950E1,5.192280722E0,-2.538783853E0,4.743810976E-1,5.799158557E0
1.121834750E1,5.360647788E0,-2.696298487E0,3.702481802E-1,6.011959244E0
1.122839650E1,5.508802199E0,-2.969075190E0,1.290117967E-1,6.259309323E0
1.123844550E1,5.777412761E0,-3.070322068E0,-1.597867160E-1,6.544532651E0
1.124849450E1,6.153075317E0,-2.991836062E0,-3.636371720E-1,6.851543685E0
1.125854350E1,6.598695130E0,-3.001715518E0,-5.380724788E-1,7.269291263E0
1.126859250E1,6.910515447E0,-2.948902881E0,-6.621407470E-1,7.542524929E0
1.127864050E1,7.213737432E0,-2.699965276E0,-6.195124984E-1,7.727329162E0
1.128868950E1,7.642880377E0,-2.238265620E0,-5.138518497E-1,7.980444672E0
1.129873850E1,8.088638769E0,-1.814303893E0,-3.625624537E-1,8.297543449E0
1.130878750E1,8.470400555E0,-1.638907889E0,-1.945834963E-1,8.629691036E0
1.131883650E1,8.731260048E0,-1.688798087E0,4.156887934E-2,8.893181038E0
1.132888550E1,8.990454254E0,-1.783292601E0,3.682634890E-1,9.173004862E0
1.133893350E1,9.309500560E0,-1.442658960E0,6.843136811E-1,9.445440739E0
1.134898250E1,9.532420394E0,-6.689694178E-1,9.976275225E-1,9.607799921E0
1.135903150E1,9.839191639E0,-3.194942021E-1,1.219483602E0,9.919622418E0
1.136908050E1,9.979948153E0,-5.891543394E-1,1.282501384E0,1.007924986E1
1.137912950E1,9.787664806E0,-8.960302502E-1,1.230088112E0,9.905269775E0
1.138917850E1,9.396503620E0,-1.016433776E0,1.313029697E0,9.542089126E0
1.139922650E1,9.034589623E0,-8.863051611E-1,1.511991735E0,9.203013935E0
1.140927550E1,8.721281775E0,-4.509682614E-1,1.647763936E0,8.887027296E0
1.141932450E1,8.368604039E0,-4.725427330E-2,1.571921017E0,8.515086741E0
1.142937350E1,7.940145219E0,7.898301959E-2,1.299458163E0,8.046162808E0
1.143942250E1,7.338689507E0,3.676144481E-3,1.076616097E0,7.417242036E0
1.144947150E1,6.545540432E0,-1.581882334E-1,1.023632283E0,6.626986201E0
1.145951950E1,5.787937750E0,-3.976475018E-1,1.106177427E0,5.906096463E0
1.146956850E1,5.099922781E0,-7.169335431E-1,1.073297364E0,5.260719847E0
1.147961750E1,4.429676624E0,-1.078646396E0,9.283565819E-1,4.652672241E0
1.148966650E1,3.780619899E0,-1.276179374E0,7.895308185E-1,4.067564324E0
1.149971550E1,3.261345341E0,-1.192891635E0,7.294003916E-1,3.548434700E0
1.150976450E1,2.815163611E0,-8.182435709E-1,6.765684593E-1,3.008722914E0
1.151981350E1,2.420994617E0,-3.193053371E-1,5.025062048E-1,2.493127217E0
1.152986150E1,2.108709447E0,2.099758530E-1,2.038584960E-1,2.128920778E0
1.153991050E1,1.848873217E0,8.058790487E-1,-1.494804867E-1,2.022403924E0
1.154995950E1,1.602152292E0,1.392863486E0,-4.767280968E-1,2.175828655E0
1.156000850E1,1.361212508E0,1.847764000E0,-6.279687417E-1,2.379385642E0
1.157005750E1,1.290098087E0,2.124836068E0,-5.852174822E-1,2.553773853E0
1.158010650E1,1.359816193E0,2.131451608E0,-4.602027690E-1,2.569819570E0
1.159015450E1,1.405017509E0,1.904753888E0,-2.868070241E-1,2.384202139E0
1.160020350E1,1.575462091E0,1.748994003E0,-5.142618857E-2,2.354507480E0
1.161025250E1,1.792138853E0,1.741311346E0,2.640123117E-1,2.512693649E0
1.162030150E1,1.718554568E0,1.716244918E0,7.441749899E-1,2.540221021E0
1.163035050E1,1.720369543E0,1.803341534E0,1.081457738E0,2.716847970E0
1.164039950E1,1.762864183E0,2.074068788E0,1.330224165E0,3.029677837E0
1.165044750E1,1.812513476E0,2.402353694E0,1.475405706E0,3.351616083E0
1.166049650E1,1.702020981E0,2.700441239E0,1.519226056E0,3.535152913E0
1.167054550E1,1.494816708E0,2.919649261E0,1.529875151E0,3.619301974E0
1.168059450E1,1.275392339E0,3.033125591E0,1.623464369E0,3.669075228E0
1.169064350E1,9.904107428E-1,3.061266485E0,1.874079394E0,3.723498289E0
1.170069250E1,7.195624512E-1,3.081476802E0,2.163730723E0,3.833405802E0
1.171074050E1,5.018302667E-1,3.129825089E0,2.412279635E0,3.983306634E0
1.172078950E1,2.282460630E-1,3.142738080E0,2.617777398E0,4.096542128E0
1.173083850E1,-8.605347276E-2,3.148423913E0,2.802682729E0,4.216041842E0
1.174088750E1,-4.163392961E-1,3.177538953E0,2.958931733E0,4.361808021E0
1.175093650E1,-7.898185015E-1,3.259247945E0,2.970495479E0,4.479994846E0
1.176098550E1,-1.171595491E0,3.372082250E0,2.856408993E0,4.571941276E0
1.177103450E1,-1.548270199E0,3.498080392E0,2.719696705E0,4.693661386E0
1.178108250E1,-1.962310955E0,3.548350074E0,2.602921669E0,4.818366295E0
1.179113150E1,-2.261165071E0,3.542518061E0,2.464551111E0,4.871992803E0
1.180118050E1,-2.501320158E0,3.522579348E0,2.276469573E0,4.883388323E0
1.181122950E1,-2.778873451E0,3.523489468E0,2.112644770E0,4.959877378E0
1.182127850E1,-3.086277366E0,3.415253120E0,2.030021127E0,5.030909225E0
1.183132750E1,-3.353234920E0,3.257180369E0,2.014321353E0,5.090274934E0
1.184137550E1,-3.559690164E0,3.158395754E0,2.021202357E0,5.170311091E0
1.185142450E1,-3.731445692E0,3.052205932E0,1.971482459E0,5.208300212E0
1.186147350E1,-3.741256151E0,2.933018920E0,1.878826310E0,5.111710660E0
1.187152250E1,-3.937267098E0,2.776965505E0,1.822657810E0,5.151280531E0
1.188157150E1,-4.148788370E0,2.656962513E0,1.660203595E0,5.198862444E0
1.189162050E1,-4.330139764E0,2.578551059E0,1.344471345E0,5.215998384E0
1.190166850E1,-4.528765587E0,2.522544966E0,9.464690633E-1,5.269606677E0
1.191171750E1,-4.626681890E0,2.490846040E0,6.814543927E-1,5.298573336E0
1.192176650E1,-4.669042044E0,2.540060885E0,4.980213904E-1,5.338528656E0
1.193181550E1,-4.604454870E0,2.709790645E0,3.617784883E-1,5.354890630E0
1.194186450E1,-4.530599273E0,2.872782951E0,3.107502759E-1,5.373618650E0
1.195191350E1,-4.472007249E0,2.993263367E0,2.596758704E-1,5.387569580E0
1.196196150E1,-4.478048007E0,3.162071021E0,2.201954703E-1,5.486355179E0
1.197201050E1,-4.428753056E0,3.421752301E0,2.599555135E-1,5.602661805E0
1.198205950E1,-4.395696992E0,3.677306030E0,3.959420152E-1,5.744693357E0
1.199210850E1,-4.385924540E0,3.908879451E0,6.662096782E-1,5.912656592E0
1.200215750E1,-4.378425486E0,4.195748236E0,8.947409391E-1,6.129883714E0
1.201220650E1,-4.379528271E0,4.525388820E0,9.526833379E-1,6.369224237E0
1.202225550E1,-4.385764911E0,4.864537852E0,7.274732955E-1,6.589983291E0
1.203230350E1,-4.245580255E0,5.594890171E0,2.971402967E-1,7.029654336E0
1.204235250E1,-4.232405308E0,6.676869480E0,1.509974737E-1,7.906746549E0
1.205240150E1,-4.352032324E0,7.035048276E0,5.591740568E-1,8.291246301E0
1.206245050E1,-4.380721103E0,6.774738421E0,7.402364516E-1,8.101589231E0
1.207249950E1,-4.426754478E0,6.645647687E0,3.365495069E-1,7.992124496E0
1.208254850E1,-4.387747702E0,6.788332028E0,-2.117194196E-1,8.085703849E0
1.209259650E1,-4.157242860E0,7.047742581E0,-5.366960442E-1,8.200084532E0
1.210264550E1,-3.821647180E0,7.198994848E0,-5.252694154E-1,8.167399950E0
1.211269450E1,-3.591103161E0,6.986698819E0,-2.901869340E-1,7.860928111E0
1.212274350E1,-3.432429609E0,6.295719312E0,-3.783024274E-2,7.170710272E0
1.213279250E1,-3.351101856E0,5.360702752E0,4.191642322E-2,6.322086256E0
1.214284112E1,-3.457363890E0,4.367997269E0,-7.532850981E-2,5.571215271E0
1.215288912E1,-3.518104767E0,3.438756881E0,-2.521072344E-1,4.926019498E0
1.216293812E1,-3.405244734E0,2.641209530E0,-3.360160947E-1,4.322567095E0
1.217298712E1,-3.277846768E0,2.042383311E0,-4.164503201E-1,3.884461339E0
1.218303612E1,-3.140537188E0,1.644558054E0,-5.510204800E-1,3.587641090E0
1.219308512E1,-2.934314078E0,1.463806000E0,-6.465441763E-1,3.342296589E0
1.220313412E1,-2.630244831E0,1.570471200E0,-6.803375745E-1,3.138061006E0
1.221318212E1,-2.304788223E0,1.790777621E0,-7.460918534E-1,3.012571376E0
1.222323112E1,-1.994461870E0,2.123547342E0,-8.434011432E-1,3.032928775E0
1.223328013E1,-1.656247222E0,2.548514789E0,-8.366991377E-1,3.152482822E0
1.224332912E1,-1.328216085E0,2.923287691E0,-6.819221699E-1,3.282497028E0
1.225337812E1,-1.083024207E0,3.225405430E0,-4.596788585E-1,3.433290881E0
1.226342712E1,-8.936182737E-1,3.535652846E0,-1.559241915E-1,3.650165341E0
1.227347612E1,-7.882736671E-1,3.634770167E0,2.119195405E-1,3.725297228E0
1.228352412E1,-6.013469535E-1,3.639660194E0,5.952629987E-1,3.736720825E0
1.229357312E1,-4.016885126E-1,3.690987638E0,9.575330186E-1,3.834268233E0
1.230362212E1,-2.942453402E-1,3.741059684E0,1.268676081E0,3.961268342E0
1.231367112E1,-2.630334878E-1,3.800519435E0,1.519714737E0,4.101544523E0
1.232372013E1,-1.725425631E-1,3.802588765E0,1.652444193E0,4.149701684E0
1.233376912E1,-1.702650726E-2,3.696603304E0,1.569887356E0,4.016181295E0
1.234381713E1,4.863830924E-2,3.577060488E0,1.352960333E0,3.824686795E0
1.235386612E1,1.382527363E-1,3.462017105E0,1.183783865E0,3.661423288E0
1.236391512E1,3.311038488E-1,3.284931840E0,1.068707299E0,3.470236626E0
1.237396412E1,5.314703876E-1,2.987048362E0,9.702448654E-1,3.185324754E0
1.238401312E1,7.474852449E-1,2.623885399E0,9.108440249E-1,2.876307636E0
1.239406212E1,1.048678831E0,2.264090433E0,8.965850048E-1,2.651357661E0
1.240411012E1,1.327711471E0,1.849328130E0,8.902058387E-1,2.444442415E0
1.241415912E1,1.648654028E0,1.406889787E0,8.863187559E-1,2.341572103E0
1.242420812E1,1.982608395E0,9.464507908E-1,8.831190133E-1,2.367784690E0
1.243425713E1,2.311136545E0,4.132566440E-1,7.997447348E-1,2.480267087E0
1.244430612E1,2.604127657E0,-3.944765568E-2,7.388493459E-1,2.707200644E0
1.245435512E1,2.871903822E0,-3.560509944E-1,7.242922640E-1,2.983153224E0
1.246440312E1,3.167488759E0,-6.463611585E-1,7.209862483E-1,3.312187941E0
1.247445212E1,3.526547561E0,-8.797767448E-1,7.618009830E-1,3.713608159E0
1.248450112E1,3.804292059E0,-1.095140807E0,7.578903651E-1,4.030678511E0
1.249455012E1,4.062308051E0,-1.231772695E0,7.644193661E-1,4.313229375E0
1.250459912E1,4.278051890E0,-1.298689985E0,8.341741638E-1,4.547985289E0
1.251464812E1,4.565317409E0,-1.429851218E0,9.145571530E-1,4.870627509E0
1.252469713E1,4.847238280E0,-1.591992754E0,9.660430562E-1,5.192629301E0
1.253474512E1,4.998668886E0,-1.734831462E0,9.517162815E-1,5.376066845E0
1.254479412E1,5.021240308E0,-1.838878571E0,8.579282581E-1,5.415751982E0
1.255484312E1,5.107352253E0,-1.996332979E0,7.357237168E-1,5.532782464E0
1.256489212E1,5.238632770E0,-2.176968673E0,6.550344066E-1,5.710651099E0
1.257494112E1,5.230951867E0,-2.390035365E0,4.603898799E-1,5.769496106E0
1.258499012E1,5.119243151E0,-2.610794068E0,2.070990229E-1,5.750285742E0
1.259503813E1,5.056173913E0,-2.670235693E0,5.988257803E-2,5.718272398E0
1.260508712E1,5.111665744E0,-2.564989319E0,2.643964738E-3,5.719117404E0
1.261513612E1,5.238654404E0,-2.410173175E0,-9.673165798E-2,5.767303678E0
1.262518512E1,5.336641459E0,-2.172359313E0,-2.597520304E-1,5.767699556E0
1.263523412E1,5.450264554E0,-1.931961567E0,-3.652205980E-1,5.794069838E0
1.264528312E1,5.650397204E0,-1.761540374E0,-4.387633681E-1,5.934856893E0
1.265533112E1,5.857003307E0,-1.635253379E0,-5.023470875E-1,6.101712378E0
1.266538012E1,6.009091140E0,-1.516400535E0,-4.689921574E-1,6.215191112E0
1.267542912E1,6.325589814E0,-1.469430436E0,-2.798173356E-1,6.500046926E0
1.268547813E1,6.745522224E0,-1.474071956E0,-3.295607686E-2,6.904784161E0
1.269552712E1,7.175113649E0,-1.000343993E0,6.501621410E-2,7.244803040E0
1.270557612E1,7.702146000E0,1.559750623E-1,2.387336290E-1,7.707423368E0
1.271562412E1,8.342200352E0,1.088933988E0,4.199610615E-1,8.423446518E0
1.272567312E1,8.952515180E0,1.427537475E0,3.291048320E-1,9.071587583E0
1.273572212E1,9.313304173E0,1.350713248E0,2.719516611E-1,9.414670393E0
1.274577112E1,9.540070306E0,9.465642267E-1,1.765037593E-1,9.588538932E0
1.275582012E1,9.333046128E0,3.386490959E-1,2.695179038E-1,9.343076213E0
1.276586912E1,8.721363051E0,-1.661585730E-1,8.098056002E-1,8.760454740E0
1.277591712E1,8.202698066E0,-7.692468274E-1,1.350256580E0,8.348604019E0
1.278596612E1,7.876823967E0,-1.851841848E0,1.615576475E0,8.251288468E0
1.279601513E1,7.426332838E0,-2.992623097E0,1.619598044E0,8.168801029E0
1.280606412E1,6.710996169E0,-3.856608852E0,1.283638083E0,7.845930674E0
1.281611312E1,5.882064473E0,-4.565136437E0,8.441952682E-1,7.493451729E0
1.282616212E1,5.426248870E0,-5.024003702E0,4.989841345E-1,7.411732265E0
1.283621112E1,4.957834271E0,-5.287631267E0,2.959324081E-1,7.254429066E0
1.284625912E1,4.579872590E0,-5.106921898E0,2.742181150E-1,6.865207920E0
1.285630812E1,4.152840199E0,-4.585704018E0,4.862029982E-1,6.205735767E0
1.286635712E1,3.643233427E0,-4.019341541E0,7.178568915E-1,5.472072253E0
1.287640612E1,3.162354611E0,-3.411598903E0,7.665104035E-1,4.714555330E0
1.288645513E1,2.785043726E0,-2.707247398E0,6.845102207E-1,3.943882766E0
1.289650412E1,2.582231004E0,-1.717642402E0,5.864641817E-1,3.156287791E0
1.290655213E1,2.510137759E0,-4.652582717E-1,6.527410555E-1,2.635019490E0
1.291660112E1,2.437649534E0,6.875015831E-1,7.428244293E-1,2.639428311E0
1.292665012E1,2.364937069E0,1.561056890E0,7.829692923E-1,2.939875315E0
1.293669912E1,2.427283005E0,2.168173292E0,1.042425307E0,3.417503289E0
1.294674812E1,2.578653678E0,2.615534990E0,1.501387224E0,3.967951823E0
1.295679712E1,2.831409515E0,2.943839192E0,2.038048185E0,4.564724464E0
1.296684512E1,3.202715895E0,3.140078182E0,2.457212856E0,5.114232602E0
1.297689412E1,3.591504865E0,3.178689685E0,2.773111020E0,5.540137186E0
1.298694312E1,4.151923648E0,3.152162622E0,3.068340447E0,6.048910007E0
1.299699213E1,4.448324856E0,3.031604730E0,3.442804323E0,6.389923542E0
1.300704112E1,4.540286940E0,2.840778508E0,3.619114248E0,6.463916458E0
1.301709012E1,4.437218655E0,2.499778247E0,3.339147223E0,6.089967558E0
1.302713912E1,4.184996084E0,2.074697363E0,2.686909028E0,5.388695714E0
1.303718712E1,3.777639865E0,1.623751321E0,2.060659368E0,4.599287808E0
1.304723612E1,3.191268800E0,1.141685813E0,1.671122831E0,3.778927701E0
1.305728512E1,2.721684174E0,8.492653888E-1,1.589351421E0,3.264177443E0
1.306733412E1,2.319922571E0,8.470153803E-1,1.844070168E0,3.082218450E0
1.307738312E1,1.899126527E0,1.031253544E0,2.267292953E0,3.132216910E0
1.308743213E1,1.541306750E0,1.318638346E0,2.652927350E0,3.339529474E0
1.309748012E1,1.272371083E0,1.605420300E0,2.850965527E0,3.510599230E0
1.310752913E1,9.948277295E-1,1.980439662E0,2.972184155E0,3.707519672E0
1.311757812E1,5.417889690E-1,2.374507499E0,3.039786154E0,3.895140692E0
1.312762712E1,-3.736370802E-4,2.612879185E0,3.030410728E0,4.001315653E0
1.313767612E1,-4.592701381E-1,2.759712126E0,2.911839720E0,4.038037968E0
1.314772600E1,-8.987690860E-1,2.925911629E0,2.677894961E0,4.066923426E0
1.315777400E1,-1.386654913E0,3.093639010E0,2.425663619E0,4.168603863E0
1.316782300E1,-1.838455818E0,3.187190952E0,2.215003642E0,4.294688242E0
1.317787200E1,-2.241013811E0,3.265848867E0,2.071856786E0,4.469955510E0
1.318792100E1,-2.612720726E0,3.343188819E0,1.961723310E0,4.674567297E0
1.319797000E1,-2.929184316E0,3.372107393E0,1.875991288E0,4.844643675E0
1.320801900E1,-3.233295663E0,3.450438741E0,1.745835922E0,5.040602287E0
1.321806800E1,-3.474343620E0,3.508610350E0,1.634917749E0,5.201381184E0
1.322811600E1,-3.656380892E0,3.549085654E0,1.680154002E0,5.365449438E0
1.323816500E1,-3.878209051E0,3.634896467E0,1.861321062E0,5.631828643E0
1.324821400E1,-4.077338319E0,3.723277424E0,2.075339095E0,5.898687558E0
1.325826300E1,-4.155600961E0,3.863150716E0,2.272389093E0,6.112013171E0
1.326831200E1,-4.159684657E0,4.172745290E0,2.385877702E0,6.356665172E0
1.327836100E1,-4.255550927E0,4.640875422E0,2.391997983E0,6.735658299E0
1.328840900E1,-4.353613411E0,5.113842078E0,2.308251529E0,7.101644574E0
1.329845800E1,-4.440832819E0,5.532925472E0,2.176658479E0,7.421058047E0
1.330850700E1,-4.633525472E0,5.876780344E0,2.068454876E0,7.764316524E0
1.331855600E1,-4.861621846E0,6.011919438E0,2.008940746E0,7.988390653E0
1.332860500E1,-5.025587128E0,5.929087197E0,1.989461039E0,8.023001695E0
1.333865400E1,-5.153737630E0,5.817735161E0,1.917664686E0,8.005278996E0
1.334870200E1,-5.230520343E0,5.821629991E0,1.766746734E0,8.023161025E0
1.335875100E1,-5.169763679E0,6.240630940E0,1.646521256E0,8.269399208E0
1.336880000E1,-5.090322238E0,6.872506791E0,1.807962588E0,8.741364813E0
1.337884900E1,-4.994533736E0,7.064202493E0,2.102458774E0,8.903294727E0
1.338889800E1,-4.993711617E0,6.919678618E0,2.260007614E0,8.827612492E0
1.339894700E1,-5.153921233E0,6.808082753E0,2.144774196E0,8.804143979E0
1.340899500E1,-5.248072515E0,6.653578266E0,1.838988207E0,8.671461612E0
1.341904400E1,-5.205455668E0,6.539640591E0,1.377874149E0,8.471257577E0
1.342909300E1,-5.198251314E0,6.622910789E0,9.357441004E-1,8.471149926E0
1.343914200E1,-5.153665125E0,6.614970855E0,6.069491708E-1,8.407525851E0
1.344919100E1,-4.978237545E0,6.173644652E0,3.261110575E-1,7.937448316E0
1.345924000E1,-4.763209113E0,5.447215816E0,1.116620846E-1,7.236904699E0
1.346928900E1,-4.880451635E0,4.631901408E0,8.090207577E-2,6.729031427E0
1.347933700E1,-4.779877771E0,3.907564412E0,1.261221027E-1,6.175127361E0
1.348938600E1,-4.561804694E0,3.227767998E0,1.323188357E-1,5.589817223E0
1.349943500E1,-4.333682007E0,2.602174980E0,-3.849923730E-2,5.055056533E0
1.350948400E1,-4.127392239E0,2.059249312E0,-2.644590390E-1,4.620152920E0
1.351953300E1,-3.865161574E0,1.694768972E0,-4.580125482E-1,4.245172712E0
1.352958200E1,-3.547348446E0,1.401950060E0,-6.452437556E-1,3.868524845E0
1.353963000E1,-3.313611263E0,1.223107122E0,-8.513195157E-1,3.633284403E0
1.354967900E1,-3.033721422E0,1.343744828E0,-1.047313507E0,3.479365087E0
1.355972800E1,-2.736384074E0,1.591005160E0,-1.161520153E0,3.371679742E0
1.356977700E1,-2.380997908E0,1.852789097E0,-1.090221691E0,3.207890555E0
1.357982600E1,-2.147107528E0,2.356469423E0,-9.265591478E-1,3.319869084E0
1.358987500E1,-1.890080300E0,2.953004118E0,-5.355032122E-1,3.546745065E0
1.359992300E1,-1.462432489E0,3.518512902E0,-1.877789453E-2,3.810379828E0
1.360997200E1,-1.158936269E0,4.057985204E0,5.493435717E-1,4.255837820E0
1.362002100E1,-9.826234210E-1,4.350759385E0,9.332014386E-1,4.556920116E0
1.363007000E1,-7.465917903E-1,4.446577708E0,1.009346512E0,4.620414808E0
1.364011900E1,-5.186281478E-1,4.559351787E0,1.103712387E0,4.719623386E0
1.365016800E1,-2.285033405E-1,4.596129604E0,1.334415157E0,4.791376099E0
1.366021700E1,7.545714855E-2,4.483773601E0,1.623829089E0,4.769354296E0
1.367026500E1,3.568877310E-1,4.295990855E0,1.785473027E0,4.665921153E0
1.368031400E1,5.121248746E-1,3.978796363E0,1.764462958E0,4.382513196E0
1.369036300E1,5.777587008E-1,3.608287543E0,1.633198814E0,4.002609458E0
1.370041200E1,6.455858177E-1,3.152797045E0,1.438303953E0,3.525000499E0
1.371046100E1,7.241764891E-1,2.777461933E0,1.243964725E0,3.128286211E0
1.372051000E1,7.622044408E-1,2.459680381E0,1.128465697E0,2.811479684E0
1.373055800E1,1.060496639E0,2.084485018E0,8.424106979E-1,2.485837222E0
1.374060700E1,1.105956402E0,1.610111521E0,6.584116852E-1,2.061335640E0
1.375065600E1,1.194418927E0,1.268347029E0,5.854115367E-1,1.837946525E0
1.376070500E1,1.446153256E0,9.321023083E-1,4.969899416E-1,1.790858161E0
1.377075400E1,1.798932733E0,5.677856898E-1,3.460079630E-1,1.917879318E0
1.378080300E1,2.109394156E0,2.300013971E-1,2.823455255E-1,2.140598829E0
1.379085100E1,2.410998802E0,-8.245451152E-2,3.339883534E-1,2.435418278E0
1.380090000E1,2.661543222E0,-3.472579515E-1,4.037935102E-1,2.714304627E0
1.381094900E1,2.861970572E0,-6.020644069E-1,4.163660471E-1,2.954101858E0
1.382099800E1,3.053631776E0,-8.150661939E-1,3.995332289E-1,3.185690934E0
1.383104700E1,3.263006535E0,-1.004738760E0,3.919097022E-1,3.436612407E0
1.384109600E1,3.386871905E0,-1.177652621E0,4.163568377E-1,3.609864265E0
1.385114500E1,3.487534938E0,-1.396565359E0,4.369423990E-1,3.782091142E0
1.386119300E1,3.596115687E0,-1.635893065E0,4.178420305E-1,3.972755481E0
1.387124200E1,3.642264251E0,-1.879653545E0,3.177424494E-1,4.110978787E0
1.388129100E1,3.627304735E0,-2.061976161E0,2.644286335E-1,4.180790336E0
1.389134000E1,3.668625546E0,-2.161062493E0,2.566834116E-1,4.265546960E0
1.390138900E1,3.765619452E0,-2.318298799E0,2.316970166E-1,4.428101476E0
1.391143800E1,3.791999750E0,-2.473844091E0,1.867344133E-1,4.531449705E0
1.392148600E1,3.775111529E0,-2.545072533E0,1.538110077E-1,4.555493287E0
1.393153500E1,3.848970926E0,-2.605837968E0,1.415609448E-1,4.650269692E0
1.394158400E1,4.005772785E0,-2.569869990E0,9.628383435E-2,4.760222468E0
1.395163300E1,4.154716862E0,-2.396081386E0,6.828232259E-3,4.796136449E0
1.396168200E1,4.305638469E0,-2.141218212E0,-1.228103860E-1,4.810241204E0
1.397173100E1,4.472201669E0,-1.969195467E0,-3.896374011E-1,4.902054249E0
1.398177900E1,4.732109235E0,-1.746432922E0,-6.010494764E-1,5.079778168E0
1.399182800E1,5.048015878E0,-1.427532213E0,-5.972499557E-1,5.279869320E0
1.400187700E1,5.424687663E0,-1.165299209E0,-5.780919921E-1,5.578471909E0
1.401192600E1,5.854994788E0,-9.521629357E-1,-5.467906773E-1,5.957059532E0
1.402197500E1,6.316962247E0,-8.859443879E-1,-5.395145483E-1,6.401561172E0
1.403202400E1,6.770516732E0,-1.079908810E0,-4.886985167E-1,6.873494460E0
1.404207300E1,7.346363393E0,-9.728515542E-1,-4.181427236E-1,7.422286614E0
1.405212100E1,7.854797505E0,-1.565556908E-1,-2.039942975E-1,7.859005484E0
1.406217000E1,8.356886219E0,3.974557132E-1,1.039715342E-1,8.366978451E0
1.407221900E1,9.061446469E0,1.711240286E-1,1.268294697E-1,9.063949540E0
1.408226800E1,9.498791887E0,-3.977872503E-1,5.616250634E-2,9.507283326E0
1.409231700E1,9.485001814E0,-9.338085258E-1,1.644437309E-1,9.532276722E0
1.410236600E1,9.367386825E0,-1.364818486E0,4.589176241E-1,9.477408444E0
1.411241400E1,9.268444335E0,-1.469660232E0,7.265130365E-1,9.412320797E0
1.412246300E1,9.088699172E0,-1.462810804E0,9.145267475E-1,9.250979799E0
1.413251200E1,8.878301734E0,-1.764530640E0,9.718877868E-1,9.103975831E0
1.414256100E1,8.414684776E0,-2.274473333E0,8.712235109E-1,8.760090138E0
1.415260917E1,7.532817652E0,-2.685208658E0,7.158887918E-1,8.029083638E0
1.416265817E1,6.691058918E0,-2.822805921E0,5.892450444E-1,7.285994266E0
1.417270617E1,6.028291057E0,-2.801433179E0,5.406604564E-1,6.669380380E0
1.418275517E1,5.446647466E0,-2.775844009E0,5.230955668E-1,6.135544602E0
1.419280417E1,4.864961483E0,-2.716187791E0,4.131550486E-1,5.587148060E0
1.420285317E1,4.219474191E0,-2.562906541E0,2.398130981E-1,4.942667570E0
1.421290217E1,3.660519259E0,-2.192933326E0,6.114433408E-2,4.267563291E0
1.422295117E1,3.248786107E0,-1.634438277E0,-1.495242678E-2,3.636787487E0
1.423300017E1,2.932495886E0,-9.958357894E-1,-2.067502365E-3,3.096970345E0
1.424304817E1,2.619080450E0,-3.004802263E-1,-3.623285651E-2,2.636509736E0
1.425309717E1,2.271470203E0,4.019457901E-1,-1.185931548E-1,2.309805541E0
1.426314617E1,1.968897843E0,1.083217750E0,-1.898650125E-1,2.255209111E0
1.427319517E1,1.703303567E0,1.632398184E0,-2.688001581E-1,2.374493714E0
1.428324417E1,1.522198634E0,1.955300728E0,-2.490386888E-1,2.490443713E0
1.429329317E1,1.381692381E0,2.128239732E0,-1.552190173E-1,2.542158755E0
1.430334117E1,1.231941680E0,2.214873249E0,8.549360186E-4,2.534431799E0
1.431339017E1,1.095412703E0,2.179846088E0,2.066089531E-1,2.448335193E0
1.432343917E1,1.005564972E0,2.089881413E0,3.842837635E-1,2.350837987E0
1.433348817E1,9.207978863E-1,1.926558740E0,5.052392665E-1,2.194257059E0
1.434353717E1,8.778571039E-1,1.724415817E0,6.918040375E-1,2.054953973E0
1.435358617E1,6.650851125E-1,1.765532268E0,8.929071792E-1,2.087277084E0
1.436363417E1,5.817079103E-1,1.885581452E0,1.072699851E0,2.245993428E0
1.437368317E1,8.210765469E-1,1.865182856E0,1.337577478E0,2.437660208E0
1.438373217E1,6.620153242E-1,2.178346862E0,1.557107681E0,2.758268238E0
1.439378117E1,5.269750482E-1,2.477562920E0,1.680086321E0,3.039524761E0
1.440383017E1,9.658723176E-1,2.212399877E0,1.971004010E0,3.116485097E0
1.441387917E1,7.989331412E-1,2.217182899E0,2.316147609E0,3.304350756E0
1.442392817E1,7.841092801E-1,2.563714042E0,2.387190109E0,3.589726127E0
1.443397617E1,4.661143041E-1,2.679615796E0,2.477151861E0,3.678842848E0
1.444402517E1,1.703311461E-1,2.896160996E0,2.224612956E0,3.655908098E0
1.445407417E1,-4.978594226E-1,2.928076853E0,1.988034465E0,3.574042403E0
1.446412317E1,-1.024356753E0,2.681640687E0,1.843926473E0,3.411827717E0
1.447417217E1,-1.543624586E0,2.666453714E0,1.862170809E0,3.600060054E0
1.448422117E1,-1.848310715E0,2.556158854E0,1.852174409E0,3.657970835E0
1.449426917E1,-1.983767897E0,2.303937453E0,1.822819194E0,3.544874140E0
1.450431817E1,-2.118760226E0,2.253924463E0,1.794647309E0,3.576322042E0
1.451436717E1,-2.515629464E0,2.198571796E0,1.723398986E0,3.759283656E0
1.452441617E1,-3.008086644E0,2.081463177E0,1.629835349E0,4.004676951E0
1.453446517E1,-3.480900688E0,1.857235905E0,1.582868174E0,4.251054747E0
1.454451417E1,-3.765990458E0,1.744211565E0,1.504220785E0,4.414480522E0
1.455456317E1,-4.153950292E0,1.770577830E0,1.526536099E0,4.766608999E0
1.456461117E1,-4.383699090E0,1.918593078E0,1.517522031E0,5.020028907E0
1.457466017E1,-4.398643404E0,1.810123719E0,1.652460566E0,5.035398454E0
1.458470917E1,-4.593295459E0,1.707258916E0,1.754259421E0,5.204855646E0
1.459475817E1,-4.861204355E0,1.800259466E0,1.617323477E0,5.430283340E0
1.460480717E1,-5.042069260E0,1.925691013E0,1.373106329E0,5.569216219E0
1.461485617E1,-5.098866189E0,1.952323911E0,1.239718477E0,5.598830857E0
1.462490417E1,-5.237430582E0,2.222617886E0,1.228047434E0,5.820550650E0
1.463495317E1,-5.366157619E0,2.563074941E0,1.288989455E0,6.084939980E0
1.464500217E1,-5.064849427E0,2.156250819E0,1.165530247E0,5.626773327E0
1.465505117E1,-5.268431350E0,2.110100500E0,9.341779967E-1,5.751659025E0
1.466510017E1,-5.744027499E0,2.483627068E0,7.129708850E-1,6.298458764E0
1.467514917E1,-5.863490208E0,2.921263677E0,6.725174352E-1,6.585330560E0
1.468519717E1,-5.735364264E0,3.304179704E0,7.640415629E-1,6.663014803E0
1.469524617E1,-5.654159303E0,3.474250649E0,9.866592423E-1,6.709204979E0
1.470529517E1,-5.551795022E0,3.438980244E0,1.146923237E0,6.630569055E0
1.471534417E1,-5.443319816E0,3.660356998E0,8.395117215E-1,6.613072199E0
1.472539317E1,-5.411325021E0,4.362426919E0,3.054866854E-1,6.957480092E0
1.473544217E1,-5.322505231E0,5.018627772E0,3.518375639E-1,7.323897618E0
1.474549117E1,-5.032117299E0,5.182839223E0,8.000910361E-1,7.268023981E0
1.475553917E1,-4.745835282E0,5.032906088E0,1.024597147E0,6.993060526E0
1.476558817E1,-4.646684046E0,4.771969997E0,9.805816463E-1,6.732377785E0
1.477563717E1,-4.485828313E0,4.873491694E0,6.316326070E-1,6.653761094E0
1.478568617E1,-4.246802323E0,5.321268545E0,3.554159137E-1,6.817444489E0
1.479573517E1,-3.986594210E0,5.481738362E0,4.800119662E-1,6.795057052E0
1.480578417E1,-3.734686804E0,4.992450957E0,4.574639332E-1,6.251537838E0
1.481583217E1,-3.452884338E0,4.224413919E0,2.023815624E-1,5.459765701E0
1.482588117E1,-3.221474932E0,3.544434779E0,-7.697625518E-2,4.790286419E0
1.483593017E1,-2.926734917E0,2.913427239E0,-3.464592949E-1,4.144136773E0
1.484597917E1,-2.483125377E0,2.173904148E0,-5.388069621E-1,3.343962294E0
1.485602817E1,-2.036003999E0,1.496528188E0,-7.141648134E-1,2.625821829E0
1.486607717E1,-1.693589880E0,6.569147980E-1,-9.055734909E-1,2.029740644E0
1.487612617E1,-1.437980018E0,-1.522995025E-1,-1.097066295E0,1.815085708E0
1.488617417E1,-1.104860634E0,-6.190739572E-1,-1.157993113E0,1.716076232E0
1.489622317E1,-9.202839160E-1,-9.071756279E-1,-1.213829345E0,1.772927461E0
1.490627217E1,-7.800577444E-1,-9.422647691E-1,-1.234820849E0,1.738141395E0
1.491632117E1,-6.293954623E-1,-6.514377111E-1,-1.129349942E0,1.447736520E0
1.492637017E1,-6.136009634E-1,-3.534285182E-1,-9.978144141E-1,1.223540545E0
1.493641917E1,-6.566516733E-1,-7.725809097E-2,-8.615462959E-1,1.086012087E0
1.494646717E1,-8.324341786E-1,3.684429985E-1,-5.883491778E-1,1.083905743E0
1.495651617E1,-8.835236406E-1,9.005273438E-1,-1.657544939E-1,1.272414269E0
1.496656517E1,-6.978195798E-1,1.718676190E0,3.538279561E-1,1.888384027E0
1.497661417E1,-5.369503981E-1,2.497130628E0,8.932779658E-1,2.705905140E0
1.498666317E1,-5.848654068E-1,2.668802540E0,9.566231918E-1,2.894771575E0
1.499671217E1,-6.034700775E-1,2.769888035E0,5.767880630E-1,2.892946652E0
1.500676117E1,-6.330920720E-1,2.920519327E0,6.616544779E-1,3.060723012E0
1.501680917E1,-7.181146806E-1,2.820574624E0,9.279846990E-1,3.054911702E0
1.502685817E1,-7.465760028E-1,2.648849502E0,9.043349775E-1,2.896826050E0
1.503690717E1,-5.806378698E-1,2.587905142E0,9.673248390E-1,2.823138450E0
1.504695617E1,-4.374492064E-1,2.530969049E0,1.040839543E0,2.771373863E0
1.505700517E1,-4.464404699E-1,2.308694163E0,1.091484616E0,2.592434473E0
1.506705417E1,-3.241786990E-1,1.873342645E0,1.088309578E0,2.190644251E0
1.507710217E1,-9.863785028E-2,1.489333774E0,9.356866515E-1,1.761633908E0
1.508715117E1,2.072454956E-1,1.063371130E0,8.538947026E-1,1.379436486E0
1.509720017E1,4.539269525E-1,6.042658836E-1,7.358487741E-1,1.054827168E0
1.510724917E1,4.904518774E-1,1.799597561E-2,6.156487314E-1,7.873310991E-1
1.511729817E1,7.175799528E-1,-4.380447453E-1,5.283929980E-1,9.929770127E-1
1.512734717E1,1.004939027E0,-7.250103021E-1,5.136591840E-1,1.341412742E0
1.513739617E1,1.311942700E0,-9.457081944E-1,4.955504302E-1,1.691486880E0
1.514744425E1,1.560250852E0,-1.165168231E0,3.641517635E-1,1.981061896E0
1.515749325E1,1.636814586E0,-1.303504583E0,2.120926181E-1,2.103157023E0
1.516754225E1,1.554154252E0,-1.336205136E0,1.200620850E-1,2.053108499E0
1.517759125E1,1.611659572E0,-1.285901540E0,2.749477744E-2,2.061976069E0
1.518764025E1,1.683127165E0,-1.209045737E0,-7.812695067E-2,2.073840030E0
1.519768925E1,1.897443699E0,-1.085904545E0,-1.289182047E-1,2.190000268E0
1.520773725E1,2.279163677E0,-8.841399372E-1,-5.483401895E-2,2.445260163E0
1.521778625E1,2.326141670E0,-8.923810029E-1,1.081313896E-1,2.493786542E0
1.522783525E1,2.288139884E0,-9.563056880E-1,3.177493930E-1,2.500213866E0
1.523788425E1,2.353901472E0,-1.047590080E0,5.226697433E-1,2.628969528E0
1.524793325E1,2.417092332E0,-1.073959853E0,5.512123418E-1,2.701769818E0
1.525798225E1,2.441511328E0,-9.950317973E-1,5.594861519E-1,2.695197691E0
1.526803125E1,2.754486177E0,-7.848150390E-1,6.297369397E-1,2.932524059E0
1.527807925E1,3.106577729E0,-5.659198433E-1,4.586018014E-1,3.190831564E0
1.528812825E1,3.195993643E0,-5.784662139E-1,1.877412307E-1,3.253343710E0
1.529817725E1,3.429451329E0,-5.674249166E-1,3.358649807E-3,3.476078068E0
1.530822625E1,3.594603889E0,-5.122055662E-1,-2.203453235E-1,3.637593122E0
1.531827525E1,3.664662888E0,-5.674331027E-1,-4.384230602E-1,3.734159770E0
1.532832425E1,3.856010974E0,-4.779572546E-1,-6.364039350E-1,3.937292691E0
1.533837225E1,4.132250690E0,-2.281232715E-1,-7.185491288E-1,4.200458171E0
1.534842125E1,4.361160997E0,-8.632829189E-3,-6.391416013E-1,4.407754729E0
1.535847025E1,4.523738151E0,1.500962716E-1,-6.976196051E-1,4.579673445E0
1.536851925E1,4.824300238E0,2.685433191E-1,-7.319193721E-1,4.886890040E0
1.537856825E1,5.221113342E0,3.675366801E-1,-6.759194183E-1,5.277497021E0
1.538861725E1,5.524315447E0,3.893795389E-1,-4.611090875E-1,5.557184465E0
1.539866525E1,5.549068465E0,4.240324777E-1,-3.345823574E-1,5.575294587E0
1.540871425E1,5.504762943E0,9.581925845E-1,-2.720042861E-1,5.594151805E0
1.541876325E1,5.846544977E0,1.638385148E0,1.062789917E-2,6.071779559E0
1.542881225E1,6.312451705E0,1.738382476E0,2.601192355E-2,6.547495458E0
1.543886125E1,6.346671950E0,1.234018611E0,-9.154283881E-2,6.466175598E0
1.544891025E1,6.227049612E0,5.542862231E-1,-2.208844185E-2,6.251709205E0
1.545895925E1,6.040340999E0,2.430237311E-1,1.488350272E-2,6.045246185E0
1.546900725E1,5.902508678E0,3.303361094E-1,-2.572072308E-2,5.911801095E0
1.547905625E1,5.811492088E0,6.132290804E-1,-5.750151873E-3,5.843759343E0
1.548910525E1,5.626369241E0,7.654110539E-1,1.370248302E-1,5.679846892E0
1.549915425E1,5.334468634E0,6.885342014E-1,4.433405685E-1,5.396960794E0
1.550920325E1,4.997087799E0,4.647630125E-1,6.536017656E-1,5.061036099E0
1.551925225E1,4.611151101E0,1.321353793E-1,7.759348726E-1,4.677846637E0
1.552930125E1,4.304129595E0,-2.195541769E-1,8.744148481E-1,4.397537598E0
1.553934925E1,4.024183035E0,-6.217823875E-1,9.801114571E-1,4.188231239E0
1.554939825E1,3.708496833E0,-1.076776457E0,1.004694321E0,3.990213901E0
1.555944725E1,3.455367651E0,-1.495972118E0,9.232168794E-1,3.876832159E0
1.556949625E1,3.188634922E0,-1.769611285E0,7.105898988E-1,3.715353923E0
1.557954525E1,2.785956768E0,-1.911780487E0,3.878996452E-1,3.401018359E0
1.558959425E1,2.363293855E0,-1.934847168E0,1.764572740E-1,3.059400035E0
1.559964225E1,2.026010961E0,-1.717236605E0,1.236580769E-1,2.658742803E0
1.560969125E1,1.752752447E0,-1.233419271E0,-3.536746403E-2,2.143528655E0
1.561974025E1,1.456354893E0,-6.812982720E-1,-2.069820786E-1,1.621104096E0
1.562978925E1,1.248715587E0,-3.021256328E-2,-2.741584003E-1,1.278814390E0
1.563983825E1,1.012890071E0,7.058016139E-1,-1.655615723E-1,1.245597386E0
1.564988725E1,7.871840385E-1,1.250884904E0,1.158567309E-1,1.482496049E0
1.565993625E1,8.781015176E-1,1.501041654E0,3.993507957E-1,1.784283996E0
1.566998425E1,1.377259899E0,1.335378925E0,6.520581007E-1,2.026144484E0
1.568003325E1,1.521516264E0,1.234916158E0,9.699606907E-1,2.186516271E0
1.569008225E1,1.548243302E0,1.126986498E0,1.348977209E0,2.342412304E0
1.570013125E1,1.669033621E0,1.077346560E0,1.769290273E0,2.660213696E0
1.571018025E1,1.942245357E0,1.385429336E0,2.031873525E0,3.133726455E0
1.572022925E1,1.939047223E0,1.605464154E0,2.340214748E0,3.437153525E0
1.573027825E1,1.934518554E0,1.508505625E0,2.742885593E0,3.679860409E0
1.574032625E1,1.766237442E0,1.168350286E0,2.981524497E0,3.657065137E0
1.575037525E1,1.552223502E0,7.197618413E-1,2.985907570E0,3.441380381E0
1.576042425E1,1.216667875E0,5.619870061E-1,2.900734688E0,3.195367247E0
1.577047325E1,6.917776519E-1,7.262773937E-1,2.833936096E0,3.006198425E0
1.578052225E1,4.700904107E-1,6.984218431E-1,2.893994018E0,3.013964074E0
1.579057125E1,1.159064323E-2,6.370751953E-1,2.769072933E0,2.841436970E0
1.580061925E1,-5.422678560E-1,6.781004298E-1,2.447421108E0,2.596872100E0
1.581066825E1,-8.002192363E-1,6.012188995E-1,2.274197345E0,2.484710960E0
1.582071725E1,-9.429500628E-1,5.447137463E-1,2.127633376E0,2.390123777E0
1.583076625E1,-1.141757734E0,6.744459200E-1,1.804262470E0,2.239163032E0
1.584081525E1,-1.418598837E0,8.318517959E-1,1.653833492E0,2.332287566E0
1.585086425E1,-1.705783079E0,9.260937095E-1,1.618109343E0,2.526979089E0
1.586091225E1,-1.924263707E0,1.033194235E0,1.558509843E0,2.683138847E0
1.587096125E1,-2.056259338E0,1.216173493E0,1.543859060E0,2.844429860E0
1.588101025E1,-2.202438560E0,1.509350547E0,1.538649337E0,3.081609396E0
1.589105925E1,-2.330820612E0,1.608776602E0,1.660093521E0,3.282803280E0
1.590110825E1,-2.340077924E0,1.324072748E0,1.524770240E0,3.090963865E0
1.591115725E1,-2.496534796E0,1.239734849E0,1.262129685E0,3.059836568E0
1.592120625E1,-2.721636811E0,1.225752402E0,1.298226886E0,3.255022109E0
1.593125425E1,-2.848565830E0,1.119278113E0,1.402290952E0,3.366530959E0
1.594130325E1,-2.943245115E0,9.243880767E-1,1.412789043E0,3.393104479E0
1.595135225E1,-2.967942000E0,8.331650805E-1,1.409750830E0,3.389725825E0
1.596140125E1,-2.950075833E0,8.486993784E-1,1.455070260E0,3.397126361E0
1.597145025E1,-3.000467137E0,9.217895740E-1,1.475250170E0,3.468265002E0
1.598149925E1,-3.132294368E0,9.553391433E-1,1.486276850E0,3.596242450E0
1.599154825E1,-3.167931393E0,9.843056649E-1,1.503965846E0,3.642328956E0
1.600159625E1,-3.335650588E0,1.136132128E0,1.497597059E0,3.828858578E0
1.601164525E1,-3.600001454E0,1.466843628E0,1.594348598E0,4.201617325E0
1.602169425E1,-3.764802888E0,1.979438619E0,1.696686566E0,4.579373684E0
1.603174325E1,-3.817886251E0,2.385490909E0,1.690463959E0,4.808793060E0
1.604179225E1,-3.916244019E0,2.402088815E0,1.592786222E0,4.862506128E0
1.605184125E1,-4.169920793E0,2.352130789E0,1.486182125E0,5.012932871E0
1.606189025E1,-4.365257556E0,2.455341747E0,1.482510073E0,5.223218619E0
1.607193825E1,-4.659278948E0,2.656974208E0,1.451538541E0,5.556559763E0
1.608198725E1,-4.975468304E0,3.133132274E0,1.197700458E0,6.000524067E0
1.609203625E1,-5.055527796E0,3.995089629E0,9.937435826E-1,6.519710787E0
1.610208525E1,-5.005264546E0,4.758958772E0,1.393112139E0,7.045645691E0
1.611213425E1,-5.046439469E0,4.487727488E0,1.600255601E0,6.940249802E0
1.612218325E1,-5.193821463E0,3.959797590E0,1.157862135E0,6.632979954E0
1.613223125E1,-5.329943474E0,3.604272845E0,7.799437237E-1,6.481311008E0
1.614228025E1,-5.250784453E0,3.626929051E0,6.366437439E-1,6.413319497E0
1.615232962E1,-4.921180415E0,3.915349980E0,4.042859188E-1,6.301700505E0
1.616237862E1,-4.583244680E0,4.254714190E0,2.272310594E-1,6.257823790E0
1.617242762E1,-4.237124012E0,4.295082198E0,1.441187362E-1,6.035041109E0
1.618247662E1,-3.852405288E0,3.962806567E0,1.714508148E-1,5.529399404E0
1.619252562E1,-3.611177237E0,3.414300901E0,-3.716607213E-2,4.969852412E0
1.620257362E1,-3.275847021E0,2.732030822E0,-3.639212736E-1,4.281075193E0
1.621262262E1,-2.809732132E0,1.949213777E0,-6.859368682E-1,3.487769830E0
1.622267163E1,-2.377396608E0,1.240113164E0,-8.587033796E-1,2.815540230E0
1.623272062E1,-2.089394340E0,7.353300530E-1,-9.817779136E-1,2.422842724E0
1.624276962E1,-1.907827769E0,3.821757692E-1,-1.106752793E0,2.238474226E0
1.625281862E1,-1.750334185E0,-1.101866859E-1,-1.205769542E0,2.128307086E0
1.626286762E1,-1.513550017E0,-6.806369519E-1,-1.455038685E0,2.207088102E0
1.627291562E1,-1.371227619E0,-9.613740546E-1,-1.646585283E0,2.348563040E0
1.628296462E1,-1.322339049E0,-8.250503147E-1,-1.695692539E0,2.303185136E0
1.629301362E1,-1.140283066E0,-3.701895618E-1,-1.446692369E0,1.878883869E0
1.630306262E1,-1.028327597E0,2.499462497E-1,-1.020456076E0,1.470122912E0
1.631311163E1,-1.155382916E0,8.716046762E-1,-5.396523964E-1,1.544612930E0
1.632316062E1,-1.304734252E0,1.450173801E0,-8.774448752E-2,1.952699316E0
1.633320863E1,-1.411489792E0,1.904573209E0,1.883493046E-1,2.378061816E0
1.634325762E1,-1.445428786E0,2.326361525E0,3.098428245E-1,2.756306386E0
1.635330662E1,-1.604134498E0,2.714885616E0,4.456654215E-1,3.184724331E0
1.636335562E1,-1.724781268E0,3.078569566E0,6.808743489E-1,3.593890771E0
1.637340462E1,-1.896530364E0,3.276387888E0,8.530478796E-1,3.880623107E0
1.638345362E1,-1.815758096E0,3.280727107E0,8.439694925E-1,3.843492203E0
1.639350262E1,-1.941209523E0,3.395719035E0,6.043693793E-1,3.957835838E0
1.640355062E1,-2.136101314E0,3.337658522E0,4.592495998E-1,3.989210878E0
1.641359962E1,-1.942970120E0,3.214295136E0,4.839448766E-1,3.786955076E0
1.642364863E1,-1.815565138E0,3.078759016E0,4.981921291E-1,3.608771154E0
1.643369762E1,-1.684402735E0,2.917496901E0,5.395518974E-1,3.411761567E0
1.644374662E1,-1.481525402E0,2.616294544E0,6.120924548E-1,3.068317427E0
1.645379562E1,-1.278164504E0,2.147496368E0,7.389395392E-1,2.606046199E0
1.646384462E1,-1.053244922E0,1.629618418E0,8.821800236E-1,2.131483673E0
1.647389262E1,-9.187314802E-1,1.086791568E0,9.534703732E-1,1.712976707E0
1.648394162E1,-8.013778621E-1,6.082916915E-1,9.532236207E-1,1.385951129E0
1.649399062E1,-5.446862644E-1,2.734830469E-1,8.349858304E-1,1.033768562E0
1.650403962E1,-3.154064137E-1,8.728723526E-3,6.579192766E-1,7.296678497E-1
1.651408863E1,-1.416066992E-1,-1.673619300E-1,5.855401023E-1,6.252357030E-1
1.652413762E1,7.939349413E-3,-3.588260829E-1,5.426625431E-1,6.506164974E-1
1.653418563E1,1.443104517E-1,-5.640645218E-1,4.967631427E-1,7.653547617E-1
1.654423462E1,2.633188319E-1,-5.298898852E-1,5.629255573E-1,8.167039125E-1
1.655428362E1,2.963485837E-1,-5.269393802E-1,8.390251601E-1,1.034142549E0
1.656433262E1,4.472049934E-1,-5.874463677E-1,1.110013127E0,1.333122156E0
1.657438162E1,6.835763472E-1,-6.449040323E-1,1.193316143E0,1.518940831E0
1.658443062E1,8.587098116E-1,-6.908187085E-1,1.170888562E0,1.607977939E0
1.659447962E1,1.020319543E0,-7.591650581E-1,1.076039708E0,1.665906662E0
1.660452762E1,1.193779827E0,-9.104477298E-1,1.023815886E0,1.817202331E0
1.661457662E1,1.345099628E0,-1.089143318E0,1.038396430E0,2.018364021E0
1.662462563E1,1.499481032E0,-1.213897172E0,1.007801532E0,2.176615179E0
1.663467462E1,1.580276981E0,-1.353915768E0,9.806178260E-1,2.300429213E0
1.664472362E1,1.568174121E0,-1.512243165E0,9.951411402E-1,2.395068966E0
1.665477262E1,1.696657037E0,-1.568650669E0,1.017167602E0,2.524666306E0
1.666482162E1,1.800946222E0,-1.579175073E0,1.017062352E0,2.602233086E0
1.667486962E1,1.901247312E0,-1.643678632E0,9.256598461E-1,2.678295529E0
1.668491862E1,2.032224943E0,-1.703785086E0,7.373116013E-1,2.752535238E0
