"Time (s)","Linear Acceleration x (m/s^2)","Linear Acceleration y (m/s^2)","Linear Acceleration z (m/s^2)","Absolute acceleration (m/s^2)"
2.700208333E-3,-6.615488626E-1,8.753679442E-1,1.192177836E-1,1.103688731E0
1.273020833E-2,-6.348111534E-1,9.299575496E-1,-1.179897952E-1,1.132134195E0
2.276020833E-2,-5.640241760E-1,8.344953221E-1,-3.336374474E-1,1.061046493E0
3.279020833E-2,-4.400148185E-1,5.783071697E-1,-4.628609133E-1,8.615639547E-1
4.282020833E-2,-3.415607169E-1,2.719399667E-1,-5.488676814E-1,7.013350130E-1
5.285020833E-2,-2.788206777E-1,1.715105295E-2,-5.863364931E-1,6.494810329E-1
6.288020833E-2,-2.586116771E-1,-1.916740680E-1,-5.848151207E-1,6.675534984E-1
7.291020833E-2,-2.672838289E-1,-3.223447198E-1,-5.281193483E-1,6.739857636E-1
8.294020833E-2,-2.468706143E-1,-3.672478276E-1,-4.445122775E-1,6.272218363E-1
9.297020833E-2,-2.299076955E-1,-3.551750815E-1,-3.325228950E-1,5.381248579E-1
1.030002083E-1,-1.945691706E-1,-2.971326953E-1,-2.166674796E-1,4.160406200E-1
1.130302083E-1,-1.672664742E-1,-3.089013863E-1,-9.293557249E-2,3.633664273E-1
1.230602083E-1,-1.176901254E-1,-3.873517245E-1,1.565884352E-2,4.051388941E-1
1.330902083E-1,-1.101197353E-1,-4.774321747E-1,3.339001335E-2,4.911035843E-1
1.431202083E-1,-1.124821566E-1,-5.073728424E-1,-4.841136418E-2,5.219416605E-1
1.531502083E-1,-1.675883634E-1,-5.025687701E-1,-3.538968071E-1,6.371060965E-1
1.631802083E-1,-2.710095285E-1,-4.835314053E-1,-5.776229724E-1,8.005604803E-1
1.732097917E-1,-3.323257707E-1,-3.882948804E-1,-4.364980837E-1,6.721189694E-1
1.832397917E-1,-2.124660359E-1,-1.610720801E-1,-1.937522415E-1,3.295845301E-1
1.932697917E-1,-1.187569499E-2,1.251643288E-1,-1.085687613E-1,1.661153734E-1
2.032997917E-1,1.326848714E-1,3.639622772E-1,-1.210549057E-1,4.058671020E-1
2.133297917E-1,9.919392049E-2,5.338829488E-1,-1.189582403E-1,5.558970226E-1
2.233597917E-1,-6.126040131E-2,6.584953004E-1,-4.620703697E-2,6.629509693E-1
2.333897917E-1,-2.138592812E-1,7.344477081E-1,1.374088369E-2,7.650738788E-1
2.434197917E-1,-3.515898612E-1,7.168680543E-1,3.780583061E-2,7.993400519E-1
2.534497917E-1,-5.505998459E-1,6.383457953E-1,6.084371410E-2,8.451908082E-1
2.634797917E-1,-7.483494633E-1,4.756376642E-1,1.457043549E-1,8.986032862E-1
2.735097917E-1,-9.266813546E-1,3.131721926E-1,2.184157240E-1,1.002257743E0
2.835397917E-1,-1.073787068E0,1.811122423E-1,1.866794495E-1,1.104839141E0
2.935697917E-1,-1.165784235E0,1.274885970E-1,9.181188382E-2,1.176322935E0
3.035997917E-1,-1.189663095E0,1.092546397E-1,-4.546327114E-2,1.195534091E0
3.136297917E-1,-1.166818900E0,1.463055217E-1,-1.446099023E-1,1.184813772E0
3.236597917E-1,-1.081024459E0,2.466840881E-1,-1.814966237E-1,1.123569288E0
3.336897917E-1,-9.369174904E-1,3.667098838E-1,-2.037848210E-1,1.026556757E0
3.437197917E-1,-7.590127382E-1,5.208278704E-1,-2.062149239E-1,9.433380105E-1
3.537497917E-1,-6.179352120E-1,6.828811133E-1,-1.594197301E-1,9.346577937E-1
3.637797917E-1,-5.126581407E-1,8.716730887E-1,-1.445302340E-1,1.021528918E0
3.738097917E-1,-4.084914556E-1,1.092628843E0,-2.464039334E-1,1.192232342E0
3.838397917E-1,-2.842556646E-1,1.432664899E0,-3.801369182E-1,1.509249506E0
3.938697917E-1,-1.644789603E-1,1.815692022E0,-4.639004751E-1,1.881221545E0
4.038997917E-1,-1.050852826E-1,2.235706294E0,-5.461043604E-1,2.303834959E0
4.139297917E-1,-5.064156532E-2,2.599079171E0,-6.306457432E-1,2.674974983E0
4.239597917E-1,7.194209486E-2,2.818232814E0,-7.300096714E-1,2.912134265E0
4.339897917E-1,2.160861933E-1,2.833212796E0,-7.947886348E-1,2.950504527E0
4.440197917E-1,2.355819798E-1,2.719391481E0,-8.235756469E-1,2.851116578E0
4.540497917E-1,1.028574935E-1,2.604320616E0,-1.041015032E0,2.806559785E0
4.640797917E-1,-1.111313036E-1,2.532764145E0,-1.629141870E0,3.013527436E0
4.741087917E-1,-5.114577073E-1,2.509150749E0,-1.876181761E0,3.174505389E0
4.841397917E-1,-9.342037976E-1,2.587899880E0,-1.233431550E0,3.015180909E0
4.941687917E-1,-1.167914961E0,2.780693690E0,-3.747081439E-1,3.039192153E0
5.041987917E-1,-1.144165033E0,3.150351740E0,-3.338103788E-1,3.368272417E0
5.142287917E-1,-9.182765669E-1,3.522879018E0,-1.102115804E0,3.803757047E0
5.242587917E-1,-8.829859892E-1,3.636208583E0,-1.417608172E0,4.001411006E0
5.342887917E-1,-1.680032819E0,3.250395845E0,-8.903192747E-1,3.765667515E0
5.443187917E-1,-2.329564630E0,2.196991294E0,-2.766908294E-1,3.214062838E0
5.543487917E-1,-2.074918973E0,5.202805710E-1,1.365032494E-1,2.143505016E0
5.643787917E-1,-1.337926849E0,-1.571901137E0,-8.230298093E-1,2.222228499E0
5.744087917E-1,-1.394876683E-1,-3.692209706E0,-3.263334564E0,4.929626943E0
5.844387917E-1,1.201409274E0,-5.244530856E0,-4.572784595E0,7.061079740E0
5.944687917E-1,1.702513901E0,-5.500131363E0,-2.954011886E0,6.471181099E0
6.044987917E-1,1.721897129E0,-4.738697585E0,-1.365407008E0,5.223458703E0
6.145287917E-1,1.661798277E0,-3.365329301E0,-4.308687499E-1,3.777917772E0
6.245587917E-1,1.194799581E-1,-1.702275919E0,4.464642973E0,4.779650159E0
6.345887917E-1,-6.635508031E-1,4.567546660E-1,8.232069215E0,8.271389729E0
6.446187917E-1,-1.245104347E0,5.822832763E-2,-2.743454527E0,3.013340027E0
6.546487917E-1,-9.577932197E-1,-1.818662993E0,-2.376355219E-1,2.069148031E0
6.646787917E-1,4.465781718E-2,-3.478181732E0,9.695171794E-1,3.611053315E0
6.747087917E-1,7.050198412E-1,-4.519971959E0,3.368092695E-1,4.587007736E0
6.847387917E-1,1.126434813E0,-5.117372627E0,-7.089661270E-2,5.240361087E0
6.947687917E-1,1.754401508E0,-6.287584081E0,-2.154979634E-1,6.531315151E0
7.047987917E-1,1.915417162E0,-7.830868945E0,-1.149822798E0,8.143305459E0
7.148287917E-1,1.966517734E0,-9.873540523E0,-1.464959071E0,1.017349987E1
7.248587917E-1,2.419723140E0,-1.212199024E1,-1.707022104E0,1.247844669E1
7.348887917E-1,2.811479572E0,-1.432224720E1,-2.118084873E0,1.474847334E1
7.449187917E-1,2.202144153E0,-1.521448086E1,-2.775932010E0,1.562164092E1
7.549487917E-1,9.339608458E-1,-1.344578466E1,-2.324121164E0,1.367709571E1
7.649787917E-1,1.419707469E0,-1.153848139E1,-6.350307164E-1,1.164282552E1
7.750087917E-1,3.997601301E0,-1.034206856E1,-5.307780772E-2,1.108792205E1
7.850387917E-1,6.697246442E0,-9.108458667E0,-5.603433537E-1,1.131950149E1
7.950687917E-1,8.259843489E0,-8.121117128E0,1.519469154E-1,1.158450024E1
8.050987917E-1,8.581488297E0,-6.971221240E0,1.543256504E0,1.116340036E1
8.151287917E-1,8.530180734E0,-5.947840971E0,1.087919203E0,1.045582918E1
8.251587917E-1,6.923759390E0,-4.059013145E0,2.697392209E-1,8.030366807E0
8.351887917E-1,4.950942743E0,-1.503860596E0,-4.384195518E-1,5.192845313E0
8.452187917E-1,3.747677855E0,5.529162204E-1,-4.526037276E-1,3.815187517E0
8.552487917E-1,2.472888949E0,2.656642671E0,-7.283277199E-2,3.630183831E0
8.652787917E-1,1.030059543E0,4.697132068E0,1.625642896E-2,4.808777038E0
8.753087917E-1,-3.988137290E-1,6.527715780E0,-3.585081406E-1,6.549706389E0
8.853387917E-1,-1.576922433E0,8.089242201E0,-8.733366215E-1,8.287655918E0
8.953687917E-1,-2.367000259E0,9.322189018E0,-1.145137424E0,9.685929900E0
9.053987917E-1,-3.176471837E0,1.047743511E1,-1.163442718E0,1.101000539E1
9.154287917E-1,-4.009653874E0,1.083738853E1,-1.564005057E0,1.166072152E1
9.254587917E-1,-4.234496565E0,1.083324169E1,-1.703503250E0,1.175550977E1
9.354887917E-1,-4.233066921E0,1.101717054E1,-1.609832025E0,1.191169431E1
9.455187917E-1,-4.072780414E0,1.097487529E1,-1.421817144E0,1.179224287E1
9.555487917E-1,-3.758408373E0,1.089387264E1,-1.130664323E0,1.157931329E1
9.655787917E-1,-3.545854190E0,1.061571474E1,-6.833395350E-1,1.121309210E1
9.756087917E-1,-3.213358119E0,9.950993911E0,-2.198974085E-1,1.045926886E1
9.856387917E-1,-2.786521902E0,9.087712162E0,1.448799706E-1,9.506429763E0
9.956687917E-1,-2.732257694E0,8.529404224E0,4.557623935E-1,8.967925506E0
1.005698792E0,-2.961171509E0,8.306260441E0,9.131351101E-1,8.865456274E0
1.015728792E0,-3.160036483E0,8.244065362E0,1.394439457E0,8.938395028E0
1.025758792E0,-2.806350395E0,8.001548585E0,1.584452624E0,8.626173683E0
1.035788792E0,-2.445362889E0,7.883796186E0,2.006517659E0,8.494713361E0
1.045818792E0,-1.883982239E0,8.358946778E0,2.588583419E0,8.951097387E0
1.055848792E0,-1.651877598E0,9.251435954E0,3.956923099E0,1.019681358E1
1.065878792E0,-2.174265798E0,1.027615173E1,5.389794989E0,1.180578740E1
1.075908792E0,-1.955003105E0,1.049451249E1,5.747110151E0,1.212378260E1
1.085938792E0,-4.773351109E-1,9.785160443E0,3.983943082E0,1.057586952E1
1.095968792E0,6.345930523E-1,9.024724200E0,1.576086866E0,9.183267667E0
1.105998792E0,1.610229051E0,8.412650530E0,2.696234460E-1,8.569610454E0
1.116027792E0,2.368497438E0,8.056577316E0,-5.270808828E-1,8.414037819E0
1.126057792E0,3.105744208E0,7.665802047E0,-2.256640495E0,8.573365409E0
1.136088792E0,4.043874704E0,6.649441946E0,-5.791628512E0,9.701080436E0
1.146117792E0,3.163602115E0,4.352850934E0,-2.611938368E0,5.981464004E0
1.156147792E0,1.037392536E0,5.297507215E-1,4.806813555E0,4.945935265E0
1.166177542E0,2.051399133E-1,-2.781841498E0,4.408998238E0,5.217278023E0
1.176207542E0,6.806848991E-1,-6.695902752E0,-5.397668849E0,8.627472086E0
1.186237542E0,1.959187080E0,-1.339393389E1,-1.017495864E1,1.693415668E1
1.196267542E0,5.371372166E-1,-1.752606530E1,-3.381219109E0,1.785732690E1
1.206297542E0,3.362051936E0,-2.061349573E1,-6.258720471E0,2.180346719E1
1.216327542E0,6.850888465E0,-2.147635531E1,-1.380437218E1,2.643348637E1
1.226357542E0,7.365549862E0,-2.101383822E1,-3.908909564E0,2.260779280E1
1.236387542E0,7.766979927E0,-2.049067848E1,3.648601756E0,2.221499891E1
1.246417542E0,5.836486596E0,-1.968107300E1,2.039978059E-1,2.052926753E1
1.256447542E0,2.875113358E0,-1.564611296E1,-2.414762947E0,1.609031409E1
1.266477542E0,4.434854041E0,-1.308847067E1,-1.481102648E-1,1.382020012E1
1.276507542E0,5.603514229E0,-1.245250410E1,1.963947737E0,1.379569936E1
1.286537542E0,5.301730658E0,-1.195485109E1,2.245801950E0,1.326915366E1
1.296567542E0,5.241072228E0,-1.234093572E1,8.343215136E-1,1.343367503E1
1.306597542E0,5.907239075E0,-1.310124566E1,4.973586085E-1,1.438003745E1
1.316627542E0,5.730114634E0,-1.282883090E1,4.974809615E-1,1.405918217E1
1.326657542E0,3.615943595E0,-1.074658361E1,-9.594462276E-2,1.133901728E1
1.336687542E0,2.164363831E0,-8.772572966E0,-1.513750431E0,9.161547227E0
1.346717542E0,1.133972459E0,-6.353944716E0,-8.015643883E-1,6.503922852E0
1.356747542E0,-1.887732643E-1,-3.196960480E0,8.516610662E-1,3.313837387E0
1.366777542E0,-1.046136170E0,-3.360178488E-1,6.465102625E-1,1.274866424E0
1.376807542E0,-1.600779073E0,1.958248309E0,1.354765514E-1,2.532900310E0
1.386837542E0,-1.891344176E0,3.982484787E0,1.745464770E-1,4.412236886E0
1.396867542E0,-1.940882664E0,6.014932508E0,3.916593683E-1,6.332443103E0
1.406897542E0,-1.957498696E0,8.309955881E0,8.692423280E-1,8.581535417E0
1.416927542E0,-1.489170929E0,1.042253326E1,1.371225865E0,1.061730145E1
1.426957542E0,-6.636978605E-1,1.213680591E1,1.261156708E0,1.222019103E1
1.436987542E0,3.043735948E-1,1.326244404E1,1.183055814E-1,1.326646379E1
1.447017542E0,9.738406107E-1,1.346226211E1,-1.246673155E0,1.355489066E1
1.457047542E0,9.891807809E-1,1.312325692E1,-2.559471302E0,1.340705949E1
1.467077542E0,6.714065373E-1,1.263414669E1,-3.469648890E0,1.311910487E1
1.477107542E0,9.054676563E-2,1.224803633E1,-3.348872312E0,1.269793441E1
1.487137542E0,-9.368993640E-1,1.182126911E1,-2.555554837E0,1.213058301E1
1.497167542E0,-1.338258386E0,1.094805995E1,-1.428963611E0,1.112173050E1
1.507197542E0,-1.551823552E0,1.005538893E1,4.836091368E-1,1.018591580E1
1.517227542E0,-2.179448185E0,9.665902387E0,2.087879326E0,1.012614949E1
1.527257542E0,-2.567385216E0,9.032371774E0,2.927723097E0,9.835993556E0
1.537287542E0,-3.204411002E0,8.442366664E0,2.505440691E0,9.371181239E0
1.547317542E0,-3.087434822E0,7.655547785E0,9.082808248E-1,8.304495151E0
1.557347542E0,-3.336832603E0,7.550649905E0,6.670978703E-2,8.255374977E0
1.567377542E0,-2.971235152E0,7.541501352E0,-1.701832116E0,8.282434033E0
1.577407542E0,-2.436082773E0,7.481307190E0,-3.617719102E0,8.659812241E0
1.587437542E0,-2.651233411E0,8.533112528E0,-7.716406775E-1,8.968750044E0
1.597467542E0,-2.835914209E0,9.790149872E0,2.206659665E0,1.042874829E1
1.607497542E0,-1.604070763E0,9.353795557E0,5.545687167E-1,9.506528325E0
1.617527542E0,-8.396294698E-1,9.246482778E0,1.743541474E0,9.446817362E0
1.627557542E0,-8.255610690E-1,8.978046463E0,3.031745063E0,9.512010696E0
1.637587542E0,-1.042721688E0,8.266166668E0,3.533951890E0,9.050171041E0
1.647617542E0,-9.373975468E-1,7.275612668E0,2.636727054E0,7.795228247E0
1.657647542E0,-1.654007739E-1,6.139642509E0,1.271187022E0,6.272039859E0
1.667677542E0,1.261568644E0,4.716485183E0,-1.015123415E0,4.986708681E0
1.677707542E0,1.973178882E0,2.401900535E0,-7.692458041E-1,3.202233625E0
1.687737542E0,2.971511140E-1,-1.093215904E0,2.949684069E0,3.159755672E0
1.697767542E0,-9.390511394E-1,-3.532961957E0,-9.388043869E-1,3.774253689E0
1.707797542E0,-7.523916435E-1,-6.646598445E0,-6.952911268E0,9.648126200E0
1.717827542E0,3.316309753E-1,-1.217735051E1,-4.186901107E0,1.288130371E1
1.727857542E0,1.628171524E0,-1.744723547E1,-5.792005511E-1,1.753261080E1
1.737887542E0,4.272290336E0,-1.923217991E1,-4.875663496E-1,1.970702742E1
1.747917542E0,7.856688495E0,-1.973903060E1,-2.213938279E0,2.136020613E1
1.757947542E0,1.153106712E1,-2.149892557E1,-2.723661118E0,2.454766057E1
1.767977542E0,1.267905564E1,-2.318495851E1,-4.809116188E0,2.685941830E1
1.778007542E0,8.255617121E0,-2.298700219E1,-3.264072483E0,2.464166498E1
1.788036542E0,3.713485385E0,-2.243059284E1,-2.496377506E0,2.287254620E1
1.798066542E0,2.056984978E0,-2.230586238E1,-2.291842049E0,2.251744265E1
1.808096542E0,1.422692180E0,-2.090029231E1,-1.269569682E0,2.098709315E1
1.818126542E0,1.603838336E0,-1.902020080E1,-4.192276745E-1,1.909230442E1
1.828156542E0,2.420098824E0,-1.739893513E1,-2.297675085E-1,1.756794283E1
1.838186542E0,2.891061347E0,-1.533910139E1,-3.357694884E-1,1.561278349E1
1.848216542E0,3.104609264E0,-1.282250655E1,-3.997916758E-1,1.319905703E1
1.858246542E0,3.072050505E0,-9.868908359E0,-3.254221825E-1,1.034111919E1
1.868276542E0,2.612463740E0,-6.019928954E0,-3.206765822E-1,6.570186061E0
1.878306542E0,1.867084224E0,-1.702171254E0,-2.506584406E-1,2.538940750E0
1.888336542E0,1.191932107E0,2.101922584E0,-9.739933692E-2,2.418319112E0
1.898366542E0,9.349275367E-1,5.838274675E0,4.147289729E-1,5.927186584E0
1.908396542E0,6.470580004E-1,9.481087688E0,1.216156609E0,9.580644273E0
1.918426542E0,3.878822862E-1,1.204238975E1,8.882610548E-1,1.208133318E1
1.928456542E0,2.669574811E-1,1.332156641E1,-1.243188214E-1,1.332482094E1
1.938486542E0,8.286354619E-1,1.369664892E1,-7.901868761E-1,1.374442519E1
1.948516542E0,2.565968143E0,1.405937159E1,-6.695237339E-1,1.430728430E1
1.958546542E0,4.237491801E0,1.442790171E1,2.032948244E-1,1.503868390E1
1.968576542E0,5.165886390E0,1.446122149E1,5.573367155E-1,1.536632465E1
1.978606542E0,5.023641175E0,1.396840061E1,1.780173111E-1,1.484536548E1
1.988636542E0,3.913377714E0,1.221267237E1,-2.103980219E-1,1.282607340E1
1.998666542E0,2.493062135E0,9.866481764E0,-3.844322097E-1,1.018384060E1
2.008696542E0,1.299411824E0,8.170618486E0,-1.071868304E0,8.342444438E0
2.018726542E0,5.401839449E-1,6.812693283E0,-2.283441793E0,7.205462850E0
2.028756542E0,-1.455053303E-1,6.699764253E0,-1.725732025E0,6.919982938E0
2.038786542E0,-1.909265380E-1,7.570834494E0,2.220184129E-2,7.573274113E0
2.048816542E0,-4.687255975E-2,8.959535932E0,1.679337877E0,9.115681920E0
2.058846542E0,3.623222794E-1,1.007337964E1,2.878317633E0,1.048279387E1
2.068876542E0,1.050810434E0,1.075492876E1,3.845139538E0,1.146986457E1
2.078906542E0,1.650672195E0,1.109450230E1,1.552272034E0,1.132352633E1
2.088936542E0,1.249226342E0,1.091024718E1,1.911447488E-2,1.098154931E1
2.098966542E0,-2.928767994E-1,1.069313772E1,-6.651804952E-1,1.071780931E1
2.108996542E0,-1.324390691E0,1.040579619E1,-2.003195271E0,1.067929756E1
2.119026542E0,-1.221750348E0,9.627666274E0,-1.594607044E0,9.835009071E0
2.129056542E0,-7.520628838E-1,8.815744713E0,-1.173632149E0,8.925265590E0
2.139086542E0,-9.213253051E-2,8.051457494E0,-5.553124094E-1,8.071110707E0
2.149116542E0,3.464025769E-1,7.282559745E0,1.742590863E-2,7.290814416E0
2.159146542E0,6.837521292E-1,6.828504154E0,-5.537543457E-2,6.862874937E0
2.169177292E0,9.741043932E-1,6.331255766E0,-7.430173874E-1,6.448701712E0
2.179207292E0,1.653210471E0,6.286953751E0,-1.025066020E0,6.581006966E0
2.189237292E0,2.568057353E0,6.746047888E0,-2.427166792E-1,7.222395175E0
2.199267292E0,3.656417145E0,6.467464315E0,8.396765399E-1,7.476799964E0
2.209297292E0,4.236793059E0,4.998667717E0,-1.447267735E-1,6.554238339E0
2.219327292E0,2.531501438E0,1.948177065E0,2.325649334E0,3.951270458E0
2.229357292E0,2.781631583E-1,-2.212840757E0,3.548683366E0,4.191323489E0
2.239387292E0,-8.972939797E-1,-6.509902237E0,-3.988682835E0,7.687233207E0
2.249417292E0,-6.035468222E-1,-1.007725752E1,-4.856081024E0,1.120254037E1
2.259447292E0,1.112840621E-1,-1.498079571E1,-2.249399303E0,1.514913930E1
2.269477292E0,1.509960119E-1,-1.986917091E1,-3.718594097E0,2.021471480E1
2.279507292E0,-1.811058104E-2,-2.185729440E1,-2.259010956E0,2.197372924E1
2.289537292E0,8.822761372E-1,-2.161900165E1,-1.590701104E0,2.169539060E1
2.299567292E0,2.497032687E0,-1.959463712E1,-1.936235297E0,1.984777023E1
2.309597292E0,3.357957131E0,-1.860372351E1,-1.016630754E0,1.893166508E1
2.319627292E0,4.464007673E0,-1.808055091E1,-1.729393698E0,1.870359560E1
2.329657292E0,5.620096933E0,-1.962268270E1,-2.668699629E0,2.058536188E1
2.339687292E0,7.319930470E0,-2.034886713E1,-4.182162523E-2,2.162543698E1
2.349717292E0,7.384573778E0,-2.285648298E1,6.179828668E-1,2.402774744E1
2.359747292E0,5.699243674E0,-2.404355196E1,3.055513995E0,2.489799058E1
2.369776292E0,3.926098624E0,-2.124357298E1,3.844807416E0,2.194279352E1
2.379806292E0,2.674292491E0,-1.662861125E1,3.633237612E0,1.722971178E1
2.389836292E0,1.867815857E0,-1.296517043E1,2.830589150E0,1.340136617E1
2.399866292E0,8.227696082E-1,-9.252669132E0,1.228973487E0,9.370123357E0
2.409896292E0,-3.202885464E-1,-5.154411229E0,-1.968886149E-1,5.168104585E0
2.419926292E0,-8.980577722E-1,-9.879467261E-1,-1.188410329E0,1.787418699E0
2.429956292E0,-3.537185401E-1,2.860273125E0,-1.350467080E0,3.182772453E0
2.439986292E0,1.387804475E-1,5.845584279E0,-8.975346657E-1,5.915715008E0
2.450016292E0,-2.184712726E-1,8.169984648E0,-4.710048056E-1,8.186465927E0
2.460046292E0,-7.131391387E-1,9.827052820E0,-5.447733879E-1,9.867943686E0
2.470076292E0,-8.747960865E-1,1.077526772E1,-9.549368548E-1,1.085281378E1
2.480106292E0,-7.155250950E-1,1.142043780E1,-1.490661092E0,1.153951672E1
2.490136292E0,-1.559981588E-1,1.197756284E1,-1.842835382E0,1.211950450E1
2.500166292E0,3.183599885E-1,1.199455719E1,-1.726595074E0,1.212237130E1
2.510196292E0,8.015678235E-1,1.232518683E1,-2.000769262E0,1.251222678E1
2.520226292E0,1.206839071E0,1.220754202E1,-2.539370914E0,1.252712846E1
2.530256292E0,1.362137976E0,1.203328681E1,-2.917139636E0,1.245652901E1
2.540286292E0,1.053913332E0,1.146348734E1,-2.481814431E0,1.177631853E1
2.550316292E0,9.419745279E-1,1.080294843E1,-1.483906388E0,1.094499836E1
2.560346292E0,6.298061561E-1,1.032785515E1,-7.312317395E-1,1.037284665E1
2.570376292E0,3.737880845E-1,1.017468616E1,-3.833820498E-1,1.018876528E1
2.580406292E0,5.662464469E-1,1.025302248E1,-3.788993916E-2,1.026871660E1
2.590436292E0,8.961330150E-1,1.017702271E1,2.060453546E-1,1.021847838E1
2.600466292E0,1.209092003E0,1.020455140E1,1.724472717E-1,1.027737860E1
2.610496292E0,1.681768272E0,1.034514185E1,3.783382416E-1,1.048777595E1
2.620526292E0,1.969030283E0,1.039718675E1,7.247565329E-1,1.060678295E1
2.630556292E0,2.001340681E0,1.023646901E1,8.624923754E-1,1.046587576E1
2.640586292E0,1.648768049E0,9.892089061E0,8.294755606E-1,1.006279741E1
2.650616292E0,1.225775060E0,9.707393644E0,9.100710960E-1,9.826710806E0
2.660646292E0,9.750449178E-1,9.570367654E0,1.277732395E0,9.704393319E0
2.670676292E0,7.616945636E-1,9.408541868E0,1.707313296E0,9.592484421E0
2.680706292E0,5.578725397E-1,9.066699023E0,2.280691262E0,9.365778429E0
2.690736292E0,4.011447215E-1,8.654372671E0,2.739772536E0,9.086552534E0
2.700766292E0,1.207956547E-1,8.077154253E0,2.923848732E0,8.590919847E0
2.710796292E0,-4.746192985E-1,7.784371301E0,2.880671722E0,8.313842048E0
2.720826292E0,-1.142917529E0,7.848445090E0,2.389732479E0,8.283427559E0
2.730856292E0,-1.545721106E0,7.859243143E0,1.620859873E0,8.172156585E0
2.740886292E0,-1.383169241E0,7.583293741E0,6.829438247E-2,7.708707105E0
2.750916292E0,-8.917170516E-1,6.738704370E0,-4.858802319E0,8.355432715E0
2.760946292E0,-4.775717770E-1,4.410850051E0,-3.446033156E0,5.617723515E0
2.770976292E0,-1.221026390E0,8.920067811E-1,3.353857648E0,3.678986636E0
2.781006292E0,-2.658126402E0,-6.219233639E0,-7.447971629E0,1.006065527E1
2.791036292E0,-2.371258932E0,-1.192552613E1,1.494092238E-1,1.215990812E1
2.801066292E0,9.631701730E-1,-1.306517536E1,5.096209799E0,1.405695053E1
2.811096292E0,3.280415158E0,-1.891314296E1,-5.524056416E0,1.997456632E1
2.821126292E0,6.592240974E0,-2.254059300E1,-5.016063184E0,2.401451361E1
2.831156292E0,8.542853404E0,-2.367707655E1,-5.041822507E0,2.567107852E1
2.841186292E0,4.545560836E0,-2.606574834E1,-2.316766244E0,2.656036080E1
2.851216292E0,1.614524415E-1,-2.924359076E1,-2.452587708E0,2.934670091E1
2.861246292E0,-1.878496673E0,-3.020867605E1,-1.741018986E0,3.031705799E1
2.871276292E0,1.895222926E-1,-2.749442661E1,-4.738794795E-1,2.749916317E1
2.881306292E0,3.049938090E0,-2.352616459E1,4.149171802E-1,2.372666641E1
2.891335292E0,4.215807987E0,-2.186829184E1,2.891552659E-1,2.227282730E1
2.901365292E0,4.284699297E0,-2.047352509E1,4.411548793E-1,2.092172304E1
2.911395292E0,3.570759528E0,-1.794729403E1,3.378112630E-1,1.830218029E1
2.921425292E0,2.274677840E0,-1.437169243E1,4.542241372E-2,1.455066204E1
2.931455292E0,6.861109690E-1,-9.890270576E0,-1.769753373E-1,9.915620031E0
2.941485292E0,-5.150994994E-1,-5.135567408E0,-7.171797109E-1,5.210923798E0
2.951515292E0,-1.123023693E0,-8.975721610E-1,-1.770039886E0,2.280319977E0
2.961545292E0,-9.327120267E-1,3.039750486E0,-2.602191060E0,4.108702113E0
2.971575292E0,-3.088687880E-1,6.421709853E0,-2.313690609E0,6.832782859E0
2.981605292E0,-6.509573624E-2,8.855395267E0,-1.390353277E0,8.964114291E0
2.991635292E0,-1.096136588E-1,1.053388296E1,-4.966285837E-1,1.054615310E1
3.001665292E0,2.649607301E-2,1.197426033E1,-1.644003336E-1,1.197541816E1
3.011695292E0,4.791552030E-1,1.301295271E1,-2.617447615E-1,1.302440164E1
3.021725292E0,9.377049641E-1,1.336027966E1,-6.760819709E-1,1.341019947E1
3.031755292E0,1.146936978E0,1.292082865E1,-1.024880664E0,1.301205817E1
3.041785292E0,1.217634639E0,1.227886285E1,-9.472226232E-1,1.237539242E1
3.051815292E0,1.095961902E0,1.142767899E1,-7.988986427E-1,1.150787637E1
3.061845292E0,1.174217601E0,1.038520815E1,-6.173922980E-1,1.046959925E1
3.071875292E0,1.316180177E0,9.552355306E0,-4.841728449E-1,9.654752482E0
3.081905292E0,1.596632374E0,9.090640447E0,-3.954056793E-1,9.238253316E0
3.091935292E0,2.335534052E0,8.892014624E0,1.285299861E-1,9.194518114E0
3.101965292E0,3.105422319E0,9.010540609E0,8.336141467E-1,9.567047737E0
3.111995292E0,3.570767714E0,9.260696774E0,1.120759798E0,9.988342672E0
3.122025292E0,3.583976282E0,9.634259010E0,7.640983540E-1,1.030765148E1
3.132055292E0,2.628140126E0,1.001532732E1,2.162300348E-2,1.035443718E1
3.142085292E0,1.279404699E0,1.040214753E1,-5.715933967E-1,1.049610731E1
3.152115292E0,2.488940433E-1,1.070482514E1,-5.410370171E-1,1.072137820E1
3.162145292E0,-7.837132043E-1,1.080531422E1,-3.404658258E-1,1.083904695E1
3.172175167E0,-1.251457931E0,1.052896662E1,-1.560025259E-1,1.060422660E1
3.182205167E0,-1.509561924E0,1.001549455E1,1.711620720E-1,1.013006440E1
3.192235167E0,-1.792126574E0,9.673635330E0,5.061490567E-1,9.851249921E0
3.202265167E0,-1.823182744E0,9.470125328E0,6.987153733E-1,9.669305674E0
3.212295167E0,-1.753166576E0,9.407722088E0,7.857933513E-1,9.601890393E0
3.222325167E0,-1.749192662E0,9.302564008E0,8.218403395E-1,9.501199589E0
3.232355167E0,-1.901503713E0,9.174671953E0,8.715545364E-1,9.410097190E0
3.242385167E0,-2.076884953E0,9.061489738E0,9.036837438E-1,9.340272571E0
3.252415167E0,-2.103124626E0,8.797980287E0,9.243021226E-1,9.092960175E0
3.262445167E0,-2.098230652E0,8.403599625E0,5.551335577E-1,8.679356646E0
3.272475167E0,-1.724248440E0,7.871413538E0,-1.662387530E-1,8.059765449E0
3.282505167E0,-3.918719146E-1,7.123383917E0,-1.102528910E0,7.218845616E0
3.292535167E0,1.643790607E0,6.050168415E0,-2.212019369E0,6.648279108E0
3.302565167E0,3.975865446E0,3.557264155E0,-2.181714274E0,5.763810500E0
3.312595167E0,4.684302400E0,-2.931612664E-1,2.490388788E0,5.313254071E0
3.322625167E0,2.275095039E0,-4.585211683E0,1.446005760E0,5.318943153E0
3.332655167E0,3.549470401E-1,-1.013262129E1,-8.852555859E0,1.345970828E1
3.342685167E0,2.556569329E0,-1.255457310E1,-2.470470833E0,1.304824044E1
3.352715167E0,5.784548703E0,-1.551934766E1,-6.502566905E0,1.779310349E1
3.362745167E0,4.638212015E0,-2.168929220E1,-5.805229136E0,2.292682036E1
3.372775167E0,3.723796365E0,-2.536298319E1,-1.310931716E0,2.566838751E1
3.382805167E0,5.076457905E0,-2.750980946E1,-2.673315421E0,2.810171982E1
3.392835167E0,5.142876427E0,-2.764275176E1,-2.412375383E0,2.822039081E1
3.402865167E0,5.485111620E0,-2.665344497E1,-3.026328202E0,2.737975969E1
3.412894167E0,4.832196026E0,-2.385740234E1,-1.528947490E0,2.438982257E1
3.422924167E0,3.864211986E0,-2.158479544E1,-7.351258390E-1,2.194028118E1
3.432954167E0,2.905333231E0,-2.108543153E1,-3.307780127E-1,2.128722147E1
3.442984167E0,2.998898329E0,-2.052240079E1,-7.688591570E-2,2.074049751E1
3.453014167E0,2.709128448E0,-1.951860694E1,4.637157762E-1,1.971117516E1
3.463044167E0,1.880874151E0,-1.731386049E1,1.412361027E0,1.747289948E1
3.473074167E0,1.090629973E0,-1.411121651E1,2.219125637E0,1.432621457E1
3.483104167E0,-4.331120342E-2,-1.052147751E1,2.738511876E0,1.087211167E1
3.493134167E0,-1.254763947E0,-6.817464611E0,2.921998672E0,7.522654620E0
3.503164167E0,-2.327011005E0,-3.182661114E0,2.524916596E0,4.681828254E0
3.513194167E0,-2.959043123E0,3.127985555E-1,1.723443425E0,3.438609657E0
3.523224167E0,-3.185174248E0,4.000929244E0,4.998094690E-1,5.138344024E0
3.533254167E0,-2.873141093E0,7.603994638E0,-8.475084467E-1,8.172756253E0
3.543284167E0,-2.000204567E0,1.050075380E1,-1.722091548E0,1.082738417E1
3.553314167E0,-1.214870587E0,1.184271319E1,-1.930392759E0,1.206035581E1
3.563344167E0,-3.914087420E-1,1.227092584E1,-1.434954668E0,1.236074094E1
3.573374167E0,2.832824687E-1,1.217499525E1,-1.210131492E0,1.223826689E1
3.583404167E0,5.420234424E-1,1.145710452E1,-1.155013372E0,1.152792649E1
3.593434167E0,8.411213869E-1,1.097035890E1,-1.379789697E0,1.108873659E1
3.603464167E0,9.350277434E-1,1.091636220E1,-1.954988487E0,1.112938545E1
3.613494167E0,1.201853662E0,1.103812813E1,-2.710482663E0,1.142941123E1
3.623524167E0,1.973584241E0,1.114301080E1,-3.436898636E0,1.182683376E1
3.633554167E0,2.955928311E0,1.093175090E1,-3.847446849E0,1.196008099E1
3.643584167E0,3.442904603E0,1.071506712E1,-3.388773712E0,1.175372464E1
3.653614167E0,3.042850680E0,1.111451849E1,-2.330700159E0,1.175685437E1
3.663644167E0,2.023609217E0,1.162762219E1,-1.291852251E0,1.187288820E1
3.673674167E0,1.354124221E0,1.135089452E1,-5.080587208E-1,1.144266501E1
3.683704167E0,4.955073801E-1,1.034938927E1,2.514747484E-1,1.036429570E1
3.693734167E0,-2.201636030E-1,9.564691762E0,1.080299916E0,9.628024118E0
3.703764167E0,-6.789901567E-1,9.265023714E0,1.981495085E0,9.498842815E0
3.713794167E0,-1.023901547E0,9.220213577E0,2.571808927E0,9.626781079E0
3.723824167E0,-1.147975882E0,9.297826009E0,2.741624933E0,9.761348492E0
3.733854167E0,-1.013555996E0,9.429539804E0,2.464668056E0,9.798882860E0
3.743884167E0,-7.175913548E-1,9.612460590E0,1.963652891E0,9.837188045E0
3.753914167E0,-4.478538150E-1,9.763449147E0,1.491313787E0,9.886836152E0
3.763944167E0,-5.698966809E-2,9.869201889E0,1.148317213E0,9.935946164E0
3.773974167E0,1.928665345E-1,1.000845450E1,9.693315303E-1,1.005713491E1
3.784004167E0,8.091925196E-2,1.015860632E1,9.329220879E-1,1.020167505E1
3.794034167E0,-2.320598363E-1,1.025329028E1,8.970038116E-1,1.029506820E1
3.804064167E0,-3.371625875E-1,1.009231527E1,7.929759979E-1,1.012903337E1
3.814094167E0,-2.615319959E-1,9.609952719E0,5.266400027E-1,9.627925007E0
3.824124167E0,-2.683450985E-1,9.294319434E0,1.870582028E-1,9.300073849E0
3.834154167E0,-2.422108220E-1,8.706157367E0,5.554644370E-1,8.727220801E0
3.844184167E0,-5.471626333E-1,7.548898079E0,1.115496719E0,7.650462868E0
3.854214167E0,-1.035447752E0,5.558755547E0,4.671937366E-1,5.673639508E0
3.864244167E0,-1.837147503E0,2.919081497E0,5.143585110E-1,3.487221302E0
3.874274167E0,-2.838410678E0,7.406726539E-2,6.448800588E-1,2.911688759E0
3.884304167E0,-3.052588633E0,-3.142249838E0,-6.671318572E-2,4.381379012E0
3.894333167E0,-2.938102489E0,-6.929471535E0,6.704300523E-1,7.556421008E0
3.904363167E0,-2.519281050E0,-1.105949385E1,1.991396760E0,1.151628596E1
3.914393167E0,-4.835904988E-1,-1.692025633E1,1.635024168E0,1.700594714E1
3.924423167E0,8.405905182E0,-2.901458106E1,-1.112145680E1,3.218993565E1
3.934453167E0,1.552481013E1,-4.691946173E1,-1.611395336E1,5.198187291E1
3.944483167E0,1.562018407E1,-4.462883137E1,1.782866222E1,5.053299849E1
3.954513167E0,1.236738852E1,-3.669043622E1,2.746105070E0,3.881599544E1
3.964543167E0,-2.416765326E0,-3.035374781E1,-2.444591056E1,3.904860181E1
3.974573167E0,-9.162138446E0,-2.941445576E1,-1.373460905E1,3.373120920E1
3.984603167E0,-1.456392023E0,-2.334254097E1,9.014673421E0,2.506510789E1
3.994633167E0,3.029409100E0,-1.682685291E1,3.904888726E0,1.753762967E1
4.004663167E0,1.627585341E0,-1.365875896E1,-2.096212778E0,1.391419558E1
4.014693167E0,1.754349468E0,-1.172602264E1,-3.137615554E-1,1.186068275E1
4.024723167E0,2.166560045E0,-9.376037196E0,1.029142699E0,9.677974510E0
4.034753167E0,1.700965120E0,-6.991691757E0,9.625382352E-1,7.259718715E0
4.044783167E0,1.326562785E0,-4.461439576E0,5.441862909E-1,4.686187217E0
4.054813167E0,8.643335174E-1,-1.680789741E0,7.505638039E-1,2.033586144E0
4.064843167E0,-6.253905581E-1,1.582872852E0,9.862159503E-1,1.967033735E0
4.074873167E0,-2.511847485E0,5.181386774E0,5.200449282E-1,5.781573611E0
4.084903167E0,-3.829896432E0,8.348728768E0,-7.161506009E-1,9.213156376E0
4.094933167E0,-4.357041634E0,1.117587449E1,-2.145625259E0,1.218555252E1
4.104963167E0,-3.948751615E0,1.367013297E1,-3.652694807E0,1.469038305E1
4.114993167E0,-2.770893464E0,1.543544129E1,-5.204078649E0,1.652310906E1
4.125023167E0,-6.498377667E-1,1.582341574E1,-5.374992177E0,1.672403407E1
4.135053167E0,1.331699857E0,1.499032200E1,-4.476680928E0,1.570107799E1
4.145083167E0,2.774069671E0,1.378499450E1,-3.577798991E0,1.450938254E1
4.155113167E0,4.197416155E0,1.276299125E1,-2.859212440E0,1.373635119E1
4.165143167E0,5.419345062E0,1.143691525E1,-1.840329850E0,1.278902441E1
4.175172333E0,5.389223716E0,1.004909031E1,-4.250458002E-1,1.141089884E1
4.185202333E0,4.854868312E0,9.043693737E0,2.043198413E-1,1.026644482E1
4.195232333E0,4.645602311E0,8.532033132E0,8.859496504E-1,9.755107225E0
4.205262333E0,4.123903498E0,8.593478013E0,1.514874412E0,9.651387926E0
4.215292333E0,3.386326652E0,8.879341954E0,6.471417618E-1,9.525162161E0
4.225322333E0,2.499404902E0,9.317507737E0,-6.089395630E-1,9.666115180E0
4.235352333E0,1.590580067E0,9.389906207E0,-8.283130610E-1,9.559622694E0
4.245382333E0,6.940104843E-1,9.459267633E0,-1.652218491E-1,9.486131612E0
4.255412333E0,-1.670461804E-2,9.632856263E0,-7.542999554E-4,9.632870776E0
4.265442333E0,-6.744725248E-1,9.592098246E0,3.801450312E-2,9.615857063E0
4.275472333E0,-1.007552148E0,9.451921191E0,7.377724806E-2,9.505757130E0
4.285502333E0,-1.041129784E0,9.352869943E0,1.339947939E-1,9.411592958E0
4.295532333E0,-8.798762937E-1,9.169620543E0,3.889205325E-1,9.219944814E0
4.305562333E0,-4.382491055E-1,9.059504609E0,7.058442986E-1,9.097521762E0
4.315592333E0,-2.634951255E-1,9.089755763E0,9.491656530E-1,9.142975717E0
4.325622333E0,-1.912890288E-1,9.172248867E0,1.433764175E0,9.285602860E0
4.335651333E0,-1.819868396E-1,9.199110391E0,2.250187508E0,9.472069204E0
4.345681333E0,-5.833815296E-1,9.113719407E0,2.870327997E0,9.572826033E0
4.355711333E0,-1.071549046E0,9.003584177E0,2.994377847E0,9.548771862E0
4.365741333E0,-1.601311023E0,9.062342847E0,2.430847760E0,9.518365180E0
4.375771333E0,-2.349904462E0,9.261564501E0,-4.889582062E-1,9.567534066E0
4.385801333E0,-2.562876136E0,9.088041945E0,-8.494199308E0,1.270087644E1
4.395831333E0,-5.652136458E-1,6.539991424E0,-6.863651183E0,9.497402900E0
4.405861333E0,-6.636607307E-1,3.385619724E0,2.557022488E0,4.294325382E0
4.415891333E0,-9.612742133E-1,-1.099088262E0,-6.889909859E0,7.042932698E0
4.425921333E0,8.114245480E-1,-1.030289806E1,-1.164237939E1,1.556769463E1
4.435951333E0,1.562112605E0,-1.758082096E1,2.442808825E0,1.781832698E1
4.445981333E0,2.862041616E0,-2.345132023E1,3.956085777E-1,2.362863112E1
4.456011333E0,3.283812390E0,-2.906828422E1,-2.587613951E0,2.936740229E1
4.466041333E0,3.503147589E0,-3.244282698E1,4.798261417E0,3.298230402E1
4.476071333E0,4.500808294E0,-3.694518771E1,5.592084092E0,3.763609404E1
4.486101333E0,6.590568085E0,-3.865373477E1,2.620495183E0,3.929903045E1
4.496131333E0,9.115081809E0,-3.338768558E1,-7.676441056E-1,3.461808114E1
4.506161333E0,1.083424273E1,-2.244416306E1,-4.099177085E0,2.525716777E1
4.516191333E0,1.341915410E1,-1.543874964E1,-2.019986721E0,2.055502454E1
4.526221333E0,1.392125685E1,-1.416839994E1,-6.848539639E-1,1.987495847E1
4.536251333E0,1.075677999E1,-1.530718963E1,-1.446022644E-1,1.870933670E1
4.546281333E0,7.614194521E0,-1.389229910E1,-1.719689147E-1,1.584302704E1
4.556311333E0,5.346698086E0,-1.071361467E1,-3.980077269E-1,1.198028088E1
4.566341333E0,3.623187418E0,-7.252316777E0,-1.659539205E-1,8.108706826E0
4.576371333E0,1.952435592E0,-3.963649735E0,-1.250912752E-1,4.420200425E0
4.586401333E0,-1.105652931E-1,-6.066942322E-1,-2.894021646E-1,6.812166970E-1
4.596431333E0,-2.179775629E0,2.823197685E0,-7.024868274E-1,3.635292932E0
4.606461333E0,-3.538626155E0,6.458976497E0,-1.131876012E0,7.451268064E0
4.616491333E0,-4.015853677E0,9.514292856E0,-1.563906823E0,1.044483862E1
4.626521333E0,-3.641686254E0,1.209929369E1,-1.953901636E0,1.278563718E1
4.636551333E0,-2.676087586E0,1.378825374E1,-2.175277659E0,1.421299472E1
4.646581333E0,-1.628631115E0,1.453486366E1,-2.393464172E0,1.482037016E1
4.656611333E0,-7.652128333E-1,1.437569543E1,-2.178495381E0,1.455994546E1
4.666641333E0,2.561709031E-2,1.380957620E1,-1.241909428E0,1.386533051E1
4.676671333E0,3.175007401E-1,1.244683230E1,-7.775586444E-1,1.247513682E1
4.686701333E0,6.231497589E-1,1.111447171E1,9.621318537E-1,1.117342807E1
4.696731333E0,1.013881320E0,1.070864688E1,2.653293386E0,1.107894576E1
4.706761333E0,9.839694500E-1,1.040293456E1,2.952327595E0,1.085842906E1
4.716791333E0,5.209363362E-1,9.736140895E0,2.511122430E0,1.006824464E1
4.726821333E0,3.004708707E-2,8.726423231E0,1.571007097E0,8.866759754E0
4.736851333E0,-1.430221640E-1,8.020992331E0,5.842993963E-1,8.043517831E0
4.746881333E0,-4.234385468E-1,7.920312633E0,2.662886328E-1,7.936092366E0
4.756911333E0,-9.947949851E-1,8.677493731E0,1.331209860E0,8.835192935E0
4.766941333E0,-1.923869605E0,9.951397369E0,1.005428147E0,1.018540473E1
4.776970333E0,-2.381837276E0,1.065681716E1,-6.724303848E-1,1.094043251E1
4.787000333E0,-1.504805506E0,1.089692722E1,-2.542254176E0,1.129028427E1
4.797030333E0,-1.463501652E0,1.070268506E1,-2.352928349E0,1.105556766E1
4.807060333E0,-1.264124316E0,1.024316875E1,-1.404322275E0,1.041597991E1
4.817090333E0,-5.670906752E-1,9.932865204E0,-8.731237829E-1,9.987279316E0
4.827120333E0,-1.533191838E-1,9.624756115E0,-1.555949750E-1,9.627234642E0
4.837150333E0,1.435776494E-1,9.257646282E0,-3.094229579E-1,9.263928529E0
4.847180333E0,2.288758081E-1,8.740604483E0,-4.992270863E-1,8.757840976E0
4.857210333E0,4.087225668E-1,8.259696139E0,-5.308412272E-1,8.286822482E0
4.867240333E0,3.506597885E-1,8.187291237E0,-5.209202564E-1,8.211337163E0
4.877270333E0,1.820936975E-1,8.056565621E0,-2.688217197E-1,8.063105658E0
4.887300333E0,-6.661893591E-2,8.003612652E0,1.393941128E-1,8.005103640E0
4.897330333E0,9.759339139E-2,7.353775324E0,-2.914965641E-1,7.360197431E0
4.907360333E0,1.441214990E0,5.911588234E0,-9.555601680E-1,6.159307699E0
4.917390333E0,3.391271935E0,4.173717390E0,-2.248059706E0,5.828757554E0
4.927420333E0,4.961432648E0,1.589978389E0,-2.791963613E-1,5.217451083E0
4.937450333E0,3.772960339E0,-2.772363161E0,2.588555353E0,5.349938881E0
4.947480333E0,4.511308140E0,-6.640424370E0,-8.364668863E0,1.159374064E1
4.957510333E0,2.772316384E0,-1.200990262E1,-4.161269252E0,1.300921446E1
4.967540333E0,-3.540157248E-1,-2.072724981E1,7.755171475E0,2.213338872E1
4.977570333E0,1.625624769E0,-2.896043350E1,1.109014496E0,2.902721615E1
4.987600333E0,7.183289811E-1,-2.959786888E1,1.165198052E0,2.962950431E1
4.997630333E0,1.911926082E0,-2.533131233E1,2.504350770E-1,2.540459729E1
5.007660333E0,1.185852172E0,-2.075470599E1,6.847031057E-1,2.079982895E1
5.017690333E0,1.193813156E0,-2.154611961E1,-1.523783230E0,2.163290030E1
5.027720333E0,3.859297109E0,-2.434260429E1,-3.241682324E0,2.485890308E1
5.037750333E0,5.298096029E0,-2.456268414E1,-5.505750318E-1,2.513361109E1
5.047780333E0,5.558504702E0,-2.467713987E1,1.380753318E0,2.533307495E1
5.057810333E0,5.109087707E0,-2.244455833E1,1.898443573E0,2.309686264E1
5.067840333E0,3.272964051E0,-1.871377981E1,1.184503219E0,1.903472869E1
5.077870333E0,8.619994551E-1,-1.529529405E1,1.624554583E-1,1.532042607E1
5.087900333E0,-1.044004421E0,-1.105932779E1,-1.028032898E0,1.115596379E1
5.097930333E0,-2.344120542E0,-6.526968505E0,-1.344412873E0,7.064252612E0
5.107960333E0,-3.230191961E0,-2.093755778E0,-1.635872015E0,4.182586593E0
5.117990333E0,-3.404414429E0,1.907429574E0,-1.168402326E0,4.073510670E0
5.128020333E0,-2.556623123E0,5.994354402E0,-2.232292251E-1,6.520616365E0
5.138050333E0,-1.337932550E0,8.751842247E0,1.051563263E-1,8.854143893E0
5.148080333E0,-4.612013273E-1,1.081015454E1,3.570661076E-1,1.082587845E1
5.158110333E0,-1.217743324E-1,1.244537635E1,2.914182297E-1,1.244938336E1
5.168141208E0,5.541153382E-1,1.358981912E1,2.361164153E-1,1.360316061E1
5.178171208E0,1.741455188E0,1.418300512E1,-7.836087584E-2,1.428973200E1
5.188200208E0,2.912180320E0,1.424304550E1,-3.719203377E-1,1.454247104E1
5.198230208E0,3.865520593E0,1.382166239E1,-2.575294854E-1,1.435433461E1
5.208260208E0,4.184444107E0,1.263851573E1,-1.811625284E-1,1.331444599E1
5.218290208E0,3.675749209E0,1.070942924E1,8.695451042E-2,1.132301055E1
5.228320208E0,2.649045676E0,9.349321268E0,2.783666414E-1,9.721354800E0
5.238350208E0,1.657301768E0,7.964489517E0,-9.340109308E-2,8.135629427E0
5.248380208E0,8.864834281E-1,6.920832859E0,1.773109674E-1,6.979628895E0
5.258410208E0,5.725897622E-1,6.849823687E0,7.971509099E-1,6.919782739E0
5.268440208E0,4.727008636E-1,7.747589976E0,7.401487434E-1,7.797205698E0
5.278470208E0,3.410284010E-1,9.026768972E0,4.779128158E-1,9.045842089E0
5.288500208E0,9.066897243E-2,1.007255168E1,2.830262876E-1,1.007693515E1
5.298530208E0,-5.974714190E-2,1.061966161E1,-8.281527559E-2,1.062015258E1
5.308560208E0,-3.675062015E-1,1.073920092E1,-6.568808842E-1,1.076554642E1
5.318590208E0,-8.285744315E-1,1.068070070E1,-9.841121221E-1,1.075789848E1
5.328620208E0,-1.186096951E0,1.071060687E1,-9.507502484E-1,1.081794118E1
5.338650208E0,-1.328331276E0,1.066450040E1,-7.440090752E-1,1.077263117E1
5.348680208E0,-1.201117425E0,1.036715662E1,-6.209602690E-1,1.045496108E1
5.358710208E0,-8.409200965E-1,9.932108574E0,-4.765270257E-1,9.979028276E0
5.368740208E0,-4.223727456E-1,9.680711630E0,-1.864899997E-1,9.691715788E0
5.378770208E0,-3.555344660E-1,9.572721743E0,4.066621542E-2,9.579408127E0
5.388800208E0,-5.976070744E-1,9.316110252E0,-1.871109009E-5,9.335258135E0
5.398830208E0,-9.673179685E-1,8.650556193E0,-6.541744273E-2,8.704717453E0
5.408860208E0,-1.193834206E0,7.563705568E0,-1.985457889E-1,7.659915304E0
5.418890208E0,-1.323800122E0,6.006705476E0,-3.369153234E-1,6.160070566E0
5.428920208E0,-1.223144544E0,4.896104046E0,3.052492154E-1,5.055798106E0
5.438950208E0,-4.551307480E-1,4.094739633E0,6.873940674E-1,4.176906422E0
5.448980208E0,5.786163412E-1,3.159062921E0,-2.431657454E-1,3.220808127E0
5.459010208E0,1.174797134E0,2.215864352E0,-1.758805046E0,3.063265957E0
5.469040208E0,1.605318413E0,2.171462935E-1,-2.056116081E0,2.617596810E0
5.479070208E0,1.167155992E0,-3.236585891E0,-2.591606430E0,4.307454611E0
5.489100208E0,-4.530634649E-1,-7.600020286E0,-3.376492220E0,8.328641820E0
5.499130208E0,-2.029172550E0,-1.356835399E1,-1.295426216E0,1.378027215E1
5.509160208E0,-1.717660090E0,-1.893753638E1,1.215332079E-1,1.901566224E1
5.519190208E0,6.777472579E-1,-2.189975220E1,4.266464755E-2,2.191027859E1
5.529220208E0,5.697863731E0,-2.538764674E1,2.834939186E-1,2.602073456E1
5.539250208E0,1.226867232E1,-3.036782790E1,-3.016268360E0,3.289108035E1
5.549280208E0,1.295069272E1,-3.267488192E1,-4.151953468E0,3.539218937E1
5.559310208E0,8.071490639E0,-3.196349329E1,-3.383290193E0,3.314001384E1
5.569340208E0,5.439623791E0,-2.941220809E1,-3.014622077E0,3.006252548E1
5.579370208E0,4.292136371E0,-2.473080094E1,-2.342908999E0,2.520960476E1
5.589399208E0,3.267043745E0,-2.074679120E1,-2.182312005E0,2.111552523E1
5.599429208E0,2.267483864E0,-1.712552401E1,-2.819417460E0,1.750354737E1
5.609459208E0,4.409974431E-1,-1.311142216E1,-3.194064939E0,1.350207097E1
5.619489208E0,-1.329884881E0,-9.205705465E0,-3.112826064E0,9.808327738E0
5.629519208E0,-2.114726086E0,-5.953143227E0,-2.591987961E0,6.828644249E0
5.639549208E0,-1.659323881E0,-3.289993190E0,-1.768117322E0,4.087009884E0
5.649579208E0,-9.427687991E-1,-4.485995543E-1,-8.295350560E-1,1.333485275E0
5.659609208E0,-3.885216062E-1,2.382276694E0,8.578903243E-2,2.415274528E0
5.669639208E0,4.410774037E-2,5.139139472E0,8.416410582E-1,5.207788367E0
5.679669208E0,5.641846821E-1,7.470179354E0,1.290882783E0,7.601859134E0
5.689699208E0,7.360089147E-1,9.332465499E0,1.279930948E0,9.448536640E0
5.699729208E0,5.548883401E-1,1.088089182E1,1.186357956E0,1.095943215E1
5.709759208E0,1.023305862E-1,1.190791783E1,7.599556017E-1,1.193258191E1
5.719789208E0,-3.722543599E-1,1.250501912E1,1.382515669E-1,1.251132247E1
5.729819208E0,-5.951266124E-1,1.270032314E1,-1.760783744E-1,1.271547825E1
5.739849208E0,-7.665109883E-1,1.293161560E1,-5.532582825E-1,1.296612185E1
5.749879208E0,-1.097820367E0,1.324511523E1,-1.108708102E0,1.333669827E1
5.759909208E0,-1.350508595E0,1.337677699E1,-1.454953315E0,1.352327347E1
5.769939208E0,-1.244338654E0,1.295791404E1,-1.570032367E0,1.311186167E1
5.779969208E0,-8.366120142E-1,1.211880117E1,-1.229123906E0,1.220966859E1
5.789999208E0,-4.319830099E-1,1.110866426E1,-2.991833138E-1,1.112108545E1
5.800029208E0,5.095110230E-2,1.007509054E1,9.895453548E-1,1.012369722E1
5.810059208E0,6.022863818E-1,9.417826077E0,1.901960673E0,9.626819376E0
5.820089208E0,1.190289185E0,9.110005256E0,2.616124390E0,9.552648373E0
5.830119208E0,1.729759879E0,9.054287723E0,2.730754960E0,9.614011549E0
5.840149208E0,1.896124567E0,9.195260584E0,2.132739165E0,9.627911607E0
5.850179208E0,1.926736349E0,9.508631582E0,4.539596969E-1,9.712490253E0
5.860209208E0,2.005921828E0,9.906779605E0,-2.138819100E0,1.033162870E1
5.870239208E0,1.262721861E0,9.975181503E0,-1.979635670E0,1.024781293E1
5.880269208E0,2.891309269E-1,1.004776767E1,-1.718548720E0,1.019777630E1
5.890299208E0,-4.853773713E-3,1.024202971E1,-1.273828794E0,1.032094163E1
5.900329208E0,2.542188102E-1,1.055876871E1,-9.881624883E-1,1.060795404E1
5.910359208E0,3.383608282E-1,1.016205267E1,-1.689134302E0,1.030703532E1
5.920389208E0,3.092060262E-1,9.115621507E0,-1.558293496E0,9.253023421E0
5.930419208E0,1.547772601E-1,8.452821486E0,-6.152083629E-1,8.476592971E0
5.940449208E0,-4.767293394E-2,7.963646933E0,1.773524827E-1,7.965764187E0
5.950479208E0,-3.001865499E-1,7.458045797E0,7.294851762E-1,7.499647171E0
5.960509208E0,-6.939817598E-1,6.882199720E0,8.853666830E-1,6.973532665E0
5.970539208E0,-8.580527307E-1,6.047278136E0,7.128235352E-1,6.149304411E0
5.980568208E0,-1.590195613E-1,5.285867162E0,-2.018675190E-1,5.292110106E0
5.990598208E0,4.613472153E-1,4.598364995E0,-1.166582673E0,4.766415530E0
6.000628208E0,-8.118946642E-1,2.359812861E0,-3.432280505E-1,2.519066331E0
6.010658208E0,-2.875683754E0,-1.791295100E0,1.304303312E0,3.630358429E0
6.020688208E0,-3.496344061E0,-6.785333576E0,7.447368342E-2,7.633526044E0
6.030718208E0,-2.507817291E0,-1.156964237E1,5.301342988E-1,1.185018204E1
6.040748208E0,-9.343219113E-1,-1.552386873E1,5.218664090E-1,1.556071343E1
6.050778208E0,2.229261492E0,-2.019414044E1,-1.900865489E0,2.040554348E1
6.060808208E0,5.597958205E0,-2.524703290E1,-2.092627265E0,2.594472770E1
6.070838208E0,7.718137550E0,-2.893328371E1,-8.264454603E-1,2.995642778E1
6.080868208E0,9.938921750E0,-3.076075845E1,-2.434539692E0,3.241810312E1
6.090898208E0,9.254712734E0,-2.864596556E1,-4.772576938E0,3.047980547E1
6.100928208E0,6.670799485E0,-2.522552450E1,-6.660984349E0,2.692945162E1
6.110958208E0,4.138296711E0,-2.383596411E1,-9.175535002E0,2.587410148E1
6.120988208E0,1.604354645E0,-2.237056533E1,-7.518673822E0,2.365473743E1
6.131018208E0,1.466170029E0,-2.104974246E1,-4.144750868E0,2.150395945E1
6.141048208E0,3.074281218E0,-1.916557077E1,-1.964922906E0,1.950977268E1
6.151078208E0,3.332678741E0,-1.682914268E1,-1.580558524E0,1.722860866E1
6.161108208E0,3.247640930E0,-1.351849829E1,-5.624460125E-1,1.391450011E1
6.171137583E0,2.377058054E0,-9.706418914E0,1.198901403E-1,9.993965518E0
6.181167583E0,9.305323309E-1,-5.431736482E0,3.933563033E-1,5.524887402E0
6.191197583E0,-1.114398904E-1,-1.212272816E0,4.989487588E-1,1.315664886E0
6.201227583E0,-1.038236874E0,2.719121924E0,6.273746645E-1,2.977441656E0
6.211257583E0,-1.304160056E0,6.065307441E0,8.201234508E-1,6.257906221E0
6.221287583E0,-9.027289666E-1,9.013781136E0,1.253165903E0,9.145140499E0
6.231317583E0,-7.040852369E-1,1.131147610E1,1.260301845E0,1.140322710E1
6.241347583E0,-6.254569971E-1,1.309646732E1,1.234019780E0,1.316933778E1
6.251377583E0,-1.366146389E-1,1.422544655E1,1.065587225E0,1.426595490E1
6.261407583E0,4.679172199E-1,1.475795131E1,6.930979532E-1,1.478162569E1
6.271437583E0,9.947456492E-1,1.498956420E1,4.932488930E-1,1.503063033E1
6.281467583E0,1.429981465E0,1.483924515E1,3.055550065E-1,1.491111691E1
6.291497583E0,2.233772035E0,1.447197919E1,1.998659440E-1,1.464472143E1
6.301527583E0,2.842868595E0,1.380004290E1,2.453240258E-1,1.409195762E1
6.311557583E0,2.509903578E0,1.254181915E1,1.190107191E-1,1.279105184E1
6.321586583E0,1.297111529E0,1.147046190E1,-4.999602906E-1,1.155439114E1
6.331616583E0,3.644285926E-1,1.067718886E1,-4.730221681E-1,1.069387302E1
6.341646583E0,5.409690432E-2,1.009421444E1,3.839714491E-1,1.010165955E1
6.351676583E0,2.516476981E-1,9.722321586E0,1.592054150E0,9.855024100E0
6.361706583E0,6.983214171E-1,9.236154841E0,2.186234756E0,9.517028499E0
6.371736583E0,1.049284457E0,8.637992865E0,1.851417925E0,8.896272644E0
6.381766583E0,1.276909546E0,8.341293449E0,1.519532304E0,8.574185256E0
6.391796583E0,1.369198781E0,8.424530903E0,1.213176795E0,8.620859828E0
6.401826583E0,1.199244781E0,8.619701605E0,8.125442898E-1,8.740576184E0
6.411856583E0,7.484128325E-1,8.813191819E0,2.114867369E-1,8.847440220E0
6.421886583E0,1.772576847E-1,9.052608402E0,-9.810423338E-1,9.107336781E0
6.431916583E0,-1.412010486E-1,9.473807904E0,-2.240334949E0,9.736122155E0
6.441946583E0,5.544432208E-2,9.766468649E0,-2.959057156E0,1.020504793E1
6.451976583E0,5.629175904E-1,9.761837069E0,-2.952411211E0,1.021406242E1
6.462006583E0,1.228095381E0,9.757415990E0,-1.992480834E0,1.003420973E1
6.472036583E0,1.622056067E0,9.376193901E0,-8.729261470E-1,9.555421394E0
6.482066583E0,1.479890521E0,8.162842859E0,-3.763267263E-1,8.304438650E0
6.492096583E0,1.333222471E0,6.904652444E0,-7.282343837E-1,7.069797228E0
6.502126583E0,1.163435263E0,6.374741508E0,-1.493882908E0,6.650007297E0
6.512156583E0,8.485872580E-1,6.390935957E0,-1.665099907E0,6.658582465E0
6.522186583E0,8.416018818E-1,6.263945543E0,-1.832331444E0,6.580482202E0
6.532216583E0,7.623159765E-1,5.392098207E0,-2.721122257E0,6.087721664E0
6.542246583E0,1.688155478E-1,3.133429313E0,-4.363042631E0,5.374292414E0
6.552276583E0,-5.725488317E-1,-4.450935638E-1,-2.540914578E0,2.642379106E0
6.562306583E0,-2.512240418E0,-8.302848591E0,3.311019485E-1,8.680914418E0
6.572336583E0,-2.140652786E0,-1.911735229E1,-5.246867988E0,1.993953803E1
6.582366583E0,1.852734426E0,-1.732293536E1,7.281648749E0,1.888224359E1
6.592396583E0,2.712964806E0,-1.780373320E1,5.856696328E0,1.893763411E1
6.602426583E0,2.899076418E0,-2.528145897E1,2.263044366E0,2.554756703E1
6.612456583E0,6.649706240E0,-3.244062609E1,-2.971297717E-1,3.311647778E1
6.622486583E0,9.857716788E0,-3.639808713E1,-1.309763442E0,3.773209254E1
6.632516583E0,6.979703211E0,-3.428506712E1,-2.140765053E0,3.505374387E1
6.642545583E0,4.741639904E0,-2.819334430E1,-5.094201865E0,2.903960579E1
6.652575583E0,4.511214876E0,-2.215735245E1,-5.205373807E0,2.320334553E1
6.662605583E0,3.748155865E0,-1.997741690E1,-3.442730649E0,2.061548575E1
6.672635583E0,4.522619871E0,-1.856580198E1,-1.869400306E0,1.919994144E1
6.682665583E0,4.349332957E0,-1.670187452E1,-1.570782126E0,1.733022407E1
6.692695583E0,3.138658478E0,-1.345693881E1,-1.705545244E0,1.392297611E1
6.702725583E0,1.842516855E0,-9.613306097E0,-1.759234232E0,9.945120792E0
6.712755583E0,7.093881498E-1,-5.595757897E0,-2.197145076E0,6.053361420E0
6.722785583E0,4.969460875E-2,-1.744185253E0,-2.124197552E0,2.748975626E0
6.732815583E0,-7.994123206E-2,1.761907579E0,-1.359359672E0,2.226784146E0
6.742845583E0,2.998949200E-1,4.961814471E0,3.042174742E-2,4.970962210E0
6.752875583E0,7.046267621E-1,7.615372735E0,1.598776109E0,7.813225059E0
6.762905583E0,7.672850865E-1,9.929846871E0,2.859639287E0,1.036185901E1
6.772935583E0,3.004613690E-2,1.200298069E1,3.166012337E0,1.241354431E1
6.782965583E0,-8.122861353E-1,1.328470322E1,3.362495155E0,1.372769180E1
6.792995583E0,-1.075591957E0,1.374562754E1,2.772966009E0,1.406373048E1
6.803025583E0,-9.477386400E-1,1.410111369E1,1.477579701E0,1.420995629E1
6.813055583E0,-5.615206906E-1,1.419576491E1,9.806832234E-2,1.420720466E1
6.823085583E0,-1.227709904E-1,1.385586860E1,-6.973178887E-1,1.387394752E1
6.833115583E0,7.346628126E-2,1.326696745E1,-9.744004816E-1,1.330290490E1
6.843145583E0,1.351733368E-1,1.265994577E1,-1.460929754E0,1.274467789E1
6.853175583E0,6.330338922E-1,1.205741944E1,-1.561494847E0,1.217457849E1
6.863205583E0,1.324234278E0,1.118833608E1,-7.556999981E-1,1.129174668E1
6.873235583E0,1.627556836E0,9.870623932E0,6.490117013E-1,1.002493762E1
6.883265583E0,1.794690139E0,8.948911541E0,1.105842966E0,9.193846808E0
6.893295583E0,1.842734956E0,8.598934050E0,5.777540231E-1,8.813123091E0
6.903325583E0,1.599066716E0,8.423121724E0,-1.769589651E-1,8.575389694E0
6.913355583E0,1.110942688E0,8.628966519E0,-8.531473553E-1,8.741917252E0
6.923385583E0,3.956955551E-1,9.436450628E0,-1.248034387E0,9.526844454E0
6.933415583E0,-2.948041148E-1,1.000397319E1,-1.193880984E0,1.007927284E1
6.943445583E0,-7.896604074E-1,1.021602949E1,-9.526728129E-1,1.029069519E1
6.953475583E0,-1.020642163E0,1.007747620E1,-9.790718222E-1,1.017623794E1
6.963505583E0,-1.141499287E0,9.862260075E0,-9.902996457E-1,9.977368781E0
6.973534583E0,-9.903752209E-1,9.653790464E0,-6.950550163E-1,9.729317288E0
6.983564583E0,-7.992241864E-1,9.379038572E0,-2.097372866E-1,9.415365822E0
6.993594583E0,-6.055807762E-1,9.059223357E0,2.919012280E-1,9.084132443E0
7.003624583E0,-5.271513417E-1,8.705476166E0,7.159564734E-1,8.750759823E0
7.013654583E0,-6.174086702E-1,8.227392612E0,8.410728550E-1,8.293285609E0
7.023684583E0,-9.408035499E-1,7.877147902E0,9.210042930E-1,7.986414671E0
7.033714583E0,-1.089106480E0,7.496190693E0,1.345030339E0,7.693382510E0
7.043744583E0,-6.258532190E-1,7.102840310E0,1.919127513E0,7.384110179E0
7.053774583E0,1.585617243E-1,6.913370057E0,1.854685349E0,7.159586938E0
7.063804583E0,8.995714702E-1,6.480691302E0,9.237255871E-1,6.607711975E0
7.073834583E0,1.660867254E0,5.354478391E0,-3.163703856E0,6.437230846E0
7.083864583E0,2.733055839E0,3.029806711E0,-4.634151124E0,6.174518569E0
7.093894583E0,1.247192388E0,-1.926742927E0,2.627714156E0,3.488940934E0
7.103924583E0,-1.054553821E0,-1.025677522E1,-5.860878257E0,1.186016086E1
7.113954583E0,-2.968294879E0,-2.081675898E1,-3.924386852E0,2.139039600E1
7.123984583E0,-3.140088707E0,-2.305734419E1,2.956548700E0,2.345724746E1
7.134014583E0,6.974667004E-1,-2.636158705E1,1.605578760E0,2.641964448E1
7.144044583E0,5.408275114E0,-3.323097318E1,1.577056188E0,3.370510532E1
7.154074583E0,9.107697360E0,-3.588430633E1,-7.598984452E-1,3.702986683E1
7.164104583E0,8.025976498E0,-3.358177337E1,-2.910094911E0,3.464997048E1
7.174135417E0,6.122877372E0,-3.014906719E1,-5.247508843E0,3.120884857E1
7.184165417E0,4.462450560E0,-2.685306657E1,-7.179254647E0,2.815212863E1
7.194195417E0,2.425869880E0,-2.354381616E1,-6.698628724E0,2.459812495E1
7.204225417E0,1.645705131E0,-2.023821208E1,-3.940092181E0,2.068375933E1
7.214255417E0,1.480836308E0,-1.758528590E1,-1.167882947E0,1.768612753E1
7.224285417E0,3.034677149E-1,-1.431414530E1,6.413822544E-1,1.433172075E1
7.234315417E0,-1.565171138E0,-9.936985152E0,1.394516494E0,1.015569352E1
7.244345417E0,-3.068811733E0,-5.146177180E0,1.553987607E0,6.189961430E0
7.254375417E0,-3.759024670E0,-8.194744098E-1,1.376831883E0,4.086253884E0
7.264404417E0,-3.219082251E0,3.056864702E0,1.174326579E0,4.591944605E0
7.274434417E0,-1.925434612E0,6.269596877E0,1.185751015E0,6.664919273E0
7.284464417E0,-4.200557133E-1,8.733487837E0,1.368574737E0,8.850042566E0
7.294494417E0,8.064494446E-1,1.054251462E1,1.469611115E0,1.067495817E1
7.304524417E0,1.489499689E0,1.169838168E1,1.364261831E0,1.187147647E1
7.314554417E0,1.596745810E0,1.247511879E1,1.406782783E0,1.265532394E1
7.324584417E0,1.590039638E0,1.284523351E1,1.431579655E0,1.302219914E1
7.334614417E0,1.549367137E0,1.256738084E1,1.193528981E0,1.271865210E1
7.344644417E0,1.333415430E0,1.191217811E1,7.769709992E-1,1.201173043E1
7.354674417E0,1.358541500E0,1.140388316E1,2.810569453E-1,1.148795800E1
7.364704417E0,1.405099516E0,1.131256836E1,1.522685122E-1,1.140051285E1
7.374734417E0,1.159209626E0,1.123803156E1,-6.569818217E-2,1.129785098E1
7.384764417E0,8.867938422E-1,1.082224658E1,-5.894765576E-1,1.087450721E1
7.394794417E0,5.708989302E-1,9.814380734E0,-7.660565865E-1,9.860772661E0
7.404824417E0,4.926580319E-1,9.165890020E0,-6.720321894E-2,9.179366430E0
7.414854417E0,8.457361557E-1,9.067362097E0,7.069984659E-1,9.134121297E0
7.424884417E0,1.011490540E0,9.026581861E0,8.667117262E-1,9.124334629E0
7.434914417E0,9.810626529E-1,9.029962136E0,5.738036807E-1,9.101206007E0
7.444944417E0,8.524296096E-1,9.232102135E0,1.918203215E-1,9.273356518E0
7.454974417E0,7.985571653E-1,9.631814289E0,-1.119986650E-1,9.665510010E0
7.465004417E0,8.023282539E-1,1.005944456E1,1.208268642E-2,1.009139740E1
7.475034417E0,6.392677550E-1,1.034754623E1,3.791614565E-1,1.037420549E1
7.485064417E0,4.170082907E-1,1.035592412E1,6.016947898E-1,1.038176752E1
7.495094417E0,3.722571373E-2,1.018629289E1,6.881307435E-1,1.020957749E1
7.505124417E0,-5.076413758E-1,9.866836106E0,5.691271142E-1,9.896264961E0
7.515154417E0,-9.861133316E-1,9.719636545E0,5.266096338E-1,9.783714620E0
7.525184417E0,-9.917205191E-1,9.535144027E0,7.554544151E-1,9.616298278E0
7.535214417E0,-6.964971589E-1,9.273929023E0,9.514788115E-1,9.348592394E0
7.545244417E0,8.554768860E-3,9.046989813E0,1.056759245E0,9.108503607E0
7.555274417E0,5.890189033E-1,8.936337104E0,1.125165602E0,9.026132158E0
7.565304417E0,7.192032129E-1,8.866506731E0,1.222732461E0,8.979268876E0
7.575333417E0,6.856722817E-1,8.506995939E0,1.023148207E0,8.595694192E0
7.585363417E0,5.356162097E-1,7.907720069E0,6.102400569E-1,7.949296469E0
7.595393417E0,5.901317015E-1,6.893778377E0,-3.248525175E-1,6.926612801E0
7.605423417E0,1.197942021E0,5.323536095E0,-2.854032977E0,6.157970922E0
7.615453417E0,2.073762540E0,3.374940369E0,-2.570126098E0,4.721891753E0
7.625483417E0,8.521249697E-2,-6.054932141E-1,4.364503266E0,4.407127404E0
7.635513417E0,-1.038159398E0,-6.933901386E0,-3.297467101E0,7.747906339E0
7.645543417E0,-6.160550398E-1,-1.404082773E1,-4.910687002E0,1.488755232E1
7.655573417E0,-1.396831845E0,-1.646751695E1,3.755596447E0,1.694800160E1
7.665603417E0,9.499411400E-1,-2.147158866E1,-1.849288223E0,2.157200442E1
7.675633417E0,4.225951444E0,-2.861880876E1,-1.526488005E0,2.896938118E1
7.685663417E0,8.204627062E0,-3.702363396E1,-3.989718231E-1,3.792393117E1
7.695693417E0,8.263591554E0,-3.849017178E1,2.310031421E0,3.943496563E1
7.705723417E0,7.752345516E0,-3.319497070E1,1.369304762E0,3.411568461E1
7.715753417E0,8.301080393E0,-2.876574227E1,-2.109243883E0,3.001374308E1
7.725783417E0,7.010733215E0,-2.516407027E1,-6.529734238E0,2.692616277E1
7.735813417E0,3.748869810E0,-2.095252899E1,-1.049557434E1,2.373224761E1
7.745843417E0,1.877778197E0,-1.763964629E1,-6.975210210E0,1.906139370E1
7.755873417E0,1.480689250E0,-1.545486691E1,-1.071262532E0,1.556254977E1
7.765903417E0,4.878905046E-1,-1.373882138E1,4.055429240E-1,1.375346193E1
7.775933417E0,-1.428284749E-2,-1.123367305E1,5.412357493E-1,1.124671287E1
7.785963417E0,-4.720375335E-1,-7.392987337E0,4.876180974E-1,7.424072508E0
7.795993417E0,-1.149789177E-1,-3.441037295E0,8.671140877E-1,3.550471047E0
7.806023417E0,5.414559701E-1,5.722728431E-2,7.094204557E-1,8.942745175E-1
7.816053417E0,9.625997771E-1,3.457993636E0,1.986275768E-1,3.594964705E0
7.826083417E0,8.785427631E-1,6.602948395E0,9.786134005E-2,6.661857229E0
7.836113417E0,9.388491181E-1,9.284606624E0,2.544977224E-1,9.335423232E0
7.846143417E0,7.536077182E-1,1.158793597E1,3.220295548E-1,1.161687943E1
7.856172417E0,-1.982450227E-1,1.327725036E1,1.580970168E-1,1.327967142E1
7.866202417E0,-1.007405237E0,1.407030705E1,-1.029647899E-1,1.410670080E1
7.876232417E0,-1.197697754E0,1.438444287E1,-2.773088984E-1,1.443688251E1
7.886262417E0,-9.957498354E-1,1.402723295E1,4.280682260E-1,1.406904490E1
7.896292417E0,-7.183639182E-1,1.349231797E1,1.051225294E0,1.355226053E1
7.906322417E0,-3.600709917E-1,1.312475498E1,1.295933608E0,1.319349416E1
7.916352417E0,3.800036382E-1,1.290060664E1,1.095823177E0,1.295264000E1
7.926382417E0,1.155244483E0,1.259640993E1,8.819905007E-1,1.267998581E1
7.936412417E0,2.144691605E0,1.193627682E1,4.934084855E-1,1.213745683E1
7.946442417E0,2.551163578E0,1.077591676E1,1.024935043E-1,1.107426397E1
7.956472417E0,2.872710738E0,9.699921488E0,-4.639929342E-1,1.012700515E1
7.966502417E0,2.768603109E0,8.804976481E0,-7.042187726E-1,9.256819004E0
7.976532417E0,1.800145738E0,8.200556815E0,-6.297685146E-1,8.419398146E0
7.986562417E0,3.872749067E-1,8.174595178E0,-5.752572620E-1,8.203956917E0
7.996592417E0,-7.725298928E-1,8.880758734E0,-4.582907295E-1,8.926069041E0
8.006622417E0,-1.492807166E0,9.945465953E0,-5.663437665E-1,1.007281051E1
8.016652417E0,-1.470006972E0,1.061802439E1,-8.335849106E-1,1.075166156E1
8.026682417E0,-9.721688917E-1,1.044126774E1,-1.040551786E0,1.053792828E1
8.036712417E0,-4.263215530E-1,9.848267688E0,-1.102884275E0,9.918995929E0
8.046742417E0,1.023705666E-1,9.440536078E0,-6.481790578E-1,9.463315342E0
8.056772417E0,3.166315515E-1,9.303621184E0,-5.690742334E-2,9.309181550E0
8.066802417E0,4.160387492E-1,9.277639081E0,4.390031040E-1,9.297332891E0
8.076832417E0,3.913777518E-1,9.171730219E0,5.702157927E-1,9.197769175E0
8.086862417E0,2.451162303E-1,9.008799893E0,5.807477975E-1,9.030826401E0
8.096892417E0,-4.906179383E-3,8.761397182E0,6.569978285E-1,8.785997428E0
8.106922417E0,-3.193354502E-1,8.439031413E0,7.095268750E-1,8.474824759E0
8.116952417E0,-3.654351908E-1,7.979683506E0,5.016209364E-1,8.003781313E0
8.126982417E0,1.891873933E-1,7.064407731E0,7.389985961E-1,7.105474466E0
8.137012417E0,1.248935443E0,6.107792725E0,1.010754960E0,6.315583686E0
8.147041417E0,2.191321688E0,5.084929935E0,3.233276367E-2,5.537097488E0
8.157071417E0,3.356630690E-1,1.646550200E0,1.515736876E0,2.263019119E0
8.167101417E0,-1.619698470E0,-2.809558470E0,-1.781657134E0,3.700181627E0
8.177131292E0,1.811092018E0,-1.090806734E1,-1.472332176E1,1.841309835E1
8.187161292E0,2.787084696E0,-1.495337929E1,2.101955913E0,1.535544242E1
8.197191292E0,4.531198028E0,-1.595003018E1,7.875239371E0,1.835632353E1
8.207221292E0,5.797289786E0,-2.068029666E1,-1.681663899E0,2.154324099E1
8.217251292E0,8.209817635E0,-2.372762923E1,1.283069733E0,2.514056011E1
8.227281292E0,8.394680282E0,-2.567927545E1,2.275811176E0,2.711226957E1
8.237311292E0,4.162222641E0,-2.694992219E1,-9.727907431E-1,2.728678664E1
8.247341292E0,8.198445386E-1,-2.593172782E1,1.226742336E0,2.597367031E1
8.257371292E0,-1.007401290E0,-2.731934460E1,9.633252704E-1,2.735487968E1
8.267401292E0,-1.999725826E0,-2.675116598E1,2.475824397E-2,2.682581588E1
8.277431292E0,-1.186243497E0,-2.250408065E1,-1.586302829E-1,2.253588212E1
8.287461292E0,-2.991742507E-1,-1.871206073E1,-1.184497372E0,1.875190006E1
8.297491292E0,3.597364944E-1,-1.625212891E1,-1.584886633E0,1.633318616E1
8.307521292E0,5.943598232E-1,-1.447397309E1,-1.312490584E0,1.454550763E1
8.317551292E0,5.549864271E-1,-1.274808436E1,-2.805494070E-1,1.276324304E1
8.327581292E0,6.583774790E-2,-1.017890551E1,8.688705913E-1,1.021613372E1
8.337611292E0,-6.614063367E-1,-7.219856544E0,1.243544894E0,7.355962939E0
8.347641292E0,-1.705109626E0,-3.999244076E0,9.750196286E-1,4.455560043E0
8.357671292E0,-2.068488790E0,-3.691101658E-1,4.678942696E-1,2.152629377E0
8.367701292E0,-1.488440904E0,3.123224752E0,1.628297532E-1,3.463596787E0
8.377731292E0,-4.698547679E-1,6.340890223E0,1.410651740E-1,6.359838968E0
8.387761292E0,1.077318786E0,8.861674592E0,5.123206101E-2,8.927066543E0
8.397790292E0,2.603001191E0,1.061953297E1,-5.096897285E-2,1.093401544E1
8.407820292E0,3.630711030E0,1.207182698E1,-1.506792756E-1,1.260689388E1
8.417850292E0,4.166312476E0,1.314937526E1,-4.658348437E-1,1.380149382E1
8.427880292E0,4.073725909E0,1.406889436E1,-5.314686334E-1,1.465644876E1
8.437910292E0,4.232731583E0,1.447782056E1,-1.144627365E-1,1.508430995E1
8.447940292E0,4.331270615E0,1.420332653E1,-3.675676703E-2,1.484909899E1
8.457970292E0,4.103864797E0,1.308901680E1,-4.227221167E-1,1.372380271E1
8.468000292E0,3.159316691E0,1.168165163E1,-5.493470800E-1,1.211379581E1
8.478030292E0,2.048944179E0,1.046122078E1,-5.680605090E-1,1.067511148E1
8.488060292E0,1.600896894E0,9.998722394E0,-3.800175254E-1,1.013319958E1
8.498090292E0,1.580961397E0,1.003213338E1,5.261324644E-3,1.015594244E1
8.508120292E0,2.197112916E0,1.012409371E1,6.267618763E-1,1.037869978E1
8.518150292E0,2.607771057E0,9.839248942E0,1.114487489E0,1.023979355E1
8.528180292E0,2.229382237E0,9.619882461E0,1.315169778E0,9.962025661E0
8.538210292E0,1.683466011E0,9.595220075E0,1.498681133E0,9.856386317E0
8.548240292E0,1.095263452E0,9.624532167E0,1.714584893E0,9.837226378E0
8.558270292E0,4.005118335E-1,9.662454869E0,1.585391833E0,9.799842401E0
8.568300292E0,-2.051319464E-1,9.706162221E0,1.057009360E0,9.765701867E0
8.578330292E0,-4.566815758E-1,9.700005687E0,6.257479692E-1,9.730890448E0
8.588360292E0,-2.110066988E-1,9.733356451E0,3.276323934E-1,9.741154686E0
8.598390292E0,2.166120407E-1,9.838742573E0,1.522637979E-1,9.842304632E0
8.608420292E0,4.509262710E-1,9.906001925E0,2.630428068E-1,9.919747989E0
8.618450292E0,5.645039766E-1,9.683535835E0,6.999198997E-1,9.725195056E0
8.628480292E0,5.768952498E-1,9.308976064E0,1.564219065E0,9.457093886E0
8.638510292E0,4.628796609E-1,8.795732033E0,2.358567989E0,9.118223650E0
8.648540292E0,5.117627127E-1,8.090934970E0,2.614222291E0,8.518173980E0
8.658570292E0,6.677054691E-1,7.398971377E0,2.272449027E0,7.768824404E0
8.668600292E0,9.799023461E-1,6.705034348E0,1.918768494E0,7.042681787E0
8.678630292E0,1.515294534E0,6.404171129E0,9.871222687E-1,6.654617626E0
8.688659292E0,3.032128056E0,6.588630318E0,-4.063813709E0,8.313749568E0
8.698689292E0,2.822707103E0,4.188602647E0,-2.159957954E0,5.493403852E0
8.708719292E0,5.395452462E-1,-2.127182556E0,-6.735425252E0,7.083923208E0
8.718749292E0,-8.011376877E-1,-1.164203324E1,-1.303192692E1,1.749313805E1
8.728779292E0,9.220677553E-1,-1.672224973E1,5.609556742E0,1.766213384E1
8.738809292E0,4.589995875E0,-2.066794734E1,5.029785429E0,2.176076403E1
8.748839292E0,7.959676673E0,-2.592164488E1,8.124881566E-1,2.712836639E1
8.758869292E0,9.901706561E0,-3.003057454E1,5.591376579E-1,3.162580963E1
8.768899292E0,8.360989210E0,-3.118183517E1,-1.497149162E0,3.231802037E1
8.778929292E0,2.069790672E0,-2.799954184E1,1.071502268E-1,2.807614393E1
8.788959292E0,-2.228483520E0,-2.689540275E1,-5.928994811E-1,2.699408005E1
8.798989292E0,-4.394672852E0,-2.725941532E1,-1.024311730E0,2.763038341E1
8.809019292E0,-2.018830726E0,-2.300470990E1,8.118508101E-2,2.309326625E1
8.819049292E0,1.829587930E-1,-1.984958274E1,8.213080236E-1,1.986740938E1
8.829079292E0,2.599151677E-1,-1.821739213E1,1.090471805E0,1.825185088E1
8.839109292E0,1.919187739E-1,-1.636408789E1,8.783663233E-1,1.638876849E1
8.849139292E0,6.012114443E-1,-1.421293000E1,2.564542007E-1,1.422795147E1
8.859169292E0,7.292243904E-1,-1.151155028E1,9.828928314E-2,1.153504308E1
8.869199292E0,-1.018275064E-1,-7.940727017E0,3.332912922E-2,7.941449819E0
8.879229292E0,-1.084666836E0,-4.154779428E0,-3.114705797E-1,4.305311622E0
8.889259292E0,-1.716434221E0,-5.238058573E-1,-3.921750927E-1,1.836932311E0
8.899289292E0,-1.933512833E0,3.188642816E0,-1.847310476E-1,3.733636357E0
8.909319292E0,-1.484444040E0,6.925017126E0,-2.142653704E-2,7.082365099E0
8.919349292E0,-4.942057168E-1,1.012412880E1,3.575771177E-1,1.014248907E1
8.929379292E0,4.351981015E-1,1.276972023E1,5.609373943E-1,1.278944107E1
8.939409292E0,1.002693477E0,1.480083946E1,5.855471921E-1,1.484631633E1
8.949439292E0,1.239514116E0,1.552375763E1,4.842009115E-1,1.558068987E1
8.959468292E0,1.331024795E0,1.483384934E1,6.548425448E-1,1.490783458E1
8.969498292E0,1.608655857E0,1.366780578E1,7.338840365E-1,1.378170070E1
8.979528292E0,2.031114849E0,1.273894049E1,-5.460223532E-1,1.291139701E1
8.989558292E0,2.428829740E0,1.108816860E1,-1.691602997E0,1.147642006E1
8.999588292E0,2.387641076E0,9.716139910E0,-1.004033586E0,1.005546061E1
9.009618292E0,2.798894610E0,9.416567756E0,-2.974197936E-1,9.828225571E0
9.019648292E0,3.453426375E0,9.297368757E0,-2.500140774E-1,9.921175664E0
9.029678292E0,4.175583821E0,8.932629969E0,-3.446103323E-1,9.866414480E0
9.039708292E0,4.609388165E0,8.591792845E0,-2.407731195E-1,9.753119257E0
9.049738292E0,4.759692890E0,8.552963825E0,-1.014573594E-1,9.788675099E0
9.059768292E0,4.151659646E0,8.928545689E0,2.359047826E-1,9.849408967E0
9.069798292E0,2.649627474E0,9.343166488E0,3.899847623E-1,9.719432797E0
9.079828292E0,1.183815587E0,9.567513628E0,3.751550174E-1,9.647770605E0
9.089858292E0,3.639150975E-1,9.501738884E0,5.830738199E-1,9.526565546E0
9.099888292E0,-1.304439991E-1,9.286775356E0,6.342907512E-1,9.309325266E0
9.109918292E0,-4.592330814E-1,8.952897003E0,4.700062108E-1,8.976979760E0
9.119948292E0,-5.560865808E-1,8.685750584E0,2.920684401E-1,8.708432664E0
9.129978292E0,-5.426688288E-1,8.803846799E0,2.235133449E-1,8.823387452E0
9.140008292E0,-3.476488379E-1,9.246436000E0,1.900122710E-1,9.254919939E0
9.150038292E0,-3.778816471E-1,9.444173630E0,2.076100512E-1,9.454010368E0
9.160068292E0,-3.307559395E-1,9.437675035E0,2.657489165E-1,9.447207632E0
9.170098292E0,-4.685221144E-1,9.235911596E0,4.272279811E-1,9.257650876E0
9.180128458E0,-8.923346637E-1,8.861350656E0,7.320082498E-1,8.936197887E0
9.190158458E0,-1.144600796E0,8.646339181E0,4.378523719E-1,8.732754830E0
9.200188458E0,-1.064932191E0,8.389807797E0,-1.375873232E-1,8.458243654E0
9.210218458E0,-8.013109115E-1,8.197019835E0,7.048865247E-1,8.266202173E0
9.220248458E0,-7.032209453E-1,7.785861171E0,7.340278780E-1,7.851939302E0
9.230277458E0,-1.226835306E0,6.051026201E0,1.825418500E-1,6.176840979E0
9.240307458E0,-2.066782280E0,1.352642829E0,2.450171639E0,3.479162640E0
9.250337458E0,-2.438034719E0,-3.883553406E0,1.434324338E0,4.804506911E0
9.260367458E0,-2.433661733E0,-1.081282789E1,1.890605965E0,1.124341351E1
9.270397458E0,-5.056604853E-1,-1.796294820E1,3.800243447E0,1.836749985E1
9.280427458E0,3.728597513E0,-2.274808262E1,2.996945944E0,2.324563157E1
9.290457458E0,1.314080208E1,-2.791270133E1,-4.816035783E-1,3.085500797E1
9.300487458E0,1.958533069E1,-2.952626388E1,-4.320798252E0,3.569390332E1
9.310517458E0,1.291158538E1,-2.972479790E1,-7.250719317E0,3.320911890E1
9.320547458E0,4.343978369E0,-2.971918224E1,-6.293024331E0,3.068716501E1
9.330577458E0,-2.073675270E0,-2.826028088E1,-4.612049818E0,2.870913806E1
9.340607458E0,-3.020615473E0,-2.515536961E1,-7.443622470E-2,2.533618517E1
9.350637458E0,-1.011146724E0,-2.187834203E1,3.771085721E0,2.222398154E1
9.360667458E0,-1.561981335E-1,-1.936203956E1,4.736965055E0,1.993368535E1
9.370697458E0,1.788733435E-1,-1.680938962E1,4.675487430E0,1.744843138E1
9.380727458E0,-5.886655122E-1,-1.338223478E1,4.136590494E0,1.401934791E1
9.390757458E0,-1.140157643E0,-9.846849153E0,2.788378100E0,1.029735161E1
9.400787458E0,-9.780775031E-1,-6.934189069E0,9.322695386E-1,7.064611818E0
9.410817458E0,-4.748880512E-1,-4.092912962E0,-3.145381021E-1,4.132358818E0
9.420847458E0,4.222031763E-1,-8.660626853E-1,-3.390180187E-1,1.021397726E0
9.430877458E0,1.223259149E0,2.334975643E0,6.470294952E-1,2.714244161E0
9.440907458E0,1.585439341E0,5.220861912E0,1.337907261E0,5.617918907E0
9.450937458E0,1.501572581E0,7.735019631E0,1.675322009E0,8.055554155E0
9.460967458E0,1.174278632E0,1.013611325E1,1.723945116E0,1.034851240E1
9.470996458E0,1.024507465E0,1.223580395E1,1.659598846E0,1.239026966E1
9.481026458E0,1.262060249E0,1.384109269E1,1.114236644E0,1.394310461E1
9.491056458E0,5.560672849E-1,1.512840984E1,1.050995992E-1,1.513899075E1
9.501086458E0,-2.360061222E-1,1.524409817E1,-7.739316165E-1,1.526555594E1
9.511116458E0,7.741589271E-1,1.392835771E1,-1.905195937E0,1.407935517E1
9.521146458E0,2.231766001E0,1.177738341E1,-2.623520533E0,1.227071308E1
9.531176458E0,2.942378850E0,1.000779961E1,-8.762988210E-1,1.046812046E1
9.541206458E0,3.105191354E0,8.523646470E0,1.336498082E0,9.169568671E0
9.551236458E0,3.084517938E0,7.738606898E0,1.709206624E0,8.504215127E0
9.561266458E0,2.350001233E0,7.523231726E0,1.507813314E0,8.024650920E0
9.571296458E0,5.013032133E-1,8.116504844E0,7.035843498E-1,8.162351790E0
9.581326458E0,-9.407171573E-1,9.122442868E0,-4.959456289E-1,9.184218787E0
9.591356458E0,-1.766929606E0,9.612113850E0,-1.553701093E0,9.895896118E0
9.601386458E0,-2.173092554E0,9.598550649E0,-2.031696355E0,1.004899477E1
9.611416458E0,-1.949469885E0,9.579028550E0,-2.050379378E0,9.988106747E0
9.621446458E0,-1.270897000E0,9.453007019E0,-1.827571810E0,9.711567310E0
9.631476458E0,-1.705018848E-1,9.224603666E0,-1.556173296E0,9.356498224E0
9.641506458E0,1.002757870E0,8.749013949E0,-1.207369341E0,8.888673082E0
9.651536458E0,1.308504537E0,8.456145043E0,-6.142020571E-1,8.578800457E0
9.661566458E0,6.984472784E-1,8.440739384E0,1.114590035E-1,8.470320718E0
9.671596458E0,-4.012037784E-2,8.708979233E0,5.040434378E-1,8.723645380E0
9.681626458E0,-8.312018779E-1,9.108793713E0,5.220499750E-1,9.161525836E0
9.691656458E0,-1.665553505E0,9.501717834E0,1.378977738E-1,9.647576176E0
9.701686458E0,-2.378433319E0,9.786512904E0,-3.559516648E-1,1.007767242E1
9.711716458E0,-2.740684409E0,9.592494687E0,-7.269978438E-1,1.000279117E1
9.721746458E0,-2.403426804E0,9.148448945E0,-1.331073035E0,9.552085318E0
9.731775458E0,-1.943380594E0,8.680712623E0,-2.880218562E0,9.350249127E0
9.741805458E0,-5.805327661E-1,8.118351395E0,-6.205348256E0,1.023479334E1
9.751835458E0,2.162854226E0,6.481338004E0,-5.161117986E0,8.562874493E0
9.761865458E0,3.687774008E0,2.647485346E0,2.565588476E-1,4.546941635E0
9.771895458E0,2.956914151E0,-4.039660615E0,3.907524651E-1,5.021442689E0
9.781925458E0,3.147398019E0,-1.276390108E1,-1.254133617E0,1.320591293E1
9.791955458E0,3.806930615E0,-2.412150002E1,2.890285129E0,2.459051102E1
9.801985458E0,3.755219302E0,-3.115503387E1,5.106980370E0,3.179338069E1
9.812015458E0,7.918969527E0,-3.450950197E1,4.838584401E0,3.573552439E1
9.822045458E0,1.164823479E1,-3.809624486E1,2.106954698E0,3.989291296E1
9.832075458E0,9.687277468E0,-3.316019848E1,9.779333693E-1,3.456007034E1
9.842105458E0,7.645621551E0,-2.671888233E1,-6.502819505E0,2.854191415E1
9.852135458E0,3.971746960E0,-2.381989128E1,-1.020996475E1,2.621841671E1
9.862165458E0,3.671845315E0,-2.385273626E1,-5.151114569E0,2.467730651E1
9.872195458E0,4.635446282E0,-2.230461809E1,-1.439930649E0,2.282666753E1
9.882225458E0,3.954518723E0,-2.014835908E1,-1.533443415E0,2.058995000E1
9.892255458E0,2.195747591E0,-1.598752019E1,-2.422822457E0,1.631846126E1
9.902285458E0,-8.242410600E-2,-1.062623973E1,-3.329266598E0,1.113587808E1
9.912315458E0,-1.511215224E0,-5.210694188E0,-3.939812391E0,6.705015068E0
9.922345458E0,-2.087232040E0,-5.481916702E-1,-2.864508263E0,3.586427092E0
9.932375458E0,-2.174529215E0,3.056940715E0,-1.160305687E0,3.926801896E0
9.942405458E0,-1.803360537E0,6.241334944E0,8.889644748E-1,6.557181479E0
9.952435458E0,-1.273537164E0,9.379090612E0,2.381154029E0,9.760078490E0
9.962465458E0,-8.887525132E-1,1.221386988E1,2.679924529E0,1.253596801E1
9.972494458E0,-1.484784932E-1,1.404563180E1,2.907086518E0,1.434409184E1
9.982524458E0,3.365182243E-1,1.485048934E1,2.993255181E0,1.515288272E1
9.992554458E0,5.195965929E-1,1.475537385E1,2.825226669E0,1.503239648E1
1.000258446E1,1.310933470E0,1.375763304E1,2.229397148E0,1.399861511E1
1.001261446E1,1.599389628E0,1.256996414E1,1.442645950E0,1.275316718E1
1.002264446E1,6.751603036E-1,1.171884460E1,2.632450839E-1,1.174122899E1
1.003267446E1,-2.347670241E-1,1.102977596E1,-2.819655295E-1,1.103587685E1
1.004270446E1,-2.302089733E-1,1.052847311E1,9.199073553E-2,1.053139139E1
1.005273446E1,3.080722511E-2,1.042636319E1,4.439182004E-1,1.043585463E1
1.006276446E1,-3.368069306E-2,1.043373419E1,1.010757884E0,1.048263206E1
1.007279446E1,-2.446841211E-1,1.032703186E1,1.300305571E0,1.041144812E1
1.008282446E1,-4.094445518E-1,1.033160204E1,1.002874083E0,1.038823383E1
1.009285446E1,-1.537441302E-1,1.061682688E1,7.200447734E-1,1.064232657E1
1.010288446E1,2.294304896E-1,1.062615436E1,3.181651666E-1,1.063339193E1
1.011291446E1,4.875724892E-1,1.027837367E1,9.879437294E-3,1.028993634E1
1.012294446E1,5.407981583E-1,9.822138820E0,-6.176647782E-2,9.837209398E0
1.013297446E1,4.135085128E-1,9.306078769E0,4.713204822E-2,9.315380442E0
1.014300446E1,1.050540731E-1,8.767591138E0,1.263805131E-1,8.769131243E0
1.015303446E1,-1.746308962E-1,8.335345661E0,2.595193112E-1,8.341212952E0
1.016306446E1,-7.040149972E-1,8.136132778E0,3.515532430E-1,8.174098322E0
1.017309421E1,-1.037397725E0,7.899766102E0,-1.771706343E-3,7.967590705E0
1.018312421E1,-3.883285750E-1,7.474584062E0,-9.532212818E-1,7.545120064E0
1.019315421E1,9.087059905E-1,7.194915830E0,-1.538127619E0,7.413393079E0
1.020318421E1,1.638929816E0,7.386202812E0,-1.361688033E0,7.687410307E0
1.021321421E1,1.778164446E0,7.755763798E0,-1.640290025E0,8.124302571E0
1.022324421E1,1.765327177E0,7.682754294E0,-2.619862515E0,8.306911170E0
1.023327321E1,1.440642401E0,6.404275795E0,-3.692274025E0,7.531473060E0
1.024330321E1,7.187053956E-1,3.847538651E0,-6.223710852E0,7.352187965E0
1.025333321E1,3.987969182E-1,3.349361140E-1,-2.007539460E0,2.073990325E0
1.026336321E1,-1.671460070E0,-5.632602373E0,2.444574830E0,6.363641595E0
1.027339321E1,-4.971398057E0,-1.414296806E1,-9.718313320E0,1.786572019E1
1.028342321E1,-3.603960603E0,-1.750716476E1,-6.360566103E0,1.897224686E1
1.029345321E1,2.690149555E0,-1.619906075E1,5.621238309E0,1.735640499E1
1.030348321E1,3.143117564E0,-1.969231369E1,6.268789376E0,2.090368691E1
1.031351321E1,1.545493064E0,-2.293344637E1,8.223629344E0,2.441228361E1
1.032354321E1,-2.656004155E-1,-2.811197444E1,7.473924496E0,2.908974386E1
1.033357321E1,8.750764605E-1,-3.146601452E1,3.207612938E0,3.164118534E1
1.034360321E1,3.749072708E0,-2.813048907E1,-1.287327676E0,2.840839970E1
1.035363321E1,5.732301493E0,-2.202975685E1,-3.360393666E0,2.301003505E1
1.036366321E1,5.174616283E0,-2.061840973E1,-2.325028506E0,2.138460267E1
1.037369321E1,4.015445249E0,-2.109155707E1,-9.188386305E-1,2.149004059E1
1.038372321E1,3.498203183E0,-1.921175676E1,-9.329103935E-1,1.954991931E1
1.039375321E1,3.676309080E0,-1.446092912E1,4.431310920E-1,1.492749426E1
1.040378321E1,3.721157516E0,-9.236646007E0,1.253912154E0,1.003667965E1
1.041381321E1,3.148772699E0,-5.003118618E0,1.831889395E0,6.188843524E0
1.042384321E1,2.695446548E0,-1.194758066E0,2.538200301E0,3.890416391E0
1.043387321E1,2.684773625E0,2.493586630E0,3.482412193E0,5.055015171E0
1.044390321E1,3.034775675E0,5.656593499E0,4.023969612E0,7.576228933E0
1.045393321E1,3.504510867E0,7.826927336E0,4.402700787E0,9.639821687E0
1.046396221E1,4.000418197E0,9.616603342E0,4.617484220E0,1.139313680E1
1.047399221E1,4.541161684E0,1.114153964E1,4.654115857E0,1.290026548E1
1.048402221E1,5.019663899E0,1.279900542E1,3.436301050E0,1.417108784E1
1.049405221E1,5.417522485E0,1.465469883E1,7.931771421E-1,1.564413238E1
1.050408221E1,5.885063510E0,1.601143296E1,-3.140102155E0,1.734532212E1
1.051411221E1,4.311207064E0,1.476585207E1,-5.125718358E0,1.621387931E1
1.052414221E1,9.580981520E-1,1.165088592E1,-4.730059494E0,1.261089044E1
1.053417221E1,-1.928612720E0,9.830593894E0,-4.243925493E0,1.087984499E1
1.054420221E1,-4.498507707E0,8.996126053E0,-3.072439345E0,1.051697386E1
1.055423221E1,-5.952004774E0,8.488809344E0,-1.914533941E0,1.054284995E1
1.056426221E1,-5.805756555E0,8.155336788E0,-3.661911992E-1,1.001750584E1
1.057429221E1,-4.036032126E0,7.977224168E0,1.277375715E0,9.030910777E0
1.058432221E1,-2.324532516E0,8.024487212E0,2.748279065E0,8.794821445E0
1.059435221E1,-1.266160901E0,8.069958669E0,3.702680315E0,8.968680943E0
1.060438221E1,-9.429133715E-1,8.000920009E0,4.092611246E0,9.036220085E0
1.061441221E1,-1.005852070E0,7.945697735E0,4.041595459E0,8.971083811E0
1.062444221E1,-1.223430326E0,7.967790270E0,4.149181888E0,9.066320857E0
1.063447221E1,-1.566258720E0,8.133359444E0,4.073354026E0,9.230217508E0
1.064450221E1,-1.702889292E0,8.601486359E0,4.085482321E0,9.673498091E0
1.065453221E1,-1.972860648E0,9.185003983E0,3.855144124E0,1.015473355E1
1.066456221E1,-2.304855320E0,9.753518820E0,3.043026681E0,1.047394380E1
1.067459221E1,-2.704978094E0,1.007729026E1,2.156568907E0,1.065455184E1
1.068462221E1,-2.707733302E0,1.031651739E1,1.297234029E0,1.074454126E1
1.069465221E1,-2.356316518E0,1.039985776E1,7.874854624E-1,1.069249280E1
1.070468221E1,-1.871085035E0,1.020614184E1,1.026400355E0,1.042687816E1
1.071471221E1,-1.364147226E0,9.772422869E0,1.441337489E0,9.971890499E0
1.072474121E1,-5.014010811E-1,9.125828991E0,1.792405486E0,9.313692890E0
1.073477121E1,4.782914230E-1,8.326794693E0,1.963738260E0,8.568578674E0
1.074480121E1,1.558891082E0,7.553539014E0,2.542544782E-1,7.716912491E0
1.075483121E1,3.297833721E0,6.418790338E0,-4.947311622E0,8.749426778E0
1.076486121E1,5.815537777E0,3.131547679E0,-6.703373154E0,9.410753538E0
1.077489121E1,6.043984399E0,-3.629582518E0,-7.559489726E0,1.033680326E1
1.078492121E1,5.753450872E0,-1.347225968E1,-1.220769522E1,1.906913214E1
1.079495121E1,4.481440854E0,-2.417896178E1,9.619967830E-1,2.460957014E1
1.080498121E1,2.814915981E0,-3.170750921E1,-1.297864358E0,3.185866199E1
1.081501121E1,4.819512245E0,-3.473992670E1,-2.168013078E0,3.513958574E1
1.082504121E1,9.630745418E0,-3.129662302E1,1.191249883E0,3.276658277E1
1.083507121E1,1.431384358E1,-2.599458305E1,8.896807587E-1,2.968831416E1
1.084510121E1,1.301603887E1,-2.697698778E1,1.463560417E0,2.998861695E1
1.085513121E1,9.576252292E0,-2.771357090E1,-2.253585910E0,2.940791168E1
1.086516121E1,6.804739316E0,-2.468839459E1,-9.375080591E0,2.727111000E1
1.087519121E1,2.004951483E0,-2.106196548E1,-1.525818061E1,2.608521220E1
1.088522121E1,-1.613460514E0,-1.654530714E1,-1.043528955E1,1.962767717E1
1.089525121E1,-3.344048652E0,-1.266392305E1,-4.562787026E0,1.386999040E1
1.090528121E1,-4.036474468E0,-9.459667583E0,-3.516754060E0,1.086949843E1
1.091531121E1,-4.244989978E0,-5.390559804E0,-4.561800016E0,8.239423178E0
1.092534121E1,-2.043103249E0,-1.160706806E0,-4.164650112E0,4.781822010E0
1.093537121E1,4.504753411E-1,3.321809644E0,-1.544097626E-1,3.355769617E0
1.094540121E1,1.862248431E0,6.385311520E0,2.143936583E0,6.988321436E0
1.095543021E1,2.994979525E0,8.277167619E0,2.666358404E0,9.197329683E0
1.096546021E1,2.870510430E0,1.025084498E1,3.678713747E0,1.126288541E1
1.097549021E1,2.479655054E0,1.167475893E1,4.526859394E0,1.276484004E1
1.098552021E1,1.839396342E0,1.249649154E1,4.950956776E0,1.356678490E1
1.099555021E1,7.874477479E-1,1.290678832E1,5.135623541E0,1.391329896E1
1.100558021E1,-4.024477735E-2,1.276654636E1,4.835689445E0,1.365174780E1
1.101561021E1,-4.998074225E-1,1.261643430E1,4.165192734E0,1.329560275E1
1.102564021E1,-7.028924780E-1,1.231527229E1,3.109958589E0,1.272131408E1
1.103567021E1,-1.141449293E0,1.207011608E1,1.918286099E0,1.227478840E1
1.104570021E1,-1.860242397E0,1.176096092E1,9.820322675E-1,1.194759771E1
1.105573021E1,-2.709724279E0,1.135974838E1,3.469726074E-1,1.168361583E1
1.106576021E1,-3.087868393E0,1.082389316E1,-2.101132443E-1,1.125769701E1
1.107579021E1,-3.393749108E0,1.025175013E1,6.127121866E-2,1.079905865E1
1.108582021E1,-3.828106014E0,9.929133511E0,5.479215288E-1,1.065562321E1
1.109585021E1,-4.114696180E0,9.673456405E0,9.951434791E-1,1.055920423E1
1.110588021E1,-4.386540252E0,9.183409447E0,1.604054976E0,1.030289944E1
1.111591021E1,-4.221792320E0,8.755678605E0,2.080739876E0,9.940569232E0
1.112594021E1,-3.302784559E0,8.635134746E0,1.896716305E0,9.437768310E0
1.113597021E1,-1.937745048E0,8.886355689E0,1.231817719E0,9.178210512E0
1.114600021E1,-6.294333230E-1,9.139203912E0,-2.354778993E-1,9.163879326E0
1.115603021E1,4.034951560E-1,9.406544459E0,-1.382710966E0,9.516184982E0
1.116606021E1,7.503712843E-1,9.827286708E0,-1.695527648E0,1.000067173E1
1.117608954E1,7.728851111E-1,1.001757382E1,-1.606932975E0,1.017503662E1
1.118611954E1,9.732079419E-1,9.833063757E0,-1.369485734E0,9.975558517E0
1.119614954E1,1.185327969E0,9.536680675E0,-5.169301164E-1,9.623954356E0
1.120617854E1,1.335844802E0,9.005414940E0,3.498447232E-1,9.110673461E0
1.121620854E1,1.459070194E0,8.119182869E0,3.986292128E-1,8.258869265E0
1.122623854E1,1.688879948E0,7.304953997E0,-6.421365452E-1,7.525091874E0
1.123626854E1,2.328114082E0,6.688113676E0,-3.656154020E0,7.969845791E0
1.124629854E1,2.722599848E0,5.878306468E0,-3.554093210E0,7.389087589E0
1.125632854E1,2.246006164E-1,3.749721749E0,2.235438491E0,4.371274858E0
1.126635854E1,-2.077527123E0,-5.831895947E-2,2.228759801E0,3.047439959E0
1.127638854E1,-3.897538776E0,-6.418031954E0,-7.469492891E0,1.059128258E1
1.128641854E1,-4.901328533E0,-1.109921399E1,-2.699572928E0,1.242993429E1
1.129644854E1,-3.232116280E0,-1.428656281E1,-4.121303241E-1,1.465340589E1
1.130647854E1,-1.099192050E0,-2.148983432E1,-3.379562008E0,2.178170428E1
1.131650854E1,2.238869637E0,-2.719741378E1,3.655086318E0,2.753309844E1
1.132653854E1,4.706015451E0,-3.285248759E1,3.159680972E0,3.333790794E1
1.133656854E1,7.309372737E0,-3.599068823E1,2.813504755E-1,3.672649898E1
1.134659854E1,1.087915052E1,-3.133585550E1,-2.856574177E0,3.329341935E1
1.135662854E1,1.173384739E1,-2.609006574E1,-5.602183403E0,2.915062887E1
1.136665854E1,8.958865256E0,-2.457546381E1,-8.415626178E0,2.747794483E1
1.137668854E1,4.280800374E0,-2.236089403E1,-1.068011130E1,2.514755676E1
1.138671854E1,8.039553148E-1,-1.950784806E1,-9.080714214E0,2.153280871E1
1.139674854E1,-2.171847097E0,-1.656593728E1,-7.534572401E0,1.832803806E1
1.140677854E1,-3.785935895E0,-1.249944555E1,-6.346290711E0,1.452049777E1
1.141680854E1,-3.729083125E0,-7.828104381E0,-3.866946144E0,9.494132484E0
1.142683754E1,-3.041956640E0,-3.581269314E0,-8.626829946E-1,4.777364551E0
1.143686754E1,-2.274746983E0,5.314639556E-1,2.279992082E0,3.264244425E0
1.144689754E1,-5.156191707E-1,4.044263543E0,4.819615449E0,6.312735050E0
1.145692754E1,1.240029548E0,6.545721111E0,6.258527513E0,9.140749683E0
1.146695754E1,1.646127154E0,8.796175836E0,6.905952280E0,1.130374366E1
1.147698754E1,1.363259034E0,1.084344625E1,6.753938706E0,1.284735342E1
1.148701754E1,9.902595922E-1,1.255031983E1,5.554566017E0,1.376024512E1
1.149704754E1,5.897589415E-1,1.366910620E1,4.203500767E0,1.431299055E1
1.150707754E1,-3.833142221E-3,1.441849237E1,2.855270247E0,1.469848649E1
1.151710754E1,-6.086701526E-1,1.457390903E1,1.799860686E0,1.469723791E1
1.152713754E1,-9.509263958E-1,1.437883071E1,7.748092836E-1,1.443105550E1
1.153716754E1,-1.103670433E0,1.363605306E1,-2.197178259E-1,1.368240868E1
1.154719754E1,-1.406396575E0,1.272207244E1,-1.220282916E0,1.285761132E1
1.155722754E1,-1.725237204E0,1.186516065E1,-1.847643548E0,1.213145775E1
1.156725754E1,-1.956097704E0,1.060209073E1,-1.062016330E0,1.083321396E1
1.157728754E1,-2.128648599E0,9.622366358E0,1.205672479E0,9.928480514E0
1.158731754E1,-2.412645378E0,8.905159750E0,3.283385836E0,9.793025602E0
1.159734754E1,-2.582696443E0,8.226561137E0,4.768438278E0,9.853153438E0
1.160737754E1,-2.355591610E0,7.919365969E0,5.158653384E0,9.740476062E0
1.161740754E1,-2.290245759E0,7.705034525E0,4.579746290E0,9.251316595E0
1.162743754E1,-2.079483456E0,7.833658066E0,3.429604819E0,8.800718116E0
1.163746754E1,-1.373459355E0,8.485879304E0,2.261048126E0,8.888693762E0
1.164749754E1,-5.270873878E-1,9.529359376E0,1.680562284E0,9.690758527E0
1.165752754E1,3.023441724E-1,1.003076514E1,1.341727831E0,1.012461825E1
1.166755754E1,7.809382620E-1,1.001715048E1,9.216240978E-1,1.008972543E1
1.167758654E1,1.094140275E0,9.646396660E0,7.095982111E-1,9.734148195E0
1.168761654E1,1.630360137E0,9.162928405E0,5.570583880E-1,9.323499621E0
1.169764654E1,2.094337868E0,8.740286395E0,-8.357308388E-2,8.988094450E0
1.170767654E1,2.332641873E0,8.444045985E0,-1.526416816E0,8.892304482E0
1.171770654E1,2.508563396E0,8.037493173E0,-2.847839606E0,8.888440653E0
1.172773654E1,2.522633843E0,7.034257733E0,-4.892291662E0,8.931908030E0
1.173776654E1,2.870811270E0,5.560161218E0,-4.856330116E0,7.920914866E0
1.174779654E1,3.372785670E0,3.448950332E0,-2.734922855E0,5.545335390E0
1.175782654E1,2.695397139E0,1.111935765E-1,-4.483095324E-1,2.734686670E0
1.176785654E1,-9.244535655E-2,-5.550215689E0,3.131041310E0,6.373135808E0
1.177788654E1,-2.659353440E0,-1.212479222E1,-1.111217726E0,1.246264627E1
1.178791654E1,-1.576069763E0,-1.824488223E1,-1.436895242E1,2.327716729E1
1.179794654E1,3.316412079E0,-1.905507711E1,-3.426057898E0,1.964261758E1
1.180797654E1,2.495261858E0,-2.293120104E1,2.142456068E0,2.316584622E1
1.181800654E1,2.057760903E-1,-3.061397931E1,1.833561991E0,3.066952922E1
1.182803654E1,1.624358993E0,-3.200009920E1,3.504791534E0,3.223241311E1
1.183806654E1,6.645762293E0,-2.950299898E1,1.710201820E0,3.029055786E1
1.184809654E1,7.180656810E0,-2.757238403E1,5.902004063E-1,2.849818467E1
1.185812654E1,4.748219191E0,-2.721501156E1,7.990278661E-1,2.763767149E1
1.186815654E1,3.836371053E0,-2.460533139E1,1.385744794E-1,2.490299738E1
1.187818654E1,4.789671857E0,-1.937062093E1,-2.693519890E0,2.013496861E1
1.188821654E1,5.379193987E0,-1.473314508E1,-2.967873588E0,1.596275557E1
1.189824654E1,5.120588011E0,-1.143869748E1,-3.128132905E0,1.291702122E1
1.190827554E1,4.806428223E0,-7.148514665E0,-3.347895827E0,9.241829941E0
1.191830554E1,4.202368746E0,-2.299546194E0,-2.933674393E0,5.617317974E0
1.192833554E1,2.965521837E0,1.800126150E0,-2.207085342E0,4.111690605E0
1.193836554E1,1.762651929E0,5.348606032E0,-1.530025717E0,5.835709640E0
1.194839554E1,1.136418276E0,8.697049159E0,-1.046331101E0,8.833171534E0
1.195842554E1,3.905291746E-1,1.169529669E1,-7.464180549E-1,1.172559669E1
1.196845554E1,-8.401970152E-1,1.467655222E1,-7.123942765E-1,1.471783346E1
1.197848554E1,-1.915863305E0,1.667081996E1,-5.348670352E-1,1.678906945E1
1.198851554E1,-2.730452366E0,1.727540218E1,-1.279803844E-1,1.749031931E1
1.199854554E1,-3.178112273E0,1.613956417E1,3.512995470E-1,1.645324711E1
1.200857554E1,-3.025459306E0,1.476627774E1,5.347383964E-1,1.508251662E1
1.201860554E1,-2.572193089E0,1.374157659E1,9.037269402E-1,1.400941922E1
1.202863554E1,-2.541617121E0,1.261489882E1,1.237783048E0,1.292778391E1
1.203866554E1,-2.216515147E0,1.138061592E1,1.945167503E0,1.175648905E1
1.204869554E1,-1.601106517E0,1.032716634E1,2.484670211E0,1.074185705E1
1.205872554E1,-8.705866029E-1,9.926142075E0,2.845732269E0,1.036264492E1
1.206875554E1,-5.106149042E-1,9.786300650E0,3.183002007E0,1.030358723E1
1.207878554E1,-2.016117399E-1,9.758980120E0,3.634159133E0,1.041563502E1
1.208881554E1,1.422682020E-1,9.798994371E0,3.722438056E0,1.048318062E1
1.209884554E1,4.866613102E-1,9.778388198E0,3.401624722E0,1.036459192E1
1.210887554E1,8.345190033E-1,9.772686578E0,3.160625882E0,1.030492023E1
1.211890554E1,1.098392005E0,9.812191536E0,2.659048215E0,1.022526797E1
1.212893554E1,1.114626361E0,9.964800357E0,1.944010924E0,1.021365833E1
1.213896454E1,1.306659448E0,1.006309790E1,1.516934971E0,1.026033089E1
1.214899454E1,1.336579650E0,1.007244643E1,1.177755532E0,1.022876973E1
1.215902454E1,1.277964091E0,9.660641647E0,1.103985890E0,9.807138935E0
1.216905454E1,1.133710576E0,9.132442777E0,1.446857260E0,9.315589443E0
1.217908446E1,8.799430250E-1,8.758209865E0,1.598397210E0,8.946251361E0
1.218911446E1,3.906792288E-1,8.610533171E0,1.644584366E0,8.774882876E0
1.219914446E1,8.131722808E-2,8.369195777E0,1.748692871E0,8.550320298E0
1.220917446E1,-3.632661662E-1,8.051676764E0,1.588838035E0,8.214978231E0
1.221920446E1,-2.290556100E-1,7.529644952E0,4.857809023E-1,7.548774912E0
1.222923446E1,6.172547422E-1,6.926628619E0,-1.297288992E0,7.074047368E0
1.223926446E1,1.494530341E0,5.913769830E0,-3.805554765E0,7.189474363E0
1.224929446E1,2.130349700E0,3.640808002E0,-6.988415562E0,8.162831912E0
1.225932446E1,2.833201101E0,-1.895655620E-1,-7.217726988E0,7.756194070E0
1.226935446E1,5.020601792E0,-5.783007377E0,-8.242557950E0,1.125119453E1
1.227938446E1,5.387108193E0,-1.310048669E1,-1.190196185E1,1.850136163E1
1.228941446E1,5.465251552E0,-1.830321873E1,-8.043687129E0,2.072625613E1
1.229944446E1,4.379022487E0,-2.226752803E1,-5.025317864E-1,2.269958548E1
1.230947446E1,2.602340748E0,-2.649590929E1,9.129013677E-1,2.663904606E1
1.231950446E1,2.763024573E0,-3.139967201E1,7.636488493E-1,3.153025320E1
1.232953446E1,3.447112552E0,-3.460549921E1,2.098799586E-1,3.477739511E1
1.233956446E1,5.427335867E0,-3.594322755E1,-6.406431663E-1,3.635632001E1
1.234959446E1,6.492509694E0,-3.116336030E1,-8.234914470E-1,3.184314441E1
1.235962446E1,5.816394979E0,-2.555379187E1,-4.684217615E-1,2.621156516E1
1.236965346E1,5.989651487E0,-2.211734581E1,-1.630121717E0,2.297194391E1
1.237968346E1,6.107530185E0,-1.776020418E1,-2.566072809E0,1.895551390E1
1.238971346E1,5.894620199E0,-1.329767820E1,-2.182656991E0,1.470845961E1
1.239974346E1,4.957873448E0,-9.411292398E0,-3.132614211E0,1.108901283E1
1.240977346E1,3.925332639E0,-5.415505196E0,-4.136142597E0,7.864070729E0
1.241980346E1,2.894048397E0,-1.213042894E0,-4.104488111E0,5.166605446E0
1.242983346E1,2.137561656E0,2.311985561E0,-3.290176792E0,4.554087218E0
1.243986346E1,1.379363873E0,5.341464243E0,-2.339508405E0,5.992260386E0
1.244989346E1,1.070179190E0,7.719931476E0,-1.419054773E0,7.921890049E0
1.245992346E1,9.526555637E-1,9.623484930E0,-1.006465954E0,9.722756222E0
1.246995346E1,5.490905334E-1,1.149839755E1,-1.088004207E0,1.156280242E1
1.247998346E1,2.144972125E-1,1.314779418E1,-7.623974720E-1,1.317162673E1
1.249001346E1,-2.881177506E-1,1.400612334E1,-5.757203615E-1,1.402091141E1
1.250004346E1,-8.057030475E-1,1.403271179E1,-6.994041753E-1,1.407321299E1
1.251007346E1,-1.789627474E0,1.347832325E1,-4.940206889E-1,1.360558784E1
1.252010346E1,-2.356692056E0,1.270251701E1,-1.237095416E-1,1.291987771E1
1.253013346E1,-2.287895471E0,1.224348485E1,2.430219769E-1,1.245778659E1
1.254016346E1,-2.006993623E0,1.169315895E1,6.397964895E-1,1.188138583E1
1.255019346E1,-1.120269655E0,1.117309005E1,9.554326256E-1,1.126968486E1
1.256022346E1,3.711992298E-1,1.083119867E1,1.836198792E0,1.099200980E1
1.257025346E1,1.819539783E0,1.043619704E1,2.439498131E0,1.087088243E1
1.258028346E1,2.265912279E0,9.603899682E0,3.538129141E0,1.048272891E1
1.259031346E1,1.845677714E0,9.240814487E0,4.245866768E0,1.033569365E1
1.260034346E1,1.140402715E0,9.477385815E0,3.298417858E0,1.009955052E1
1.261037246E1,9.737178922E-1,9.799599558E0,1.806069260E0,1.001210089E1
1.262040246E1,1.123683406E0,1.017686600E1,8.857204396E-1,1.027695318E1
1.263043246E1,1.114975878E0,1.028572011E1,3.484835279E-1,1.035184284E1
1.264046246E1,9.007964619E-1,1.004565682E1,-5.664969635E-1,1.010185993E1
1.265049246E1,4.712749835E-1,9.807511425E0,-1.198635355E0,9.891719121E0
1.266052246E1,-3.537777431E-2,9.534514282E0,-1.591703317E0,9.666526451E0
1.267055246E1,-5.140901238E-1,9.315109209E0,-2.079296783E0,9.558191426E0
1.268058246E1,-9.945374883E-1,9.216460249E0,-2.346330936E0,9.562296439E0
1.269061246E1,-1.220965140E0,9.122379718E0,-2.435145464E0,9.520425465E0
1.270064246E1,-1.506262340E0,9.117293810E0,-2.199764628E0,9.499096645E0
1.271067246E1,-2.010977916E0,9.134515030E0,-2.180496883E0,9.604059749E0
1.272070246E1,-2.466497650E0,8.773782170E0,-2.210055728E0,9.378017410E0
1.273073246E1,-2.275616172E0,7.635846176E0,-4.269578397E-1,7.979152134E0
1.274076246E1,-1.546843332E0,5.865973520E0,7.732217646E-1,6.115573688E0
1.275079246E1,2.091183588E-2,3.533321561E0,1.387488141E0,3.796040292E0
1.276082246E1,1.596277155E0,-6.326424211E-1,7.815411830E-1,1.886569323E0
1.277085246E1,3.521899610E0,-6.247025455E0,-6.608112656E0,9.751730962E0
1.278088246E1,3.342203563E0,-1.156285141E1,6.800083762E0,1.382429009E1
1.279091246E1,-3.493740588E-2,-1.774350454E1,6.963484204E0,1.906104106E1
1.280094246E1,-6.171597250E-1,-2.613019167E1,-4.070630393E0,2.645255819E1
1.281097246E1,1.273690215E0,-3.100429031E1,8.352127755E-1,3.104167980E1
1.282100246E1,7.170233563E0,-3.623106960E1,-1.880241994E-1,3.693423895E1
1.283103246E1,1.096125946E1,-3.826694379E1,-1.550507344E0,3.983606744E1
1.284106146E1,9.698059734E0,-3.268488066E1,-4.211199796E-1,3.409591073E1
1.285109146E1,4.955058598E0,-2.491022392E1,-8.510634077E-1,2.541251996E1
1.286112146E1,1.607666801E0,-2.176024933E1,-1.744495740E0,2.188918246E1
1.287115146E1,-9.327867249E-1,-1.992350791E1,-6.250427219E-1,1.995512308E1
1.288118146E1,-2.373228566E0,-1.650688391E1,-5.719979874E-1,1.668641999E1
1.289121146E1,-2.885207407E0,-1.217272887E1,-1.172788907E0,1.256483918E1
1.290124146E1,-2.522304353E0,-7.727639276E0,-1.582691588E0,8.281505943E0
1.291127146E1,-1.172962716E0,-3.657425205E0,-1.803491807E0,4.243251508E0
1.292130146E1,4.078887539E-1,-3.739879131E-2,-1.560258161E0,1.613126602E0
1.293133146E1,1.330268166E0,3.110282525E0,-1.157130064E0,3.575251147E0
1.294136146E1,1.676909821E0,5.738295473E0,-6.409191549E-1,6.012556765E0
1.295139146E1,2.008536118E0,7.583640481E0,-4.969782015E-2,7.845271834E0
1.296142146E1,2.339678266E0,9.215152227E0,6.957701308E-1,9.532954475E0
1.297145146E1,2.778869066E0,1.077222716E1,9.592749041E-1,1.116616316E1
1.298148146E1,2.773391102E0,1.215896803E1,8.775834543E-1,1.250209400E1
1.299151146E1,2.108839109E0,1.298306876E1,6.608336020E-1,1.316981313E1
1.300154146E1,1.428043552E0,1.326169794E1,3.637699038E-1,1.334332302E1
1.301157146E1,1.651834183E0,1.338932745E1,-1.665479245E-1,1.349186362E1
1.302160146E1,2.844706668E0,1.359945416E1,-8.530812087E-1,1.391995895E1
1.303163146E1,3.914725790E0,1.352095646E1,-9.239588179E-1,1.410656023E1
1.304166146E1,5.038196649E0,1.307795737E1,9.078324895E-2,1.401515737E1
1.305169146E1,5.720609985E0,1.233797352E1,9.020014268E-1,1.362954789E1
1.306172146E1,4.745436502E0,1.121864220E1,7.369321901E-1,1.220328519E1
1.307175046E1,2.718144854E0,1.047287077E1,1.698592758E-1,1.082119152E1
1.308178046E1,1.681377093E0,9.953715205E0,-7.416117898E-1,1.012192982E1
1.309181046E1,1.320407275E0,9.541654902E0,-1.871304306E0,9.812666989E0
1.310184046E1,1.112638381E0,9.301381116E0,-2.318053801E0,9.650234622E0
1.311187046E1,9.784661968E-1,9.059872983E0,-1.525653169E0,9.239389166E0
1.312190046E1,5.962942648E-1,8.709931160E0,-1.878412181E-1,8.732339433E0
1.313193046E1,2.799956757E-1,8.501254558E0,3.322567005E-2,8.505929143E0
1.314196046E1,-7.894932501E-2,8.398883845E0,-3.246526158E-1,8.405526882E0
1.315199046E1,-7.841107419E-1,8.629743029E0,-5.859693245E-1,8.685082294E0
1.316202046E1,-1.265220231E0,9.000486322E0,-6.513716376E-1,9.112289574E0
1.317205046E1,-1.412160029E0,9.321821812E0,-7.538522780E-1,9.458268928E0
1.318208117E1,-1.435425662E0,9.522450891E0,-1.039581733E0,9.685982035E0
1.319211117E1,-1.366349433E0,9.533019733E0,-1.192892804E0,9.704038811E0
1.320214117E1,-1.461466821E0,9.259538441E0,-1.242732716E0,9.456179038E0
1.321217117E1,-1.664999335E0,8.797166939E0,-1.776782895E0,9.127942068E0
1.322220117E1,-1.862143473E0,7.714242135E0,-2.505814328E0,8.322031932E0
1.323223117E1,-1.493592593E0,6.121113852E0,-4.379108441E0,7.673033582E0
1.324226117E1,-5.435391869E-1,4.129887831E0,-6.975049996E0,8.124206472E0
1.325229117E1,8.783396454E-1,-2.871158302E-2,1.990387530E0,2.175763638E0
1.326232117E1,-1.165804701E-1,-8.293635133E0,3.505201131E0,9.004688206E0
1.327235117E1,-1.505536701E0,-1.597715424E1,-4.476153510E0,1.666049365E1
1.328238117E1,-5.415751071E-1,-1.761665270E1,3.432121460E0,1.795603558E1
1.329241117E1,1.053701151E0,-2.263797721E1,7.554181623E-1,2.267507343E1
1.330244017E1,4.576106106E0,-2.999029190E1,-1.904594843E0,3.039713534E1
1.331247017E1,6.787630363E0,-3.465607529E1,-1.156573409E0,3.533345642E1
1.332250017E1,6.615001845E0,-3.585161103E1,-2.513903950E0,3.654334380E1
1.333253017E1,4.772226689E0,-3.129316615E1,-1.386640295E0,3.168531468E1
1.334256017E1,2.318454920E0,-2.462330339E1,-1.103118163E0,2.475680053E1
1.335259017E1,1.136232700E0,-2.088989596E1,-2.162754092E0,2.103226766E1
1.336262017E1,1.358743083E0,-1.955675418E1,-2.138044928E0,1.972014333E1
1.337265017E1,3.223402174E0,-1.699754483E1,-1.533853304E0,1.736834931E1
1.338268017E1,4.939765205E0,-1.331488889E1,-1.054967439E0,1.424080415E1
1.339271017E1,5.036168835E0,-9.847031586E0,-4.569892124E-1,1.106959199E1
1.340274017E1,4.251630076E0,-6.611099414E0,-1.682875443E-1,7.862017201E0
1.341277017E1,2.918435672E0,-3.242568762E0,-1.604954716E-1,4.365464207E0
1.342280017E1,1.577732711E0,2.018441302E-1,8.656334996E-2,1.592945314E0
1.343283017E1,7.259803551E-1,3.610916451E0,5.319142643E-1,3.721383866E0
1.344286017E1,-5.192488298E-2,6.677759426E0,6.556868827E-1,6.710073952E0
1.345289017E1,-7.473937359E-1,9.460419534E0,7.035323095E-1,9.515938886E0
1.346292017E1,-1.479637628E0,1.197269913E1,1.024423996E0,1.210720019E1
1.347295017E1,-1.676922685E0,1.357168925E1,1.217482685E0,1.372898695E1
1.348298017E1,-1.621506283E0,1.428614649E1,1.534818095E0,1.445956192E1
1.349301017E1,-1.244128739E0,1.470100177E1,1.517653009E0,1.483140519E1
1.350304017E1,-8.326034555E-1,1.449138142E1,1.529123492E0,1.459560149E1
1.351307017E1,-6.580104931E-1,1.375238809E1,1.278675551E0,1.382737022E1
1.352309917E1,-3.980159495E-1,1.235152737E1,-1.900386200E-1,1.235939965E1
1.353312917E1,5.929331574E-2,1.158738048E1,-1.265100070E0,1.165638796E1
1.354315917E1,7.845969379E-1,1.162706436E1,-1.307586524E0,1.172663637E1
1.355318917E1,2.132157221E0,1.146322421E1,-3.124048625E0,1.207109289E1
1.356321917E1,2.814975330E0,1.131312034E1,-3.113987321E0,1.206680136E1
1.357324917E1,2.796474155E0,1.153585248E1,1.622700577E0,1.198037217E1
1.358327917E1,3.585791258E0,1.200595341E1,3.377333050E0,1.297717977E1
1.359330917E1,3.913237673E0,1.227918445E1,1.736515460E0,1.300412572E1
1.360333917E1,3.159830076E0,1.166144833E1,-1.354289989E0,1.215763154E1
1.361336917E1,1.346169084E0,9.982787561E0,-2.350015851E0,1.034363540E1
1.362339917E1,-6.139049455E-1,8.470554922E0,-7.491745055E-1,8.525751721E0
1.363342917E1,-1.323915458E0,7.648879620E0,5.628716167E-1,7.782990173E0
1.364345917E1,-1.422383886E0,7.569736387E0,1.058921399E0,7.774663942E0
1.365348917E1,-1.360022600E0,7.984081197E0,1.091082255E0,8.172250273E0
1.366351917E1,-1.235506727E0,8.781493478E0,9.767142248E-1,8.921607212E0
1.367354917E1,-1.042056567E0,9.606211086E0,9.538457644E-1,9.709531145E0
1.368357917E1,-1.069311828E0,9.938124189E0,9.026756108E-1,1.003616279E1
1.369360917E1,-1.097106933E0,9.978048978E0,1.193645926E0,1.010890180E1
1.370363917E1,-1.016027395E0,9.883907636E0,2.009498570E0,1.013716066E1
1.371366917E1,-1.250665926E0,9.799243462E0,2.219180893E0,1.012492477E1
1.372369917E1,-1.463440549E0,9.366234339E0,1.582275267E0,9.611014460E0
1.373372917E1,-1.349188148E0,7.981366335E0,1.636600578E0,8.258388383E0
1.374375917E1,-1.043838506E0,4.249244705E0,2.106170586E0,4.856092455E0
1.375378917E1,-1.480880454E0,-4.560842827E0,-3.804584420E-1,4.810305899E0
1.376381817E1,-2.376770079E0,-1.506235034E1,-1.531382271E0,1.532542219E1
1.377384817E1,-3.998739461E0,-2.171450539E1,3.787612292E0,2.240213536E1
1.378387817E1,-3.240030486E0,-2.583666379E1,6.798418475E0,2.691188375E1
1.379390817E1,1.718707180E0,-2.893913326E1,9.482824311E0,3.050166135E1
1.380393817E1,1.216963335E1,-3.082954978E1,1.048123463E1,3.476229847E1
1.381396817E1,1.829849769E1,-3.262928299E1,2.746790949E0,3.751066497E1
1.382399817E1,1.362149466E1,-3.979740337E1,-4.441361992E0,4.229780288E1
1.383402817E1,5.797576885E0,-4.247221919E1,-8.079930511E0,4.362094196E1
1.384405817E1,2.650653952E0,-3.578816407E1,-4.930634778E0,3.622333244E1
1.385408817E1,3.981068883E0,-2.210176882E1,-3.462155099E0,2.272275539E1
1.386411817E1,6.373737541E0,-1.457452649E1,-5.079033018E0,1.669844092E1
1.387414817E1,7.602107742E0,-1.066750470E1,2.709049364E-1,1.310194978E1
1.388417817E1,7.815812364E0,-5.828776458E0,2.559412830E0,1.008028531E1
1.389420817E1,6.568579631E0,-2.313445026E0,1.932332280E0,7.227183012E0
1.390423817E1,4.760707090E0,1.145819210E0,1.526741921E0,5.129149496E0
1.391426817E1,3.886809720E0,4.326370649E0,1.271399860E0,5.953253766E0
1.392429817E1,3.238366368E0,7.220541837E0,9.205616587E-1,7.966848494E0
1.393432817E1,2.725633383E0,9.636525975E0,4.479457625E-1,1.002458805E1
1.394435817E1,2.280060640E0,1.138837400E1,-1.710551776E-2,1.161438899E1
1.395438817E1,1.944788604E0,1.264160657E1,-3.271055228E-1,1.279450731E1
1.396441817E1,2.272450343E0,1.316135036E1,-3.203777164E-1,1.335993323E1
1.397444817E1,2.929672851E0,1.328350104E1,6.852520131E-2,1.360290699E1
1.398447817E1,3.360045464E0,1.352850639E1,3.981760901E-1,1.394521190E1
1.399450817E1,3.103393043E0,1.386326416E1,-3.427321335E-1,1.421051044E1
1.400453817E1,3.505093542E0,1.421923096E1,-2.105999263E0,1.479552103E1
1.401456817E1,5.189643043E0,1.458459774E1,-5.354681289E-1,1.548966146E1
1.402459717E1,5.493877181E0,1.473675866E1,1.696867830E0,1.581878955E1
1.403462717E1,5.315487403E0,1.356584320E1,1.911602731E0,1.469492202E1
1.404465717E1,3.463764253E0,1.143963304E1,1.145817383E0,1.200732128E1
1.405468717E1,1.259319074E0,9.859460428E0,4.107902154E-1,9.948044685E0
1.406471717E1,1.507482362E-1,9.365180671E0,-4.880256484E-1,9.379099267E0
1.407474717E1,-1.036576776E0,9.343448324E0,1.186411750E-1,9.401520820E0
1.408477717E1,-2.222480915E0,9.449893962E0,1.090105697E0,9.768738288E0
1.409480717E1,-2.953199415E0,9.573454399E0,1.848210143E0,1.018765413E1
1.410483717E1,-3.095412178E0,9.694195309E0,1.755754554E0,1.032674553E1
1.411486717E1,-3.302938340E0,9.414141746E0,1.646259009E0,1.011165838E1
1.412489717E1,-3.559552170E0,8.992639359E0,1.822750781E0,9.841767864E0
1.413492717E1,-3.351287797E0,8.508050192E0,2.016264383E0,9.363939878E0
1.414495717E1,-2.921405180E0,8.182756721E0,2.219307631E0,8.967577273E0
1.415498717E1,-2.618266810E0,8.131737426E0,2.001588457E0,8.774213982E0
1.416501717E1,-2.778829013E0,8.095571812E0,1.321754912E0,8.660670280E0
1.417504717E1,-3.262628513E0,8.157573348E0,5.239948685E-1,8.801438426E0
1.418507658E1,-3.908138024E0,8.379941205E0,-8.997948338E-1,9.290133915E0
1.419510658E1,-3.732862473E0,7.908296020E0,-3.085278077E0,9.273313808E0
1.420513658E1,-2.571954523E0,7.683488705E0,-4.862573188E0,9.449633154E0
1.421516658E1,-1.452035993E0,7.361600652E0,-4.934849451E0,8.980774565E0
1.422519658E1,-1.875472493E-1,4.384162189E0,-2.505537170E0,5.053094951E0
1.423522658E1,1.572244661E-1,-7.550772697E-1,1.656212724E0,1.826992557E0
1.424525658E1,9.176801509E-1,-5.835795456E0,1.467776259E0,6.087118580E0
1.425528658E1,4.334155632E0,-1.100270335E1,1.058366498E1,1.587004570E1
1.426531658E1,3.628538205E0,-1.624373114E1,7.743858283E0,1.835735362E1
1.427534658E1,3.065468295E0,-2.196177245E1,2.102227809E0,2.227410844E1
1.428537658E1,3.483286352E0,-2.517964491E1,5.388275297E0,2.598425123E1
1.429540658E1,5.030920959E0,-3.031266995E1,8.460207689E-1,3.073896349E1
1.430543658E1,3.723569493E0,-3.677327489E1,1.261603435E0,3.698283871E1
1.431546558E1,3.244792458E0,-3.926144291E1,2.541956552E0,3.947722281E1
1.432549558E1,5.400253319E0,-3.145093806E1,1.025405013E0,3.192766350E1
1.433552558E1,7.940508916E0,-2.144953764E1,-3.878985853E-1,2.287541939E1
1.434555558E1,8.166894979E0,-1.922165609E1,-9.733528067E-1,2.090735881E1
1.435558558E1,6.144004532E0,-1.820579476E1,-1.117985879E0,1.924706853E1
1.436561558E1,4.492335094E0,-1.492785853E1,-5.603276394E-1,1.559923081E1
1.437564558E1,3.638163307E0,-1.125795771E1,-1.376783059E0,1.191106106E1
1.438567558E1,3.137051663E0,-7.636264252E0,-1.347095137E0,8.364705026E0
1.439570558E1,2.599966194E0,-4.513699651E0,-2.440547414E-1,5.214678462E0
1.440573558E1,1.958372270E0,-1.241109529E0,8.593530053E-1,2.472663018E0
1.441576558E1,1.454118041E0,2.229304762E0,1.929936091E0,3.287691031E0
1.442579558E1,1.493572274E0,5.616734199E0,2.985891783E0,6.534065422E0
1.443582558E1,1.288908763E0,8.574413166E0,3.228637186E0,9.252348082E0
1.444585558E1,1.044127797E0,1.165273598E1,2.841129926E0,1.203945505E1
1.445588558E1,8.170240610E-1,1.389357847E1,2.272562463E0,1.410190027E1
1.446591558E1,6.297509730E-1,1.544604580E1,1.276299242E0,1.551147501E1
1.447594558E1,8.968674253E-1,1.623493459E1,4.287810016E-1,1.626534124E1
1.448597558E1,9.765651208E-1,1.612024497E1,2.431884764E-1,1.615162895E1
1.449600558E1,6.748493779E-1,1.576926818E1,3.037428264E-1,1.578662410E1
1.450603558E1,1.809911319E-1,1.555529518E1,6.032934916E-1,1.556804191E1
1.451606558E1,8.694699126E-2,1.554898603E1,1.951887124E0,1.567125999E1
1.452609558E1,3.024135168E-1,1.518668085E1,2.412428593E0,1.538006960E1
1.453612558E1,2.609557163E-1,1.384122835E1,1.691021199E0,1.394658570E1
1.454615558E1,-3.563415279E-1,1.156704503E1,4.172875683E-1,1.158005350E1
1.455618558E1,-5.235567659E-1,9.655473878E0,-4.594619268E-1,9.680567791E0
1.456621558E1,-5.651226486E-1,8.868658506E0,-1.006051314E0,8.943411349E0
1.457624558E1,-6.590792911E-1,8.720598235E0,-1.611058770E0,8.892622192E0
1.458627558E1,-6.997569086E-1,8.738422887E0,-1.609850736E0,8.912985677E0
1.459630558E1,-8.032742603E-1,8.780139263E0,-6.816351447E-1,8.843117181E0
1.460633458E1,-1.095599156E0,9.210701326E0,3.915570420E-1,9.283893221E0
1.461636458E1,-9.594399418E-1,9.474236505E0,6.466114924E-1,9.544620934E0
1.462639458E1,-7.382046904E-1,9.200209082E0,6.696178009E-1,9.254035948E0
1.463642458E1,-7.411942986E-1,9.036098789E0,1.119303768E0,9.135277294E0
1.464645458E1,-6.993376632E-1,9.094583225E0,1.745856972E0,9.287008871E0
1.465648458E1,-8.894812225E-1,9.086724567E0,2.164508842E0,9.383221127E0
1.466651458E1,-1.174154451E0,8.791813813E0,2.318764238E0,9.167949411E0
1.467654458E1,-1.379520725E0,8.394163388E0,1.851598020E0,8.705944615E0
1.468657458E1,-1.428937299E0,8.098622890E0,1.351785042E0,8.334079272E0
1.469660458E1,-1.007960722E0,7.711074699E0,1.054645257E0,7.847861775E0
1.470663458E1,5.503607314E-1,6.394991586E0,1.576283625E0,6.609348257E0
1.471666458E1,1.940273969E0,2.637944444E0,-3.337287224E0,4.675564135E0
1.472669458E1,1.227060716E0,-4.077865153E0,-5.588347136E0,7.025972240E0
1.473672458E1,9.232309858E-1,-1.018445803E1,8.460711134E0,1.327249689E1
1.474675458E1,1.680729514E0,-1.376952628E1,8.631885449E0,1.633811960E1
1.475678458E1,1.666813141E0,-1.914834487E1,5.531543190E0,2.000088367E1
1.476681458E1,1.316530425E0,-2.414826623E1,4.583912432E0,2.461471649E1
1.477684458E1,1.873711020E0,-2.752957305E1,3.082304767E0,2.776488408E1
1.478687458E1,3.869533537E0,-3.283030325E1,2.592901588E0,3.315908986E1
1.479690458E1,3.366757483E0,-3.719364058E1,4.118647143E0,3.757213342E1
1.480693458E1,4.877672014E-1,-3.509653201E1,6.804459819E0,3.575339354E1
1.481696458E1,1.239639539E0,-2.820853770E1,5.072964193E0,2.868785930E1
1.482699458E1,4.087296127E0,-2.348407399E1,2.330735827E0,2.395078392E1
1.483702458E1,4.453336505E0,-1.936939068E1,5.008514428E-1,1.988105514E1
1.484705458E1,3.737749575E0,-1.480888173E1,-1.631139278E0,1.536015512E1
1.485708458E1,2.525538155E0,-1.046836140E1,-3.109159275E0,1.120855944E1
1.486711458E1,1.514525625E0,-6.064813351E0,-3.091774333E0,6.973866745E0
1.487714458E1,1.220556639E0,-2.175505115E0,-2.323128600E0,3.408739871E0
1.488717458E1,9.010784438E-1,1.066810462E0,-1.039155471E0,1.740652469E0
1.489720358E1,7.063811461E-1,3.844561248E0,1.120139774E-1,3.910520764E0
1.490723358E1,3.725750431E-1,6.174614705E0,1.359052547E0,6.333380041E0
1.491726358E1,-2.680990038E-1,8.588313167E0,1.953637195E0,8.811793145E0
1.492729358E1,-8.081764197E-1,1.097189554E1,1.381673085E0,1.108804137E1
1.493732358E1,-1.204396616E0,1.299861300E1,2.315491551E-1,1.305634428E1
1.494735358E1,-1.027289863E0,1.380474640E1,-9.460519376E-1,1.387520673E1
1.495738358E1,-5.667146261E-1,1.394255241E1,-9.267345643E-1,1.398480497E1
1.496741358E1,-8.575967941E-1,1.405172343E1,-3.577291453E-1,1.408241364E1
1.497744358E1,-9.736424632E-1,1.384117104E1,4.774022077E-1,1.388358413E1
1.498747358E1,-1.169935832E0,1.368629935E1,1.205596903E0,1.378901750E1
1.499750358E1,-1.352187038E0,1.368021942E1,1.749855298E0,1.385780670E1
1.500753358E1,-1.217238271E0,1.368765941E1,1.997350979E0,1.388607576E1
1.501756358E1,-3.465953889E-1,1.358061210E1,1.396198738E0,1.365659270E1
1.502759358E1,1.251133703E0,1.292264597E1,6.917232728E-1,1.300148436E1
1.503762358E1,2.090721804E0,1.147893919E1,8.024660289E-2,1.166805905E1
1.504765358E1,1.741726499E0,1.066104470E1,-6.056744778E-1,1.081934965E1
1.505768358E1,1.091971397E0,1.018711267E1,-8.971481647E-1,1.028467505E1
1.506771358E1,3.059490540E-1,9.805877128E0,-9.374934411E-1,9.855339925E0
1.507774358E1,-4.935968754E-1,9.723699190E0,-1.134921754E0,9.802143194E0
1.508777358E1,-1.075165037E0,9.744245136E0,-9.621599203E-1,9.850484498E0
1.509780358E1,-1.290572296E0,1.003462664E1,-2.690134718E-1,1.012085356E1
1.510783358E1,-1.227833280E0,9.578553171E0,4.702196342E-1,9.668369145E0
1.511786358E1,-6.995871200E-1,9.118512370E0,1.332495078E0,9.241873896E0
1.512789358E1,-6.057247639E-2,8.721727917E0,1.972081068E0,8.942108847E0
1.513792358E1,2.585404873E-1,8.464970831E0,2.360636734E0,8.791767748E0
1.514795358E1,-1.099373022E-1,8.641188954E0,2.351774109E0,8.956175199E0
1.515798358E1,-1.140809462E0,9.039840422E0,1.858671396E0,9.299183859E0
1.516801358E1,-1.867387695E0,9.295991737E0,7.745040590E-1,9.513277864E0
1.517804421E1,-2.184251673E0,9.257947413E0,-1.022210825E0,9.566893992E0
1.518807321E1,-2.474792802E0,8.622492481E0,-3.009760702E0,9.462062961E0
1.519810321E1,-2.383411639E0,7.054266905E0,-4.133926502E0,8.516612057E0
1.520813321E1,-1.766252352E-1,4.237903445E0,-5.207400452E0,6.716252047E0
1.521816321E1,1.751088476E0,-1.977915419E0,-1.211519694E-1,2.644454207E0
1.522819321E1,-2.946055287E-1,-1.023665495E1,1.632699316E0,1.037022681E1
1.523822321E1,2.104094532E0,-1.535412874E1,1.181295787E1,1.948646856E1
1.524825321E1,4.107427213E0,-2.044385164E1,1.381670863E1,2.501446512E1
1.525828321E1,2.137206584E0,-2.728141488E1,9.490157304E0,2.896387984E1
1.526831321E1,2.654056447E0,-2.989434143E1,6.252341158E0,3.065627888E1
1.527834321E1,5.949879895E0,-3.343058309E1,7.164558256E-1,3.396348429E1
1.528837321E1,5.200615928E0,-4.018563043E1,-4.028263807E-1,4.052275371E1
1.529840321E1,-6.497269620E-1,-3.970590614E1,5.769375179E0,4.012813001E1
1.530843321E1,-2.724726188E0,-2.929570115E1,6.209419087E0,3.007023652E1
1.531846321E1,-1.656047248E0,-2.190208641E1,4.235325408E0,2.236921686E1
1.532849321E1,-2.005546875E0,-1.867926252E1,1.939419690E0,1.888646117E1
1.533852321E1,-2.289850926E0,-1.528175190E1,-3.656474447E-1,1.545668323E1
1.534855321E1,-1.359369173E0,-1.139069652E1,-1.802432292E0,1.161226136E1
1.535858321E1,-6.198107064E-2,-8.224221082E0,-2.337941351E0,8.550299633E0
1.536861321E1,8.954078141E-1,-4.887707444E0,-2.532837235E0,5.577338404E0
1.537864321E1,1.942247404E0,-1.256091850E0,-1.803499993E0,2.933036641E0
1.538867321E1,2.895992011E0,2.289158031E0,-3.834335053E-1,3.711338771E0
1.539870321E1,2.833534100E0,5.961351548E0,1.328750521E0,6.732919554E0
1.540873321E1,1.939942578E0,1.014470398E1,3.263437475E0,1.083182442E1
1.541876321E1,7.618389899E-1,1.463006451E1,4.656706173E0,1.537218588E1
1.542879321E1,-2.563677350E-1,1.679467101E1,4.586148992E0,1.741147499E1
1.543882321E1,-1.159516020E0,1.648773311E1,2.915780743E0,1.678367058E1
1.544885221E1,-1.442555172E0,1.538551191E1,1.046078575E0,1.548835765E1
1.545888221E1,-2.415738409E-1,1.477502985E1,-1.426667994E0,1.484571476E1
1.546891221E1,1.974589669E0,1.384819121E1,-2.838151939E0,1.427327960E1
1.547894221E1,3.525229599E0,1.213505993E1,-1.206263047E0,1.269417165E1
1.548897221E1,4.388580053E0,1.017514692E1,8.967816174E-1,1.111743977E1
1.549900221E1,4.611783185E0,8.551190364E0,1.264184396E0,9.797426345E0
1.550903221E1,3.847873111E0,7.874112613E0,1.618076599E0,8.912123697E0
1.551906221E1,2.729363907E0,8.359489984E0,2.161011622E0,9.055411164E0
1.552909221E1,2.041534880E0,9.350442179E0,2.387647362E0,9.864050564E0
1.553912221E1,2.140396094E0,1.019309671E1,2.303069726E0,1.066698861E1
1.554915221E1,2.344301075E0,1.083395505E1,2.127493043E0,1.128700829E1
1.555918221E1,2.298192856E0,1.114176418E1,1.958089850E0,1.154360062E1
1.556921221E1,2.141603251E0,1.111464011E1,1.852999012E0,1.146975565E1
1.557924221E1,1.865144849E0,1.076444335E1,1.732330023E0,1.106132782E1
1.558927221E1,1.675005675E0,1.012470182E1,1.729398229E0,1.040701923E1
1.559930221E1,1.704292770E0,9.314595823E0,2.041864078E0,9.686873495E0
1.560933221E1,1.960612046E0,8.648546505E0,2.161653646E0,9.127655928E0
1.561936221E1,2.502096083E0,8.231056477E0,2.017926747E0,8.836447470E0
1.562939221E1,3.071317849E0,8.130061029E0,2.093023707E0,8.939330730E0
1.563942221E1,3.252339167E0,8.305444170E0,2.499793450E0,9.263211117E0
1.564945221E1,3.066595053E0,8.235771087E0,2.757193145E0,9.210539868E0
1.565948221E1,3.013071395E0,8.006478372E0,3.678833030E0,9.312148389E0
1.566951221E1,2.841198338E0,7.621820460E0,5.619909237E0,9.886755532E0
1.567954221E1,2.436953715E0,6.442038867E0,6.484509534E0,9.459781820E0
1.568957221E1,2.085190484E0,4.849898763E0,1.515539825E-1,5.281335625E0
1.569960221E1,-1.439796894E0,1.250850990E0,-8.062446166E0,8.284967198E0
1.570963221E1,-6.323626903E0,-5.651204705E0,-4.522956963E0,9.611530134E0
1.571966221E1,-6.522150984E0,-1.208764954E1,8.341300465E0,1.606944362E1
1.572969221E1,-2.325388548E0,-1.614182353E1,9.637179109E0,1.894310217E1
1.573972121E1,1.193643294E0,-2.079873786E1,1.147507535E1,2.378423081E1
1.574975121E1,3.109380446E-1,-2.495081763E1,1.039437541E1,2.703114913E1
1.575978121E1,-4.347357183E0,-3.169615859E1,-5.806780987E0,3.251560686E1
1.576981121E1,-3.249761130E0,-4.007352761E1,-6.931625065E0,4.079823511E1
1.577984121E1,2.003715454E-1,-3.957781470E1,3.509057370E0,3.973357584E1
1.578987121E1,6.452219747E-2,-3.323351321E1,-9.660137471E-1,3.324761264E1
1.579990121E1,4.074983645E0,-2.231582369E1,3.401309558E0,2.293840416E1
1.580993121E1,4.607898295E0,-1.771127702E1,3.325551862E0,1.860057407E1
1.581996121E1,4.303434361E0,-1.502387566E1,2.007012919E0,1.575641101E1
1.582999121E1,2.946945233E0,-1.169167376E1,1.066029274E0,1.210438515E1
1.584002121E1,1.754323886E0,-8.170774022E0,5.860558633E-1,8.377509290E0
1.585005121E1,1.437307442E0,-4.350637763E0,3.352681627E-1,4.594160029E0
1.586008121E1,1.297795507E0,-7.188789117E-1,4.993422399E-1,1.565376230E0
1.587011121E1,1.303847814E0,2.647947276E0,6.445116842E-1,3.021099007E0
1.588014121E1,1.463741096E0,5.528272843E0,4.894136677E-1,5.739674586E0
1.589017121E1,2.215361930E0,8.405275437E0,3.548159894E-1,8.699561945E0
1.590020121E1,2.950274053E0,1.134815452E1,9.064708923E-1,1.176037488E1
1.591023121E1,2.475487159E0,1.325387436E1,7.811054923E-1,1.350567837E1
1.592026121E1,1.731133975E0,1.421213945E1,-3.056632713E-1,1.432044562E1
1.593029121E1,1.104042608E0,1.455873433E1,-1.105966415E0,1.464236378E1
1.594032121E1,5.424641032E-1,1.426288276E1,-5.724412429E-1,1.428466944E1
1.595035121E1,2.268350568E-2,1.360524525E1,2.652360974E-1,1.360784931E1
1.596038121E1,-6.239891267E-1,1.300688564E1,6.129969094E-1,1.303626486E1
1.597041121E1,-2.039570800E0,1.210260555E1,8.308548456E-1,1.230135073E1
1.598044121E1,-3.369882820E0,1.041139081E1,1.782057084E0,1.108733044E1
1.599047121E1,-3.428117872E0,9.124863031E0,2.501495574E0,1.006342872E1
1.600050121E1,-2.926389639E0,8.413053988E0,1.659194804E0,9.060693192E0
1.601053121E1,-2.546610351E0,7.958022496E0,8.543951511E-3,8.355562179E0
1.602056121E1,-2.319805042E0,7.776940075E0,-1.607551610E0,8.273240873E0
1.603059121E1,-1.747199785E0,8.001007133E0,-1.944200959E0,8.417169334E0
1.604062121E1,-4.056099477E-1,9.098573365E0,-7.568191552E-1,9.139000598E0
1.605065121E1,1.626438263E0,1.093165735E1,2.780356890E-1,1.105548450E1
1.606068021E1,2.296478599E0,1.180478230E1,-9.670541129E-1,1.206490334E1
1.607071021E1,2.835789956E0,1.167553310E1,-1.694416677E0,1.213387102E1
1.608074021E1,3.347148845E0,1.087644092E1,-1.649082044E0,1.149868880E1
1.609077021E1,3.371916774E0,9.792963552E0,-1.308416829E0,1.043953603E1
1.610080021E1,3.350534383E0,8.921768766E0,-7.897062349E-1,9.562827746E0
1.611083021E1,3.514649647E0,8.592131399E0,-1.213659775E-1,9.283976186E0
1.612086021E1,3.192914499E0,8.720402353E0,4.828823644E-1,9.299101870E0
1.613089021E1,2.721980043E0,8.804701077E0,4.324197239E-1,9.225991720E0
1.614092021E1,2.000363757E0,8.647898049E0,-5.102865100E-1,8.890893552E0
1.615095021E1,1.360943244E0,8.094663740E0,1.122782532E-1,8.209040990E0
1.616098021E1,1.048410152E0,7.211324286E0,2.729533476E0,7.781562491E0
1.617101021E1,1.047480591E0,5.407360609E0,3.145149472E0,6.342612202E0
1.618104017E1,-1.147187166E-1,2.299651444E-1,-8.639202654E-1,9.013337765E-1
1.619107017E1,-4.364820769E0,-9.203727352E0,-2.972465991E0,1.061111736E1
1.620110017E1,-5.431467510E0,-1.660767588E1,9.631880363E0,1.995216421E1
1.621113017E1,-2.807791733E0,-2.093696604E1,7.511744286E0,2.242022622E1
1.622116017E1,-2.534528250E0,-2.716483543E1,6.520067621E0,2.805108553E1
1.623119017E1,-2.033960250E0,-3.458769093E1,1.002248080E1,3.606792869E1
1.624122017E1,-4.800264381E-1,-3.908898279E1,1.051873984E1,4.048237751E1
1.625125017E1,-8.420092866E-2,-4.153033098E1,3.641602639E0,4.168976794E1
1.626128017E1,-2.526595332E0,-3.486835495E1,-4.347708893E0,3.522908505E1
1.627131017E1,2.789813299E-1,-2.239931959E1,-1.089105896E0,2.242751659E1
1.628134017E1,2.440694179E0,-1.985913007E1,2.865995210E-1,2.001060155E1
1.629137017E1,-1.141257578E0,-1.901646443E1,-1.137096334E0,1.908458479E1
1.630140017E1,-2.516579636E0,-1.544471146E1,-1.311612332E0,1.570326756E1
1.631143017E1,-2.802709626E0,-1.146377268E1,-1.166802528E0,1.185894993E1
1.632146017E1,-2.137675677E0,-7.547163795E0,-1.473646864E0,7.981288977E0
1.633149017E1,-1.121447576E0,-3.547983454E0,-9.769633162E-1,3.847114318E0
1.634152017E1,-1.111833347E-1,4.672568500E-2,-5.581494784E-1,5.710305279E-1
1.635155017E1,9.125373785E-1,3.450947741E0,-3.884901774E-1,3.590639134E0
1.636158017E1,2.241434080E0,6.712598891E0,-7.429530680E-2,7.077325088E0
1.637160917E1,3.412342376E0,9.485499997E0,2.933162177E-1,1.008488101E1
1.638163917E1,4.134720847E0,1.133012872E1,5.834427792E-1,1.207510409E1
1.639166917E1,4.685984936E0,1.272859325E1,9.210651040E-2,1.356407109E1
1.640169917E1,4.373843023E0,1.363707515E1,-8.360682231E-1,1.434570777E1
1.641172917E1,4.373595101E0,1.337716875E1,-1.519369166E0,1.415575715E1
1.642175917E1,4.811677269E0,1.280708628E1,-1.176261569E0,1.373161638E1
1.643178917E1,5.534077374E0,1.272707766E1,7.741619968E-1,1.389977859E1
1.644181917E1,5.735940800E0,1.281572495E1,1.460073137E0,1.411650228E1
1.645184917E1,5.372065061E0,1.284895000E1,1.495040656E0,1.400677499E1
1.646187917E1,4.480697381E0,1.281811880E1,1.688854805E0,1.368331280E1
1.647190917E1,3.281591033E0,1.270132886E1,2.177632917E0,1.329792012E1
1.648193917E1,2.247515769E0,1.263365084E1,2.744706416E0,1.312226635E1
1.649196917E1,1.334208312E0,1.250088630E1,2.937956893E0,1.291061040E1
1.650199917E1,5.474796986E-1,1.226266606E1,2.801367105E0,1.259048731E1
1.651202917E1,-2.816551520E-1,1.174929456E1,2.403450047E0,1.199590865E1
1.652205917E1,-9.232667269E-1,1.119115795E1,1.592372823E0,1.134152057E1
1.653208917E1,-1.052867192E0,1.065719021E1,4.622983746E-1,1.071904624E1
1.654211917E1,-5.239935529E-1,1.005697469E1,-7.243098787E-1,1.009662984E1
1.655214917E1,2.403022908E-1,9.490055562E0,-1.351406143E0,9.588805886E0
1.656217917E1,5.236856970E-1,9.157316832E0,-1.002654812E0,9.226917955E0
1.657220917E1,3.224479231E-1,9.084420179E0,-7.054395982E-1,9.117472659E0
1.658223917E1,-3.105691949E-1,9.065897369E0,-9.551325904E-1,9.121361006E0
1.659226917E1,-9.333981974E-1,8.767334445E0,-1.632324217E0,8.966708862E0
1.660229917E1,-1.431673796E0,8.619162492E0,-2.086746721E0,8.982993031E0
1.661232917E1,-1.972624274E0,8.624404521E0,-2.561251779E0,9.210407730E0
1.662235917E1,-2.202299689E0,8.339996536E0,-4.130440977E0,9.563796778E0
1.663238917E1,-1.882151476E0,7.693190989E0,-3.239115981E0,8.556842532E0
1.664241917E1,-9.509399906E-1,6.703725157E0,-2.025511755E0,7.067313189E0
1.665244917E1,-1.128576940E-1,5.074334196E0,6.680093050E-1,5.119359415E0
