"Time (s)","Linear Acceleration x (m/s^2)","Linear Acceleration y (m/s^2)","Linear Acceleration z (m/s^2)","Absolute acceleration (m/s^2)"
4.034583335E-4,-6.416851401E-2,-1.273371542E-1,-1.525935005E0,1.532582784E0
1.043345833E-2,3.610138187E-1,-4.272969782E-2,-1.702035599E0,1.740425805E0
2.046345833E-2,6.968822712E-1,1.071455491E-1,-1.836055536E0,1.966780364E0
3.049345833E-2,8.699268177E-1,1.105632466E-1,-1.863386006E0,2.059418439E0
4.052345833E-2,9.432409617E-1,-1.605119169E-2,-1.777392029E0,2.012233480E0
5.055345833E-2,9.711810046E-1,-2.276508164E-1,-1.671584469E0,1.946589858E0
6.058345833E-2,9.241805005E-1,-4.522657585E-1,-1.611082159E0,1.911606559E0
7.061345833E-2,8.610826117E-1,-5.747409528E-1,-1.606650847E0,1.911312997E0
8.064345833E-2,7.718491307E-1,-4.560594320E-1,-1.638779835E0,1.867977686E0
9.067345833E-2,6.457998258E-1,-5.973164678E-2,-1.609667279E0,1.735411777E0
1.007044583E-1,3.843512258E-1,4.139922237E-1,-1.555026072E0,1.654455050E0
1.107344583E-1,8.154526949E-3,6.759808141E-1,-1.562658735E0,1.702621179E0
1.207644583E-1,-4.523558056E-1,7.668266648E-1,-1.524852832E0,1.765736409E0
1.307944583E-1,-1.018854816E0,7.208698887E-1,-1.367000667E0,1.851056281E0
1.408244583E-1,-1.613329537E0,4.902019089E-1,-1.108998123E0,2.018169206E0
1.508544583E-1,-2.173230549E0,1.296976751E-1,-9.854932344E-1,2.389759281E0
1.608844583E-1,-2.546395758E0,-3.199257267E-1,-9.491785169E-1,2.736315714E0
1.709144583E-1,-2.883454412E0,-7.207441735E-1,-1.057353761E0,3.154643955E0
1.809444583E-1,-3.053003493E0,-1.214645616E0,-1.513069669E0,3.617398806E0
1.909744583E-1,-2.892277860E0,-1.628812671E0,-2.322476635E0,4.051197312E0
2.010044583E-1,-2.499610139E0,-1.697894016E0,-3.437883891E0,4.577110507E0
2.110344583E-1,-1.914122589E0,-1.496428201E0,-4.607512379E0,5.208870604E0
2.210644583E-1,-1.130390454E0,-1.269947412E0,-5.622005464E0,5.873456771E0
2.310944583E-1,-1.308381745E-1,-1.017117316E0,-6.280309560E0,6.363484457E0
2.411244583E-1,1.765575537E-1,-1.303399333E0,-5.731128541E0,5.880123872E0
2.511544583E-1,-8.946687260E-1,-2.437122408E0,-3.959537096E0,4.734757837E0
2.611844583E-1,-2.431864299E0,-3.792120495E0,-2.268351299E0,5.043764411E0
2.712144583E-1,-3.689509169E0,-4.630777865E0,-1.262886461E0,6.054045239E0
2.812444583E-1,-4.400069247E0,-4.407456912E0,-8.177871957E-1,6.281326429E0
2.912744583E-1,-4.698783907E0,-3.741894667E0,-6.999687240E-1,6.047338432E0
3.013044583E-1,-4.790438720E0,-3.237132021E0,-7.341093005E-1,5.828056564E0
3.113344583E-1,-4.328102302E0,-2.496528364E0,-7.735470159E-1,5.056035838E0
3.213644583E-1,-3.726007782E0,-1.540702148E0,-8.019244306E-1,4.110958512E0
3.313954583E-1,-3.001495078E0,-5.204530638E-1,-7.192836121E-1,3.130050001E0
3.414254583E-1,-1.979103574E0,4.319297272E-1,-3.450617373E-1,2.054867842E0
3.514554583E-1,-1.166377143E0,6.606599396E-1,5.057487052E-2,1.341441394E0
3.614854583E-1,-9.431947687E-1,4.574235874E-1,6.994158697E-1,1.260172714E0
3.715154583E-1,-8.170598021E-1,3.039715987E-1,1.357281425E0,1.613133076E0
3.815454583E-1,-6.948714137E-1,1.498623830E-1,2.198639624E0,2.310697127E0
3.915754583E-1,-4.425263438E-1,8.721648395E-2,2.609392490E0,2.648087130E0
4.016054583E-1,-2.023116150E-1,1.336743665E-1,2.567538121E0,2.578963130E0
4.116354583E-1,1.753258377E-2,3.983380580E-1,2.427815394E0,2.460339039E0
4.216654583E-1,2.809207052E-1,5.982204473E-1,2.499532664E0,2.585429884E0
4.316954583E-1,3.983947760E-1,4.062347227E-1,2.872553447E0,2.928362743E0
4.417254583E-1,3.402351531E-1,2.233712393E-1,3.018844936E0,3.046158141E0
4.517554583E-1,3.584927917E-2,1.289369524E-2,2.772155585E0,2.772417358E0
4.617854583E-1,-5.366270471E-1,-3.097346145E-1,2.566532400E0,2.640263752E0
4.718154583E-1,-8.061562067E-1,-4.875806022E-1,2.871598597E0,3.022201379E0
4.818454583E-1,-6.755609840E-1,-3.658491737E-1,2.921891084E0,3.021204357E0
4.918754583E-1,-4.672749764E-1,-1.489414465E-1,2.803547824E0,2.846121899E0
5.019054583E-1,-3.402114719E-1,1.150258416E-1,2.773462146E0,2.796617075E0
5.119354583E-1,-7.906137228E-2,5.083516663E-1,2.846800848E0,2.892913270E0
5.219654583E-1,5.954804420E-2,7.599059004E-1,2.607967816E0,2.717075464E0
5.319954583E-1,-1.422218263E-2,7.641632581E-1,2.204256167E0,2.333000858E0
5.420264583E-1,-9.354083240E-3,5.996600318E-1,2.302187089E0,2.379021867E0
5.520564583E-1,-8.992316008E-2,4.059061092E-1,2.803739613E0,2.834396190E0
5.620864583E-1,-2.932977989E-1,3.057240093E-1,3.355277352E0,3.381919112E0
5.721160000E-1,-5.371962735E-1,4.067837763E-1,3.762472188E0,3.822335653E0
5.821460000E-1,-6.980514219E-1,6.466073263E-1,3.986610582E0,4.098590093E0
5.921760000E-1,-7.193572140E-1,9.849810183E-1,3.951619089E0,4.135572008E0
6.022060000E-1,-7.822486961E-1,1.268040635E0,3.549192073E0,3.849234268E0
6.122360000E-1,-9.101729107E-1,1.474794087E0,3.508359797E0,3.913057729E0
6.222660000E-1,-1.060425303E0,1.569021383E0,3.449850803E0,3.935454292E0
6.322960000E-1,-1.058411814E0,1.540733723E0,3.147896786E0,3.661058610E0
6.423260000E-1,-7.385910451E-1,1.376008303E0,2.964318773E0,3.350537474E0
6.523560000E-1,-1.172624016E-1,1.134196115E0,2.982884560E0,3.193391863E0
6.623860000E-1,4.591719049E-1,9.489481366E-1,3.084353047E0,3.259536029E0
6.724160000E-1,9.049566096E-1,8.771507603E-1,2.968912053E0,3.225333890E0
6.824460000E-1,1.234725831E0,9.206476128E-1,2.669839836E0,3.082236957E0
6.924760000E-1,1.410031789E0,1.057994615E0,2.170003470E0,2.795792788E0
7.025060000E-1,1.327258019E0,1.172957892E0,1.622667248E0,2.402185060E0
7.125360000E-1,1.012572275E0,1.236031222E0,1.115588228E0,1.948746492E0
7.225660000E-1,4.479487592E-1,1.201490550E0,6.254792896E-1,1.426696175E0
7.325960000E-1,-3.624121803E-1,1.017218472E0,3.005243728E-1,1.120888446E0
7.426270000E-1,-1.243939582E0,6.626830763E-1,2.160470170E-1,1.425907029E0
7.526570000E-1,-2.050123563E0,1.317962408E-1,1.388713717E-1,2.059043984E0
7.626870000E-1,-2.696330647E0,-4.228928554E-1,-1.075887680E-1,2.731412211E0
7.727170000E-1,-2.937025432E0,-8.716274804E-1,-5.706943873E-1,3.116335177E0
7.827470000E-1,-2.522978244E0,-1.185392581E0,-8.833376992E-1,2.924185405E0
7.927770000E-1,-1.703914017E0,-1.305882645E0,-9.914769825E-1,2.364673142E0
8.028070000E-1,-5.939458403E-1,-1.229334991E0,-1.278978729E0,1.870781326E0
8.128370000E-1,7.229357100E-1,-1.364847722E0,-2.222102454E0,2.706138330E0
8.228670000E-1,1.973213673E0,-1.582012727E0,-3.872155429E0,4.624924230E0
8.328970000E-1,3.378351927E0,-1.770566136E0,-4.760295154E0,6.099883288E0
8.429270000E-1,4.645412861E0,-1.958992660E0,-3.935841840E0,6.395964656E0
8.529570000E-1,5.242390190E0,-1.915751331E0,-1.857192636E0,5.882339888E0
8.629870000E-1,4.946463191E0,-1.845883536E0,1.767931965E-1,5.282616772E0
8.730170000E-1,4.360275144E0,-1.635890141E0,1.414595540E0,4.867156914E0
8.830470000E-1,3.057871007E0,-1.546414293E0,1.705437801E0,3.827595898E0
8.930770000E-1,1.769858038E0,-1.657313170E0,1.118716342E0,2.670320331E0
9.031070000E-1,7.189992182E-1,-2.220360861E0,5.150534526E-1,2.390029767E0
9.131370000E-1,-1.390529278E-1,-3.149296902E0,9.363476792E-1,3.288488052E0
9.231670000E-1,-9.674481422E-1,-4.227410617E0,2.227172867E0,4.875167219E0
9.331980000E-1,-1.865159467E0,-5.481821977E0,3.343118652E0,6.686227213E0
9.432280000E-1,-2.761729123E0,-6.553568659E0,3.816556009E0,8.071090985E0
9.532580000E-1,-3.526896348E0,-6.449129786E0,3.327150783E0,8.068469816E0
9.632880000E-1,-3.895937224E0,-4.828496785E0,6.982543203E-1,6.243417906E0
9.733180000E-1,-3.906974136E0,-1.970122835E0,-3.077433744E0,5.349432618E0
9.833480000E-1,-2.423835195E0,1.769130644E0,-2.189415057E0,3.714611498E0
9.933780000E-1,-3.787197724E-1,4.702557700E0,6.219054714E-1,4.758596852E0
1.003408000E0,8.613281947E-1,6.260108015E0,2.754140314E0,6.893194288E0
1.013438000E0,1.412206076E0,6.706480365E0,3.767371570E0,7.820760412E0
1.023468000E0,1.185617406E0,6.382225360E0,4.197365576E0,7.730224250E0
1.033498000E0,1.258095691E-1,5.117296028E0,4.491027364E0,6.809689675E0
1.043528000E0,-1.167014782E0,3.476497734E0,4.240538785E0,5.606258038E0
1.053558000E0,-2.301905838E0,2.046242473E0,3.848485315E0,4.929170109E0
1.063588000E0,-3.252086568E0,6.977692938E-1,3.433122504E0,4.780091961E0
1.073618000E0,-3.888255152E0,-5.113542116E-1,3.145885051E0,5.027584312E0
1.083648000E0,-4.283864022E0,-1.216184603E0,3.004792907E0,5.372092364E0
1.093678000E0,-4.561442459E0,-1.427000116E0,2.816774518E0,5.547729745E0
1.103708000E0,-4.573331018E0,-1.107288982E0,2.515469835E0,5.335638104E0
1.113738000E0,-4.215417393E0,-4.645992905E-1,1.599704647E0,4.532620793E0
1.123769000E0,-3.068396873E0,4.821087778E-1,-1.535274178E0,3.464759016E0
1.133799000E0,-1.888704158E0,1.258817237E0,-3.504403571E0,4.175244738E0
1.143829000E0,-1.466507706E0,1.126734483E0,-3.336836404E0,3.815056045E0
1.153859000E0,-1.435183587E0,6.182734734E-1,-2.423280294E0,2.883453034E0
1.163889000E0,-1.347078326E0,4.288652015E-1,-1.449344666E0,2.024634618E0
1.173919000E0,-1.088721734E0,5.655912298E-1,-6.854340076E-1,1.405356977E0
1.183949000E0,-6.898451471E-1,8.597167021E-1,-1.661064963E-1,1.114715436E0
1.193979000E0,-1.088631687E-1,1.302446237E0,1.819770090E-1,1.319595779E0
1.204009000E0,3.986377278E-1,1.684277020E0,5.077277684E-1,1.803742943E0
1.214039000E0,8.177629298E-1,1.612170326E0,7.252781045E-1,1.947782765E0
1.224069000E0,9.057880837E-1,1.348026452E0,1.081484635E0,1.951214079E0
1.234099000E0,6.265040141E-1,9.833192396E-1,1.522049530E0,1.917305082E0
1.244129000E0,2.048721108E-1,4.004290223E-1,1.834706583E0,1.889037911E0
1.254159000E0,-8.821489602E-2,-7.481687844E-2,2.047110785E0,2.050376063E0
1.264189000E0,-1.734061968E-1,-3.536998290E-1,2.096629100E0,2.133313587E0
1.274219000E0,1.205374271E-2,-4.226969737E-1,1.818067746E0,1.866598070E0
1.284249000E0,4.106514171E-1,-2.331319964E-1,1.123322048E0,1.218539099E0
1.294279000E0,7.761287078E-1,2.868749249E-1,6.784290433E-2,8.302262663E-1
1.304310000E0,7.237940812E-1,9.427483338E-1,-8.849942154E-1,1.481845827E0
1.314340000E0,3.056830788E-1,1.126766642E0,-1.150262509E0,1.638947544E0
1.324370000E0,-2.886229500E-1,8.033688390E-1,-8.278365129E-1,1.189124884E0
1.334400000E0,-7.923597014E-1,4.135548520E-1,-3.716017375E-1,9.679614472E-1
1.344430000E0,-1.097412743E0,1.019193077E-1,-2.232879896E-2,1.102361487E0
1.354460000E0,-1.257433201E0,-1.329358631E-1,1.668514681E-1,1.275401745E0
1.364490000E0,-1.323151812E0,-2.623832774E-1,2.890400758E-1,1.379536106E0
1.374520000E0,-1.270864548E0,-2.632662070E-1,3.279883792E-1,1.338649383E0
1.384550000E0,-1.150945756E0,-1.017181635E-1,2.790636295E-1,1.188654377E0
1.394580000E0,-1.001828601E0,2.317193091E-1,1.108246171E-1,1.034232314E0
1.404610000E0,-7.836257154E-1,6.304760277E-1,-1.667549159E-1,1.019498154E0
1.414640000E0,-5.309400451E-1,9.887267447E-1,-4.089337244E-1,1.194447445E0
1.424670000E0,-2.470834529E-1,1.140562563E0,-4.954953933E-1,1.267852072E0
1.434700000E0,-1.027504894E-1,8.593968594E-1,-3.990905946E-1,9.530970191E-1
1.444730000E0,-1.010445642E-1,3.371510392E-1,-3.200122654E-1,4.756980947E-1
1.454760000E0,-6.889891148E-2,-9.165101230E-2,-3.845567554E-1,4.012865139E-1
1.464790000E0,2.901622295E-2,-3.959623343E-1,-5.180013263E-1,6.526511208E-1
1.474820000E0,1.048475933E-1,-6.270162302E-1,-6.103902572E-1,8.813164227E-1
1.484850000E0,1.761824548E-1,-7.342553347E-1,-5.467767171E-1,9.322746013E-1
1.494881000E0,3.011120179E-1,-5.895659834E-1,-4.198949879E-1,7.839440650E-1
1.504911000E0,4.551311865E-1,-2.624926203E-1,-4.228589416E-1,6.744304687E-1
1.514941000E0,5.542561099E-1,-7.015723228E-2,-5.799093068E-1,8.052432407E-1
1.524971000E0,5.772587639E-1,-8.722817838E-2,-8.119648308E-1,1.000061659E0
1.535001000E0,4.891701677E-1,-2.614494771E-1,-1.244283983E0,1.362309037E0
1.545031000E0,9.753535777E-2,-4.434908420E-1,-2.081567403E0,2.130521093E0
1.555061000E0,-5.668138826E-1,-5.423111254E-1,-3.147950288E0,3.244221070E0
1.565091000E0,-1.396172426E0,-5.154928708E-1,-3.942714365E0,4.214264693E0
1.575121458E0,-2.355963054E0,-4.449772042E-1,-4.147931753E0,4.791023320E0
1.585151458E0,-3.326956071E0,-4.785273582E-1,-3.909572931E0,5.155810861E0
1.595181458E0,-4.110386782E0,-6.179261488E-1,-3.298284541E0,5.306203269E0
1.605211458E0,-4.590216315E0,-8.560645312E-1,-2.261641472E0,5.188251579E0
1.615241458E0,-4.796396740E0,-1.205124010E0,-1.097365088E0,5.065763092E0
1.625271458E0,-4.887570912E0,-1.580847377E0,-2.080521190E-1,5.141080969E0
1.635301458E0,-4.882551662E0,-1.766640900E0,6.618821539E-2,5.192755692E0
1.645331458E0,-4.571591471E0,-1.358351465E0,-3.206887883E-1,4.779896294E0
1.655361458E0,-4.055915582E0,-6.282991093E-1,-1.218476054E0,4.281342649E0
1.665391458E0,-3.436587564E0,1.143487340E-1,-2.281663070E0,4.126644652E0
1.675422458E0,-2.772735921E0,8.539700586E-1,-2.937025432E0,4.128371076E0
1.685452458E0,-2.122225286E0,1.535332650E0,-2.903578774E0,3.910480304E0
1.695482458E0,-1.476139239E0,2.025510585E0,-2.499377128E0,3.539571473E0
1.705512458E0,-9.083860016E-1,2.337043803E0,-2.145950364E0,3.300309354E0
1.715542458E0,-4.519274971E-1,2.498717562E0,-1.747868414E0,3.082672852E0
1.725572458E0,-3.446039003E-1,2.333644232E0,-1.209049830E0,2.650744941E0
1.735602458E0,-9.827795416E-1,1.600576467E0,-7.239858699E-1,2.012922302E0
1.745632458E0,-1.924992855E0,5.511825210E-1,-2.901259768E-1,2.023257953E0
1.755662458E0,-3.208950781E0,-2.797483385E-1,3.937561798E-1,3.245099101E0
1.765692458E0,-4.195736834E0,-7.540312028E-1,9.873606889E-1,4.375802986E0
1.775722458E0,-4.795371723E0,-8.555979234E-1,1.260450511E0,5.031537862E0
1.785752458E0,-5.417562831E0,-6.461798948E-1,1.513723972E0,5.662057554E0
1.795782458E0,-5.953768294E0,-1.253233731E-1,1.948263166E0,6.265683698E0
1.805812458E0,-6.152682384E0,5.556994951E-1,2.358324599E0,6.612563600E0
1.815842458E0,-6.043755189E0,9.836788434E-1,2.419592747E0,6.583998019E0
1.825872458E0,-5.445232440E0,1.290084638E0,2.656119930E0,6.194339979E0
1.835902458E0,-4.493558332E0,1.268708972E0,3.076781195E0,5.591803954E0
1.845933458E0,-3.736892958E0,1.019628110E0,3.606286626E0,5.292382610E0
1.855963458E0,-3.142631368E0,8.790265471E-1,4.245052836E0,5.354371407E0
1.865993458E0,-2.810343166E0,8.704369873E-1,4.500860335E0,5.377121257E0
1.876023458E0,-2.850833673E0,9.849582142E-1,4.044535147E0,5.045360231E0
1.886053458E0,-3.039661024E0,1.182885879E0,3.018007615E0,4.443774083E0
1.896083458E0,-3.074837288E0,1.231000278E0,2.161760358E0,3.955147770E0
1.906113458E0,-2.644873103E0,1.109167693E0,2.013006315E0,3.503969338E0
1.916143458E0,-2.147110451E0,8.972242516E-1,2.344514498E0,3.303307870E0
1.926173458E0,-1.877605265E0,6.572106671E-1,2.735285382E0,3.382175855E0
1.936203458E0,-1.859112861E0,4.272642338E-1,2.861424150E0,3.438982919E0
1.946233458E0,-1.982080683E0,1.465440881E-1,2.751369611E0,3.394135198E0
1.956263458E0,-2.151061123E0,-2.152862942E-1,2.621536865E0,3.397921082E0
1.966293458E0,-2.336274894E0,-5.520496631E-1,2.612236284E0,3.547776433E0
1.976323458E0,-2.453841351E0,-8.626525891E-1,2.784175414E0,3.810136428E0
1.986353458E0,-2.427745813E0,-1.089028713E0,3.108475735E0,4.091766692E0
1.996383458E0,-2.456652693E0,-1.220299873E0,3.407348270E0,4.374276679E0
2.006413458E0,-2.365274453E0,-1.218652713E0,3.623002354E0,4.495084396E0
2.016444458E0,-2.131406584E0,-1.184727752E0,3.609318115E0,4.355875472E0
2.026474458E0,-1.834539353E0,-1.122666575E0,3.305974215E0,3.944030981E0
2.036504458E0,-1.327790993E0,-1.036846406E0,2.832353840E0,3.295498090E0
2.046534458E0,-6.012177300E-1,-1.001514021E0,2.561715171E0,2.815471135E0
2.056564458E0,4.190439257E-1,-7.987068540E-1,2.465092564E0,2.624921294E0
2.066594458E0,1.317782606E0,-4.635327584E-1,2.470012119E0,2.837670432E0
2.076624458E0,2.102793235E0,-2.098858058E-1,2.507457980E0,3.279197609E0
2.086654458E0,2.652111956E0,-1.111894834E-1,2.513750753E0,3.655817799E0
2.096684458E0,3.101256178E0,-5.869493544E-2,2.530626110E0,4.003161686E0
2.106714458E0,3.492440460E0,-8.583186328E-2,2.393342550E0,4.234689603E0
2.116744458E0,3.745751782E0,-1.675057715E-1,2.192088404E0,4.343266762E0
2.126774458E0,3.925114245E0,-1.203269273E-1,2.165747282E0,4.484580437E0
2.136804458E0,3.788623860E0,-1.419499308E-1,1.918114775E0,4.248880420E0
2.146834458E0,3.351769900E0,-4.349334419E-2,1.605222080E0,3.716583251E0
2.156864458E0,2.919842219E0,1.666146559E-1,1.422976062E0,3.252399100E0
2.166895458E0,2.634391091E0,2.363614136E-1,1.234681393E0,2.918958938E0
2.176925458E0,2.460210139E0,1.775448561E-1,9.682603204E-1,2.649846062E0
2.186955458E0,2.338251253E0,4.005810499E-2,6.691872266E-1,2.432454546E0
2.196985458E0,2.183350763E0,-7.809365809E-2,3.569728079E-1,2.213718311E0
2.207015458E0,1.928286007E0,-1.031448841E-1,5.821721792E-2,1.931920039E0
2.217045458E0,1.566620370E0,-8.904081523E-2,-3.550473198E-1,1.608815170E0
2.227075458E0,1.122965075E0,-1.870524287E-3,-8.306624722E-1,1.396801418E0
2.237105458E0,6.694607301E-1,7.083375514E-2,-1.196258169E0,1.372672101E0
2.247135458E0,1.910701968E-1,5.050532520E-2,-1.414076308E0,1.427820161E0
2.257165458E0,-4.162435479E-1,-1.725747228E-2,-1.459072094E0,1.517381919E0
2.267195458E0,-1.153871995E0,-1.255397201E-3,-1.391302572E0,1.807524552E0
2.277225458E0,-2.005047669E0,2.445065850E-1,-1.318700619E0,2.412254329E0
2.287255458E0,-2.811090440E0,6.511769253E-1,-1.352179145E0,3.186636046E0
2.297285458E0,-3.383067122E0,1.047404138E0,-1.535236756E0,3.859941771E0
2.307315458E0,-3.822779201E0,1.405505167E0,-1.786719361E0,4.447634390E0
2.317346458E0,-3.905633077E0,1.667025980E0,-1.895518503E0,4.650369420E0
2.327376458E0,-3.747141373E0,2.046693878E0,-1.790106361E0,4.629741363E0
2.337406458E0,-3.131413485E0,2.436796718E0,-1.418359393E0,4.213724247E0
2.347436458E0,-2.125892660E0,2.744535677E0,-8.946067455E-1,3.584998872E0
2.357466458E0,-8.605888143E-1,2.884968256E0,-1.297184327E-1,3.013383782E0
2.367496458E0,1.183932531E-1,2.413163441E0,5.346847482E-1,2.474522689E0
2.377526458E0,6.188646269E-1,1.324279740E0,1.036890552E0,1.792164131E0
2.387556458E0,8.537844095E-1,3.047539562E-1,1.628706837E0,1.864003420E0
2.397586458E0,9.143715039E-1,-5.990753102E-1,2.251845924E0,2.503153320E0
2.407616458E0,9.969052452E-1,-1.384854555E0,2.714575714E0,3.206331785E0
2.417646458E0,9.532508102E-1,-2.465729910E0,2.617620692E0,3.720275418E0
2.427676458E0,9.115198168E-1,-4.027160438E0,1.639910248E0,4.442768865E0
2.437706458E0,1.135477532E0,-6.418359398E0,-1.876641644E0,6.782804026E0
2.447736458E0,1.394487258E0,-9.198229215E0,-7.111195396E0,1.170987256E1
2.457766458E0,1.382383522E0,-9.945475309E0,-9.229783130E0,1.363863483E1
2.467797458E0,1.814011825E0,-7.406610764E0,-9.095562633E0,1.186919465E1
2.477827458E0,2.706471473E0,-2.861852458E0,-6.524543080E0,7.621341728E0
2.487857458E0,2.753434555E0,9.978215039E-1,-2.437809455E0,3.810507124E0
2.497887458E0,2.186395262E0,3.106323960E0,9.550524835E-1,3.916847972E0
2.507917458E0,1.708758435E0,4.054360515E0,3.347980027E0,5.528712765E0
2.517947458E0,1.209395109E0,4.267144786E0,4.914017576E0,6.619571730E0
2.527977458E0,6.129817432E-1,4.135635059E0,5.362289686E0,6.799512823E0
2.538007458E0,5.984566748E-2,3.976348134E0,4.866055205E0,6.284378986E0
2.548037458E0,-6.061519030E-1,3.542049699E0,4.276223173E0,5.585662076E0
2.558067458E0,-1.294979927E0,2.825609077E0,3.656096717E0,4.798758472E0
2.568097458E0,-1.838048851E0,1.997925761E0,3.056530241E0,4.088093448E0
2.578127250E0,-2.382382821E0,1.100416750E0,3.024971648E0,4.004637113E0
2.588157250E0,-2.778564718E0,2.894137859E-1,2.965919740E0,4.074415558E0
2.598187250E0,-3.270088683E0,-3.690908700E-1,2.801692210E0,4.321942538E0
2.608217250E0,-3.813542062E0,-9.428032976E-1,2.233720725E0,4.519014206E0
2.618248250E0,-4.830411748E0,-1.112985924E0,-1.062907958E0,5.069653701E0
2.628278250E0,-5.315464599E0,-7.086708426E-1,-2.235242025E0,5.809706117E0
2.638308250E0,-4.469885587E0,-3.891877502E-1,-6.728391051E-1,4.536965586E0
2.648338250E0,-3.672339990E0,-2.086263156E-1,-6.360963714E-1,3.732857422E0
2.658368250E0,-2.897819559E0,1.378060091E-1,-1.559032584E0,3.293467973E0
2.668398250E0,-1.819389802E0,6.775069374E-1,-2.839706714E0,3.439931557E0
2.678428250E0,-5.437884244E-1,1.066466061E0,-3.818656914E0,4.001899091E0
2.688458250E0,-2.368695366E-1,1.116639265E0,-2.532764729E0,2.778108637E0
2.698488250E0,-9.042233688E-1,8.595062023E-1,-7.082445806E-1,1.434566554E0
2.708518250E0,-1.517576118E0,5.940221465E-1,7.339460170E-1,1.787337780E0
2.718548250E0,-1.675311777E0,5.349699461E-1,1.788458031E0,2.508275208E0
2.728578250E0,-1.571518729E0,5.300477600E-1,2.524380407E0,3.020449996E0
2.738608250E0,-1.339656748E0,6.213456005E-1,2.773968222E0,3.142554734E0
2.748638250E0,-1.038750844E0,8.180576295E-1,2.680974689E0,2.989288692E0
2.758669250E0,-6.254722729E-1,1.066315203E0,2.420095900E0,2.717555490E0
2.768699250E0,-2.487776837E-1,1.200468457E0,2.214435292E0,2.531153594E0
2.778729250E0,9.024709582E-2,1.200831569E0,2.088370492E0,2.410691251E0
2.788759250E0,3.921122351E-1,1.077617871E0,1.897692790E0,2.217261871E0
2.798789250E0,6.486570677E-1,8.729670775E-1,1.688405739E0,2.008367857E0
2.808819250E0,9.900198564E-1,7.437512130E-1,1.480778713E0,1.930287745E0
2.818849250E0,1.273477668E0,5.744632101E-1,1.373064814E0,1.958841580E0
2.828879250E0,1.589511196E0,4.198096186E-1,1.266463056E0,2.075262545E0
2.838909250E0,1.846693083E0,2.554239213E-1,1.091403852E0,2.160249775E0
2.848939250E0,2.016871324E0,7.541738749E-3,8.831750735E-1,2.201777697E0
2.858969250E0,2.042794955E0,-3.711479205E-1,6.701768678E-1,2.181719285E0
2.868999250E0,2.021300882E0,-7.066851282E-1,3.740035544E-1,2.173692661E0
2.879029250E0,1.937597698E0,-9.838320404E-1,-2.178931291E-1,2.183961478E0
2.889059250E0,1.800388982E0,-1.098952022E0,-1.297940372E0,2.476639910E0
2.899089250E0,1.557555578E0,-9.623131174E-1,-2.411594049E0,3.027839456E0
2.909120250E0,1.273606600E0,-4.781046045E-1,-3.150623635E0,3.431776081E0
2.919150250E0,1.001523668E0,8.978399634E-2,-3.266650520E0,3.417911123E0
2.929180250E0,5.249533734E-1,3.232112771E-1,-2.772946714E0,2.840646942E0
2.939210250E0,-1.441280186E-2,2.731842542E-1,-2.106218095E0,2.123909609E0
2.949240250E0,-3.187904897E-1,6.099347591E-2,-1.487622294E0,1.522618688E0
2.959270250E0,-4.762130302E-1,-2.222871655E-1,-1.018872942E0,1.146425971E0
2.969300250E0,-5.691147619E-1,-5.283824730E-1,-7.704355663E-1,1.093915267E0
2.979330250E0,-6.867964089E-1,-7.410954076E-1,-8.123068929E-1,1.296439045E0
2.989360250E0,-9.033749378E-1,-7.864586914E-1,-1.172944589E0,1.676425531E0
2.999390250E0,-1.209576665E0,-7.174457592E-1,-1.877341848E0,2.345680400E0
3.009420250E0,-1.619760597E0,-5.321691298E-1,-2.786408173E0,3.266634183E0
3.019450250E0,-1.996946060E0,-2.538972133E-1,-3.665773274E0,4.182122793E0
3.029480250E0,-2.209255829E0,9.336658537E-2,-4.222398384E0,4.766358856E0
3.039510250E0,-2.376858079E0,3.441636050E-1,-4.201049615E0,4.839082638E0
3.049540250E0,-2.604902706E0,3.169997799E-1,-3.654061301E0,4.498685470E0
3.059571250E0,-2.833235600E0,6.196002066E-2,-2.751003283E0,3.949567327E0
3.069601250E0,-3.002382685E0,-3.193679023E-1,-2.048890677E0,3.648869777E0
3.079631250E0,-3.204611270E0,-7.252617323E-1,-2.095058538E0,3.896768949E0
3.089661250E0,-3.400499133E0,-1.333696096E0,-2.670897890E0,4.525023223E0
3.099691250E0,-3.533704261E0,-2.101068891E0,-3.153531748E0,5.181343337E0
3.109721250E0,-3.641721045E0,-2.786489450E0,-3.355157192E0,5.681877806E0
3.119751250E0,-4.018233786E0,-3.381217355E0,-3.077136413E0,6.086674138E0
3.129781250E0,-4.614958223E0,-3.730866818E0,-2.411084464E0,6.405508169E0
3.139811250E0,-5.042055227E0,-3.577245845E0,-1.657789426E0,6.400568297E0
3.149841250E0,-5.151244962E0,-3.148922095E0,-1.079738218E0,6.133259300E0
3.159871250E0,-4.831923545E0,-2.684618674E0,-4.741185576E-1,5.547923123E0
3.169901250E0,-3.780477811E0,-1.989551963E0,-4.287359780E-1,4.293500208E0
3.179931250E0,-2.121003511E0,-9.313439244E-1,-1.164466565E0,2.592689680E0
3.189961250E0,-5.740755397E-1,-1.903502584E-2,-1.864313959E0,1.950792556E0
3.199991250E0,3.536097819E-1,3.723144400E-1,-2.030490074E0,2.094408714E0
3.210022250E0,8.222518373E-1,5.771049821E-1,-1.538246318E0,1.837212556E0
3.220052250E0,9.107000372E-1,6.345129454E-1,-7.633984423E-1,1.347129696E0
3.230082250E0,8.002461335E-1,5.907015127E-1,-1.328370452E-1,1.003477868E0
3.240112250E0,2.588647154E-1,5.233912897E-1,5.717782418E-1,8.172390965E-1
3.250142250E0,-1.825006637E-1,1.434871638E-1,1.566769620E0,1.583875658E0
3.260172250E0,-3.716016644E-1,-2.098530614E-1,2.858750510E0,2.890429135E0
3.270202250E0,-6.316200355E-1,-3.374843305E-1,3.277094232E0,3.354427842E0
3.280232250E0,-8.023698422E-1,-4.873385274E-1,3.420411826E0,3.546901925E0
3.290262250E0,-9.526888928E-1,-7.442529041E-1,3.587328783E0,3.785558917E0
3.300292250E0,-1.048112821E0,-8.987971526E-1,3.298759335E0,3.576057880E0
3.310322250E0,-1.128634828E0,-1.067623225E0,2.904701439E0,3.294074434E0
3.320352250E0,-1.061032829E0,-1.025163084E0,2.571164564E0,2.964394918E0
3.330382250E0,-8.818723869E-1,-7.579295415E-1,2.422681539E0,2.687292678E0
3.340412250E0,-6.430937344E-1,-4.054254681E-1,2.377983376E0,2.496546474E0
3.350442250E0,-3.485621729E-1,-1.072046059E-1,2.800578901E0,2.824222122E0
3.360473250E0,1.052434498E-1,8.670660675E-2,3.164880609E0,3.167816833E0
3.370503250E0,5.521835643E-1,2.329074633E-1,3.195971424E0,3.251674325E0
3.380533250E0,8.109968242E-1,2.942476791E-1,3.320533489E0,3.430778366E0
3.390563250E0,9.004282334E-1,3.494588435E-1,3.382242664E0,3.517450487E0
3.400593250E0,7.889712399E-1,2.993160456E-1,3.096416145E0,3.209339287E0
3.410623250E0,7.986314249E-1,3.426041526E-1,2.948267874E0,3.073674220E0
3.420653250E0,8.694719043E-1,5.514900845E-1,2.857175563E0,3.037033899E0
3.430683250E0,7.514233446E-1,7.059577346E-1,2.747306088E0,2.934400127E0
3.440713250E0,4.656403872E-1,7.955481881E-1,2.640613114E0,2.796883177E0
3.450743250E0,3.264269534E-1,9.037129068E-1,2.775712154E0,2.937316724E0
3.460773250E0,6.305052638E-2,9.980594856E-1,2.910596894E0,3.077608225E0
3.470803250E0,-1.034384143E-1,1.060327070E0,2.813429326E0,3.008384546E0
3.480833250E0,-3.456523061E-2,1.138510190E0,2.731477675E0,2.959454426E0
3.490863250E0,3.710230824E-1,1.205240369E0,2.703577101E0,2.983218332E0
3.500894250E0,1.061133108E0,1.312041517E0,2.793611651E0,3.263697669E0
3.510924250E0,1.694904627E0,1.424591648E0,3.007990749E0,3.734992826E0
3.520954250E0,2.148927181E0,1.518479805E0,3.113220751E0,4.076249795E0
3.530984250E0,2.344897199E0,1.637337327E0,3.151157193E0,4.255491517E0
3.541014250E0,2.340789530E0,1.791029052E0,2.966035808E0,4.181441031E0
3.551044250E0,2.234502352E0,1.827568302E0,2.589544702E0,3.877982519E0
3.561074250E0,2.163939615E0,1.831486521E0,2.069011823E0,3.509670563E0
3.571104250E0,2.107260215E0,1.777352414E0,1.544793737E0,3.160049827E0
3.581134333E0,2.000309671E0,1.679309810E0,8.783973867E-1,2.755522126E0
3.591164333E0,1.745519880E0,1.549587577E0,-8.093072712E-2,2.335510885E0
3.601194333E0,1.251567128E0,1.400033342E0,-1.162943950E0,2.208835048E0
3.611224333E0,5.542739439E-1,1.294537877E0,-1.964808885E0,2.417337767E0
3.621254333E0,-2.821471587E-1,1.247187125E0,-2.053387771E0,2.418984101E0
3.631284333E0,-1.063666122E0,1.112293614E0,-1.752936488E0,2.332674224E0
3.641315333E0,-1.796972162E0,7.269667804E-1,-1.767476175E0,2.623273085E0
3.651345333E0,-2.542754405E0,3.471199572E-2,-2.346900162E0,3.460454487E0
3.661375333E0,-3.066557923E0,-9.766808957E-1,-3.652226153E0,4.867898822E0
3.671405333E0,-3.176370680E0,-2.128052037E0,-5.169635625E0,6.429857593E0
3.681435333E0,-2.773182649E0,-3.251299825E0,-6.241202213E0,7.564000107E0
3.691465333E0,-1.950650730E0,-4.044499186E0,-6.156368469E0,7.619966185E0
3.701495333E0,-1.084308840E0,-4.672468513E0,-4.751056553E0,6.751312912E0
3.711525333E0,-5.587102264E-2,-4.447265925E0,-3.447095303E0,5.627056229E0
3.721555333E0,8.329449329E-1,-2.855768430E0,-3.273699338E0,4.423383088E0
3.731585333E0,1.455283098E0,-3.261588585E-1,-2.843498341E0,3.210873917E0
3.741615333E0,1.986184259E0,2.389768147E0,-1.417639016E0,3.415497048E0
3.751645333E0,2.220815482E0,4.512639551E0,3.372156510E-1,5.040798698E0
3.761675333E0,2.227262622E0,5.693802255E0,2.327822160E0,6.542082155E0
3.771706333E0,2.067136329E0,5.634075286E0,3.951921390E0,7.185648169E0
3.781736333E0,1.803920116E0,4.273477321E0,5.070338209E0,6.872049603E0
3.791766333E0,1.287300486E0,1.646317481E0,5.598786170E0,5.976111643E0
3.801796333E0,7.831976992E-1,-1.279545617E0,5.445314301E0,5.648192938E0
3.811826333E0,5.219946823E-1,-4.200577744E0,4.739563558E0,6.354588465E0
3.821856333E0,-3.934421843E-1,-8.680382255E0,-1.895883662E0,8.893717317E0
3.831886333E0,-2.359465829E0,-1.537123535E1,-1.541882818E1,2.189936569E1
3.841916333E0,-2.178069119E0,-1.558605972E1,-1.171959421E1,1.962187889E1
3.851946333E0,-5.162088624E-1,-9.455951677E0,-4.442104003E0,1.046010429E1
3.861976333E0,1.498751592E0,-1.953544225E0,2.014298111E0,3.181192897E0
3.872006333E0,2.216829435E0,1.809964675E0,5.702046245E0,6.379940144E0
3.882036333E0,2.673065453E0,3.533217480E0,6.450170006E0,7.825189952E0
3.892066333E0,2.487983536E0,4.372435598E0,5.638457190E0,7.556484276E0
3.902097333E0,1.961711031E0,4.864895117E0,4.770285999E0,7.090214607E0
3.912127333E0,1.358657567E0,5.138685728E0,4.426408907E0,6.917017942E0
3.922157333E0,5.738448671E-1,4.750077437E0,3.989880345E0,6.229901986E0
3.932187333E0,8.951911747E-2,3.695353169E0,3.452100227E0,5.057731180E0
3.942217333E0,-2.488171524E-1,2.256287323E0,3.146845164E0,3.880125893E0
3.952247333E0,-6.477139118E-1,9.536206466E-1,2.983842334E0,3.198787383E0
3.962277333E0,-1.118895705E0,-6.635127962E-2,2.882456292E0,3.092714724E0
3.972307333E0,-1.552156259E0,-7.949821776E-1,2.436132474E0,2.995985171E0
3.982337333E0,-2.362660455E0,-1.061141002E0,-5.681224164E-1,2.651593433E0
3.992367333E0,-3.217509058E0,-4.871572638E-1,-2.435995357E0,4.064942818E0
4.002397333E0,-2.560858262E0,2.426302135E-2,-6.124421183E-1,2.633186108E0
4.012427333E0,-1.706768335E0,2.387634498E-1,-4.427745581E-2,1.723956678E0
4.022457333E0,-1.061410559E0,3.860548121E-1,-2.883765264E-1,1.165672215E0
4.032488333E0,-4.581784630E-1,5.218230665E-1,-9.161206985E-1,1.149566854E0
4.042518333E0,-5.011005342E-2,4.844833320E-1,-1.264673223E0,1.355224512E0
4.052548333E0,1.801530066E-1,3.903080767E-1,-9.011705375E-1,9.984507189E-1
4.062578333E0,3.754584879E-1,4.063633615E-1,-4.061242104E-2,5.547518602E-1
4.072608333E0,4.455072543E-1,4.392492718E-1,8.084646875E-1,1.022267963E0
4.082638333E0,3.886404508E-1,5.379678136E-1,1.566855574E0,1.701613105E0
4.092668333E0,4.342621815E-1,7.096414804E-1,1.911498066E0,2.084706102E0
4.102698333E0,5.651348546E-1,9.839910847E-1,1.904434630E0,2.216864253E0
4.112728333E0,6.970226043E-1,1.208466863E0,1.739715641E0,2.229987261E0
4.122758333E0,6.234973758E-1,1.082402063E0,1.524211830E0,1.970676256E0
4.132788333E0,4.124409574E-1,6.661212391E-1,1.387314479E0,1.593256574E0
4.142818333E0,2.545354369E-1,2.839115560E-1,1.392582820E0,1.443842433E0
4.152848333E0,2.116124886E-1,-8.459576190E-2,1.535105778E0,1.551929779E0
4.162879333E0,1.882651412E-1,-4.586140805E-1,1.500782622E0,1.580543931E0
4.172909333E0,2.298379675E-1,-5.626611900E-1,1.301103131E0,1.436064923E0
4.182939333E0,3.413250741E-1,-3.738651216E-1,8.813180709E-1,1.016365819E0
4.192969333E0,5.626924726E-1,2.414724648E-2,4.237061300E-1,7.047927304E-1
4.202999333E0,8.735848358E-1,4.524119389E-1,1.099036076E-1,9.899019299E-1
4.213029333E0,1.121722249E0,6.662095320E-1,-1.419867682E-1,1.312347586E0
4.223059333E0,1.190055443E0,6.182027221E-1,-4.817575063E-1,1.424955037E0
4.233089333E0,9.955483988E-1,3.186867017E-1,-1.072918025E0,1.497942228E0
4.243119333E0,7.151247069E-1,-9.308007181E-2,-1.774908863E0,1.915820638E0
4.253149333E0,4.372749594E-1,-5.498668975E-1,-2.219591367E0,2.328121310E0
4.263179333E0,1.549772349E-1,-1.051519409E0,-2.480085994E0,2.698247125E0
4.273209333E0,-3.661234081E-3,-1.386283030E0,-2.885832182E0,3.201534230E0
4.283239333E0,-2.964187503E-2,-1.267415568E0,-3.572121637E0,3.790418691E0
4.293270333E0,-5.377888888E-2,-6.207719886E-1,-4.057874107E0,4.105434484E0
4.303300333E0,-2.931431401E-1,1.116847426E-1,-3.945523367E0,3.957974358E0
4.313330333E0,-7.061948392E-1,5.281661260E-1,-3.557629313E0,3.665296296E0
4.323360333E0,-1.270108503E0,6.793295145E-1,-2.973589241E0,3.304072816E0
4.333390333E0,-1.837518801E0,5.639089859E-1,-2.387869848E0,3.065353341E0
4.343420333E0,-2.343544445E0,2.115873456E-1,-1.875791751E0,3.009246495E0
4.353450333E0,-2.868874087E0,-1.872278452E-1,-1.330954921E0,3.168112024E0
4.363480333E0,-3.378306904E0,-5.682224768E-1,-6.749490729E-1,3.491617185E0
4.373510333E0,-3.866430420E0,-1.018565086E0,-3.982225755E-1,4.018126460E0
4.383540333E0,-4.218820765E0,-1.238302866E0,-6.899995136E-1,4.450611414E0
4.393570333E0,-4.240784369E0,-9.576277435E-1,-1.552168538E0,4.616332974E0
4.403600333E0,-3.931220785E0,-4.548964208E-1,-2.930994029E0,4.924647562E0
4.413631333E0,-3.332237861E0,-2.537217969E-1,-4.673230990E0,5.745195540E0
4.423661333E0,-2.661224841E0,-7.088117605E-1,-6.415142845E0,6.981302850E0
4.433691333E0,-2.057348382E0,-1.499707904E0,-6.470466861E0,6.953326366E0
4.443721333E0,-2.123392391E0,-2.710401971E0,-4.397217268E0,5.584853963E0
4.453751333E0,-2.825450325E0,-4.079638613E0,-1.979851432E0,5.342886153E0
4.463781333E0,-3.330148943E0,-4.760770240E0,-4.468186386E-1,5.827046607E0
4.473811333E0,-3.188155743E0,-4.683301649E0,5.976380646E-2,5.665794127E0
4.483841333E0,-2.720268271E0,-4.595058394E0,-3.472855796E-1,5.351170749E0
4.493871333E0,-2.048422315E0,-4.792109562E0,-1.040683349E0,5.314449159E0
4.503901333E0,-1.196775648E0,-4.680072232E0,-1.427990781E0,5.037311358E0
4.513931333E0,-4.227858514E-1,-4.310372667E0,-1.335394274E0,4.532255318E0
4.523961333E0,1.707597470E-1,-3.938251185E0,-6.813188104E-1,4.000397056E0
4.533991333E0,3.659380513E-1,-3.490875453E0,3.268926841E-1,3.525192323E0
4.544021333E0,2.948935041E-1,-2.977450742E0,1.628765894E0,3.406619062E0
4.554052333E0,7.441976479E-1,-2.005656365E0,2.754906299E0,3.487978829E0
4.564082333E0,1.660761273E0,-7.315749711E-1,3.964223932E0,4.359862535E0
4.574112333E0,2.218446190E0,5.584131879E-1,4.420890305E0,4.977710305E0
4.584142125E0,2.481781394E0,1.606409065E0,4.153340428E0,5.098041357E0
4.594172125E0,2.768274204E0,2.455672699E0,3.430340399E0,5.045880074E0
4.604202125E0,2.877647249E0,2.967189463E0,2.419811872E0,4.789630100E0
4.614232125E0,2.430090546E0,2.847582913E0,2.097716682E0,4.291210061E0
4.624262125E0,1.913066582E0,2.241770441E0,2.098682642E0,3.617986635E0
4.634292125E0,1.641055864E0,1.503706815E0,2.051834750E0,3.027246996E0
4.644322125E0,1.444341788E0,8.246684915E-1,2.376982333E0,2.901076754E0
4.654352125E0,1.355948845E0,3.292765939E-1,2.832447395E0,3.157495620E0
4.664382125E0,1.190464163E0,-1.298842013E-2,3.101277813E0,3.321941856E0
4.674412125E0,8.780138093E-1,-3.290064526E-1,2.993912701E0,3.137302465E0
4.684443125E0,7.742204690E-1,-5.615198135E-1,2.811707906E0,2.969919727E0
4.694473125E0,6.323798811E-1,-7.585516852E-1,2.615763617E0,2.795983596E0
4.704503125E0,4.816564956E-1,-7.564162821E-1,2.468783034E0,2.626603937E0
4.714533125E0,4.521303955E-1,-6.587607640E-1,2.498748260E0,2.623381502E0
4.724563125E0,5.082844234E-1,-4.105236554E-1,2.552104103E0,2.634410385E0
4.734593125E0,4.221140063E-1,-9.637497783E-2,2.679524872E0,2.714281104E0
4.744623125E0,3.541284299E-1,3.792223406E-1,3.059283987E0,3.102971969E0
4.754653125E0,4.192655352E-1,1.010397695E0,3.538464772E0,3.703703556E0
4.764683125E0,4.772956422E-1,1.519042307E0,3.854447721E0,4.170379826E0
4.774713125E0,4.890380207E-1,1.887698729E0,3.961623383E0,4.415543512E0
4.784743125E0,5.446821713E-1,2.166725521E0,3.924260844E0,4.515661782E0
4.794773125E0,5.219996524E-1,2.318300554E0,3.707047015E0,4.403316780E0
4.804804125E0,5.490073568E-1,2.270738717E0,3.416079040E0,4.138509321E0
4.814834125E0,7.782439381E-1,2.019539409E0,3.140507367E0,3.814051596E0
4.824864125E0,1.326245281E0,1.751358617E0,2.755740112E0,3.524242772E0
4.834894125E0,1.973061646E0,1.482217712E0,2.317643911E0,3.385471149E0
4.844924125E0,2.504554545E0,1.143753389E0,1.872297163E0,3.329633906E0
4.854954125E0,2.889308059E0,7.985595042E-1,1.447768841E0,3.328938714E0
4.864984125E0,3.029005935E0,5.611444223E-1,1.036172807E0,3.250140628E0
4.875014125E0,2.865049716E0,4.853089589E-1,6.620960158E-1,2.980336523E0
4.885044125E0,2.499940507E0,6.369459718E-1,3.309997684E-1,2.600954355E0
4.895074125E0,2.018414989E0,9.255043101E-1,7.866317689E-2,2.221878753E0
4.905104125E0,1.363478889E0,1.245087975E0,-3.370481282E-2,1.846741660E0
4.915134125E0,5.323749518E-1,1.503193429E0,-1.830573186E-1,1.605155306E0
4.925164125E0,-3.615497160E-1,1.652717258E0,-5.233974293E-1,1.770914284E0
4.935195125E0,-1.139186128E0,1.609922656E0,-1.084060626E0,2.250507373E0
4.945225125E0,-1.914050083E0,1.324632912E0,-1.856060322E0,2.977112694E0
4.955255125E0,-2.790235468E0,7.323269230E-1,-3.032915383E0,4.185724837E0
4.965285125E0,-3.778443565E0,-1.830792457E-1,-5.019589055E0,6.285413913E0
4.975315125E0,-4.759175119E0,-1.155915597E0,-7.677008235E0,9.106170662E0
4.985345125E0,-5.589858642E0,-2.066788419E0,-9.488548150E0,1.120493998E1
4.995375125E0,-5.960765657E0,-2.851530953E0,-8.229733837E0,1.055416861E1
5.005405125E0,-5.126287876E0,-3.372347714E0,-4.603407633E0,7.670913787E0
5.015435125E0,-3.116314220E0,-3.039575654E0,-2.982396025E0,5.276847594E0
5.025465125E0,-9.724241227E-1,-1.319310191E0,-3.724183743E0,4.068873628E0
5.035495125E0,1.056816401E0,1.301683760E0,-4.048656557E0,4.382106962E0
5.045525125E0,2.683382573E0,3.533235022E0,-3.204814753E0,5.473127931E0
5.055555125E0,3.648145089E0,4.847704888E0,-1.130728423E0,6.171527529E0
5.065586125E0,3.886481107E0,4.810165179E0,1.526660060E0,6.369702927E0
5.075616125E0,3.623576843E0,3.442572774E0,4.254774124E0,6.563895131E0
5.085646125E0,2.707828904E0,3.203642678E-1,6.748775615E0,7.278800927E0
5.095676125E0,1.211015957E0,-3.684047577E0,7.874072267E0,8.777230786E0
5.105706125E0,6.942346519E-1,-6.567593790E0,7.006931355E0,9.628724576E0
5.115736125E0,-3.637845218E-3,-9.510581043E0,4.288579509E0,1.043278866E1
5.125766125E0,-2.317234021E0,-1.373055342E1,-6.585497965E0,1.540345591E1
5.135796125E0,-2.892901173E0,-1.310361612E1,-7.426494806E0,1.533709418E1
5.145826125E0,-5.423070323E-1,-8.085219902E0,-2.619637982E0,8.516300895E0
5.155856125E0,2.571938151E0,-2.525417118E0,-9.493995416E-1,3.727459854E0
5.165886125E0,3.806813378E0,1.375094967E0,1.666579545E0,4.377236759E0
5.175916125E0,4.278082880E0,3.276806549E0,4.248081694E0,6.861898598E0
5.185946125E0,4.366602124E0,4.075817458E0,5.431815419E0,8.073668361E0
5.195977125E0,3.749819398E0,4.015497581E0,5.950567528E0,8.099050577E0
5.206007125E0,2.674747989E0,3.365879524E0,5.172954504E0,6.726282783E0
5.216037125E0,1.547391070E0,2.614617562E0,4.072763457E0,5.081146160E0
5.226067125E0,6.405528268E-1,1.601501496E0,3.408442576E0,3.820025623E0
5.236097125E0,-3.489384413E-2,3.830171835E-1,3.148418065E0,3.171822198E0
5.246127125E0,-4.396875206E-1,-6.250650144E-1,3.158674082E0,3.249808201E0
5.256157125E0,-7.180518231E-1,-1.276774621E0,3.221691864E0,3.539074783E0
5.266187125E0,-8.809853643E-1,-1.416227791E0,3.093230875E0,3.514244387E0
5.276217125E0,-8.890782031E-1,-1.040834207E0,2.989784274E0,3.288252713E0
5.286247125E0,-1.112468446E0,-2.208902657E-1,1.964292576E0,2.268220421E0
5.296277125E0,-1.336508607E0,8.510113674E-1,7.501135683E-1,1.753039066E0
5.306307125E0,-9.837455016E-1,1.534255593E0,4.306684828E-1,1.872744184E0
5.316337125E0,-4.709338716E-1,1.769876164E0,-6.079233170E-2,1.832467205E0
5.326368125E0,-1.799965936E-1,1.677301877E0,-8.926792109E-1,1.908563997E0
5.336398125E0,7.382811427E-2,1.335138019E0,-1.931265163E0,2.349006014E0
5.346428125E0,3.684026527E-1,9.033556420E-1,-2.218881515E0,2.423882652E0
5.356458125E0,4.004819396E-1,4.565769106E-1,-1.338738735E0,1.470057706E0
5.366488125E0,1.959217778E-1,5.076143324E-2,-2.981318931E-2,2.045749065E-1
5.376518125E0,-1.501740396E-1,-3.175944418E-1,1.060544001E0,1.117216206E0
5.386548125E0,-3.799716613E-1,-3.668975794E-1,1.868944954E0,1.942150236E0
5.396578125E0,-5.598340613E-1,-1.046037644E-1,2.209473930E0,2.281694802E0
5.406608125E0,-6.761150077E-1,3.355050480E-1,2.050999183E0,2.185473127E0
5.416638125E0,-7.561569580E-1,7.459094203E-1,1.565606609E0,1.891898058E0
5.426668125E0,-9.365511623E-1,9.493773222E-1,1.061235142E0,1.704307897E0
5.436698125E0,-1.173800476E0,9.036281222E-1,5.346425021E-1,1.574863151E0
5.446728125E0,-1.260571109E0,8.581356150E-1,7.394206189E-2,1.526729735E0
5.456759125E0,-1.107358856E0,9.069160116E-1,-1.789435831E-1,1.442484348E0
5.466789125E0,-7.473218152E-1,9.519284624E-1,-3.924237455E-1,1.272263373E0
5.476819125E0,-3.259214616E-1,9.717826831E-1,-6.453742216E-1,1.211236669E0
5.486849125E0,9.554116488E-2,8.380580306E-1,-1.036580577E0,1.336401388E0
5.496879125E0,3.820041534E-1,4.643262255E-1,-1.505170957E0,1.620822516E0
5.506909125E0,5.606395152E-1,-1.567170739E-2,-1.905686080E0,1.986504897E0
5.516939125E0,6.911832824E-1,-4.211351824E-1,-2.095390952E0,2.246275231E0
5.526969125E0,7.947760633E-1,-6.870156795E-1,-2.071170908E0,2.322371302E0
5.536999125E0,8.473919410E-1,-7.718804133E-1,-1.952885243E0,2.264427797E0
5.547029125E0,8.461599326E-1,-7.088661397E-1,-1.933490760E0,2.226401661E0
5.557059125E0,7.437877581E-1,-5.145520538E-1,-2.044157502E0,2.235299519E0
5.567089125E0,4.321624464E-1,-2.363766164E-1,-2.106740105E0,2.163560065E0
5.577119583E0,-5.398032546E-2,9.809522867E-2,-2.043977847E0,2.047042253E0
5.587150583E0,-6.613548812E-1,3.020566356E-1,-1.863929797E0,2.000715567E0
5.597180583E0,-1.238700769E0,3.561082971E-1,-1.670973143E0,2.110294756E0
5.607210583E0,-1.704179480E0,4.860287511E-1,-1.559217064E0,2.360425703E0
5.617240583E0,-2.040673293E0,7.735497934E-1,-1.573910825E0,2.690710325E0
5.627270583E0,-2.465413868E0,8.891194260E-1,-1.448819732E0,2.994641466E0
5.637300583E0,-2.978453247E0,6.761246556E-1,-1.123865985E0,3.254443585E0
5.647330583E0,-3.434030576E0,3.352869469E-1,-8.559756535E-1,3.554951147E0
5.657360583E0,-3.666001608E0,6.253421724E-2,-9.592193556E-1,3.789931410E0
5.667390583E0,-3.477934687E0,-2.519430739E-1,-1.598123560E0,3.835818546E0
5.677420583E0,-2.531825959E0,-7.455036235E-1,-2.705206720E0,3.779426112E0
5.687450583E0,-1.361211046E0,-1.005967845E0,-4.314117224E0,4.634271705E0
5.697480583E0,-2.679898801E-1,-1.221265833E0,-5.994667813E0,6.123671366E0
5.707510583E0,4.988765457E-1,-1.541622500E0,-6.911151039E0,7.098555235E0
5.717541583E0,4.174751177E-1,-2.096751891E0,-6.375308688E0,6.724225966E0
5.727571583E0,-8.747800067E-1,-2.895563411E0,-4.579859142E0,5.488591557E0
5.737601583E0,-2.632572315E0,-3.581233061E0,-2.281427427E0,4.996056278E0
5.747631583E0,-3.996703461E0,-3.843489454E0,-2.475857288E-1,5.550436778E0
5.757661583E0,-4.740633599E0,-3.352360761E0,7.614057112E-1,5.855908832E0
5.767691583E0,-5.358446896E0,-2.621714913E0,6.722197388E-1,6.003184288E0
5.777721583E0,-6.123286092E0,-1.910196476E0,-5.010044937E-1,6.433854882E0
5.787751583E0,-6.208807468E0,-9.583820343E-1,-1.528089704E0,6.465511925E0
5.797781583E0,-5.276436188E0,2.953779459E-2,-1.726472282E0,5.551788709E0
5.807811583E0,-4.025252491E0,7.324005979E-1,-8.827833831E-1,4.185495760E0
5.817841583E0,-2.525718250E0,9.560139120E-1,4.872952946E-1,2.744206986E0
5.827871583E0,-1.452083209E0,6.677631372E-1,1.608740934E0,2.267708237E0
5.837901583E0,-1.039319193E0,3.754941559E-1,2.272444496E0,2.526892208E0
5.847931583E0,-9.091706979E-1,1.052206457E-1,2.809428077E0,2.954750220E0
5.857962583E0,-8.365582198E-1,-1.878283542E-1,3.187631832E0,3.300924998E0
5.867992583E0,-7.493700948E-1,-3.615573174E-1,3.649669458E0,3.743309549E0
5.878022583E0,-6.547562984E-1,-6.234482592E-1,3.831265265E0,3.936494262E0
5.888052583E0,-4.790816742E-1,-6.171724427E-1,4.175946933E0,4.248406038E0
5.898082583E0,-3.913523895E-1,-5.551656443E-1,4.300607232E0,4.353916415E0
5.908112583E0,-5.265180883E-1,-7.771744823E-1,4.406183973E0,4.505072550E0
5.918142583E0,-8.648441255E-1,-1.117035706E0,4.709455075E0,4.916776509E0
5.928172583E0,-1.173811001E0,-1.285199874E0,4.863299704E0,5.165390111E0
5.938202583E0,-1.531395135E0,-1.258224329E0,4.877743497E0,5.265043318E0
5.948232583E0,-1.767315084E0,-1.127883461E0,4.935859850E0,5.362670619E0
5.958262583E0,-1.814325528E0,-8.797814226E-1,4.739279091E0,5.150394041E0
5.968292583E0,-1.769993109E0,-5.436431211E-1,4.313723706E0,4.694319510E0
5.978322583E0,-1.458309909E0,-2.433961987E-1,3.948996905E0,4.216691364E0
5.988353583E0,-1.048837876E0,-4.225782752E-3,3.637731197E0,3.785916931E0
5.998383583E0,-4.692019263E-1,2.849897826E-1,3.427434625E0,3.471120530E0
6.008413583E0,2.071545714E-1,5.218464553E-1,3.301557813E0,3.348958156E0
6.018443583E0,7.219185868E-1,7.219890457E-1,3.363169339E0,3.514732228E0
6.028473583E0,1.035626384E0,8.068450087E-1,3.562366435E0,3.796574178E0
6.038503583E0,1.118846004E0,8.436918229E-1,3.883225377E0,4.128325520E0
6.048533583E0,1.016424128E0,8.359173650E-1,4.154137988E0,4.357606943E0
6.058563583E0,8.427720559E-1,8.515487266E-1,4.329571415E0,4.492281003E0
6.068593583E0,6.372175750E-1,9.770252967E-1,4.390570153E0,4.542876945E0
6.078623583E0,4.039771128E-1,1.128119103E0,4.361167137E0,4.522789959E0
6.088653583E0,2.752608928E-1,1.235915447E0,4.332109399E0,4.513360986E0
6.098683583E0,2.135409003E-1,1.175940557E0,4.367612815E0,4.528187011E0
6.108713583E0,2.150141063E-1,9.928431845E-1,4.356656010E0,4.473524365E0
6.118743583E0,4.273276761E-1,7.591364068E-1,4.352914377E0,4.439229730E0
6.128774583E0,7.721297970E-1,5.341887581E-1,4.146601804E0,4.251570131E0
6.138804583E0,1.006480353E0,2.857639539E-1,3.758631737E0,3.901535117E0
6.148834583E0,1.101967139E0,3.548382819E-2,3.288255397E0,3.468171598E0
6.158864583E0,1.071001747E0,-2.824386424E-1,2.754766843E0,2.969100316E0
6.168894583E0,8.584572119E-1,-6.858877516E-1,2.202081295E0,2.461006466E0
6.178924583E0,5.409384915E-1,-9.626259434E-1,1.656315342E0,1.990639011E0
6.188954583E0,2.271020553E-1,-1.016047275E0,1.234964836E0,1.615260213E0
6.198984583E0,-4.384680837E-2,-9.200786787E-1,1.118679066E0,1.449106680E0
6.209014583E0,-3.242322010E-1,-1.011551351E0,1.194871356E0,1.598774597E0
6.219044583E0,-6.115132150E-1,-1.265875411E0,1.237297583E0,1.872777156E0
6.229074583E0,-7.459535667E-1,-1.443416759E0,1.094285506E0,1.958917923E0
6.239104583E0,-7.152746880E-1,-1.375863876E0,7.810244353E-1,1.736265663E0
6.249134583E0,-5.983783221E-1,-1.152328915E0,8.212038700E-1,1.536324946E0
6.259164583E0,-3.508270919E-1,-9.416712767E-1,6.703445368E-1,1.207967814E0
6.269195583E0,3.229174545E-1,-7.534359562E-1,5.667507327E-1,9.965680185E-1
6.279225583E0,1.300839129E0,-3.879995960E-1,-1.664807546E-1,1.367641023E0
6.289255583E0,2.205689027E0,-4.216935915E-1,-1.604660747E0,2.760040884E0
6.299285583E0,2.961077954E0,-7.387237769E-1,-2.832501190E0,4.163743322E0
6.309315583E0,3.424684679E0,-1.102103671E0,-2.341575980E0,4.292560509E0
6.319345583E0,3.329206080E0,-1.311002467E0,-9.175485885E-1,3.693810499E0
6.329375583E0,2.751840019E0,-1.070225821E0,4.599549933E-1,2.988237841E0
6.339405583E0,1.741312808E0,-5.037516618E-1,1.877032238E0,2.609441713E0
6.349435583E0,5.567271432E-1,-1.386333901E-1,3.129988811E0,3.182136748E0
6.359465583E0,-5.435665226E-1,-4.920665860E-2,4.045969176E0,4.082615881E0
6.369495583E0,-1.369851769E0,-2.983243579E-1,4.696978287E0,4.901744212E0
6.379525583E0,-1.662439716E0,-5.058683538E-1,5.081891137E0,5.370775189E0
6.389555583E0,-1.931585298E0,-6.392310637E-1,5.102164603E0,5.492879187E0
6.399585583E0,-2.034918755E0,-7.117464781E-1,5.110369416E0,5.546472119E0
6.409616583E0,-2.212420342E0,-9.975139403E-1,4.888015008E0,5.457337130E0
6.419646583E0,-2.386937802E0,-1.248327332E0,4.390095359E0,5.150604864E0
6.429676583E0,-2.287864334E0,-1.044567654E0,3.693853358E0,4.468780306E0
6.439706583E0,-1.880267503E0,-4.424003363E-1,2.997096802E0,3.565629423E0
6.449736583E0,-1.298618649E0,2.976946127E-1,2.056296322E0,2.450181022E0
6.459766583E0,-7.778407726E-1,9.161587054E-1,1.163158543E0,1.672519308E0
6.469796583E0,-3.860703072E-1,1.337624840E0,3.561165198E-1,1.437048876E0
6.479826583E0,1.357530516E-1,9.929273844E-1,-8.139079775E0,8.200545912E0
6.489856583E0,1.459593958E0,4.543058521E-1,-1.098901502E1,1.109483030E1
6.499886583E0,2.093171349E0,4.905679446E-1,-4.121929185E0,4.648905615E0
6.509916583E0,1.707011287E0,2.457935572E-1,-1.567996366E0,2.330861345E0
6.519946583E0,6.781665033E-1,2.449544817E-1,1.960594980E-1,7.472294367E-1
6.529976583E0,-3.249362057E-1,1.341053063E-1,9.159335876E-1,9.810719177E-1
6.540007583E0,-8.668503052E-1,-5.960885525E-2,1.047926295E0,1.361297979E0
6.550037583E0,-9.943397793E-1,-1.005680162E-1,9.703430986E-1,1.392979272E0
6.560067583E0,-7.784962454E-1,-6.015323102E-2,6.406759107E-1,1.010020019E0
6.570097583E0,-5.769953468E-1,-1.203655189E-1,-1.427656174E-2,5.895891015E-1
6.580127333E0,-1.054187201E0,-3.137937516E-1,-1.112348578E0,1.564319831E0
6.590157333E0,-2.069979245E0,-4.648325944E-1,-1.880386201E0,2.834913699E0
6.600187333E0,-2.777940236E0,-7.668699342E-1,-1.794455520E0,3.394865544E0
6.610217333E0,-2.836548632E0,-9.072393626E-1,-1.074162751E0,3.165899086E0
6.620247333E0,-2.373223158E0,-6.284499675E-1,-1.012035994E-1,2.457107993E0
6.630277333E0,-1.745109113E0,-1.184762836E-1,5.463907278E-1,1.832480634E0
6.640307333E0,-1.196285359E0,3.967435223E-1,9.207435071E-1,1.560856396E0
6.650337333E0,-5.894692120E-1,8.194486821E-1,1.077333112E0,1.476352508E0
6.660367333E0,2.118826300E-2,1.155648964E0,1.161234809E0,1.638425999E0
6.670397333E0,3.488495636E-1,1.260529302E0,1.336948317E0,1.870310386E0
6.680427333E0,3.657813460E-1,1.030579945E0,1.492911100E0,1.850587628E0
6.690458333E0,2.159604782E-1,5.152712613E-1,1.604568361E0,1.699053568E0
6.700488333E0,-8.879581690E-3,-5.696182072E-2,1.665206326E0,1.666203951E0
6.710518333E0,-1.059193879E-1,-4.475733680E-1,1.627549673E0,1.691289086E0
6.720548333E0,1.341193396E-1,-5.866534853E-1,1.468532304E0,1.587053067E0
6.730578333E0,5.040817371E-1,-5.485156059E-1,1.237403564E0,1.444345993E0
6.740608333E0,1.025581745E0,-4.509255767E-1,9.094589657E-1,1.443006376E0
6.750638333E0,1.621603347E0,-4.206562954E-1,1.310326310E-1,1.680392419E0
6.760668333E0,2.367740224E0,-5.205606526E-1,-1.710364373E0,2.966904691E0
6.770698333E0,2.618163022E0,-6.873401999E-1,-3.672444363E0,4.562243062E0
6.780728333E0,2.006733714E0,-8.175126690E-1,-4.426810611E0,4.928687386E0
6.790758333E0,1.093990952E0,-6.552126735E-1,-3.998631288E0,4.197043248E0
6.800788333E0,3.339052498E-1,-3.749760926E-1,-2.992195666E0,3.034029448E0
6.810818333E0,-2.893091208E-1,-1.414944327E-1,-1.891730969E0,1.918949322E0
6.820848333E0,-8.169340870E-1,-1.032150507E-2,-8.879874051E-1,1.206652173E0
6.830879333E0,-1.179151555E0,5.957377195E-2,1.479345560E-2,1.180748182E0
6.840909333E0,-1.357422928E0,1.557990611E-1,7.824112487E-1,1.574496019E0
6.850939333E0,-1.411918685E0,3.640961784E-1,1.310524165E0,1.960498403E0
6.860969333E0,-1.431055160E0,6.359525299E-1,1.609785247E0,2.245832370E0
6.870999333E0,-1.529031983E0,8.808888853E-1,1.644596061E0,2.412177488E0
6.881029333E0,-1.740867543E0,1.084759660E0,1.447332639E0,2.510397397E0
6.891059333E0,-1.935667240E0,1.213073884E0,1.150297008E0,2.557643274E0
6.901089333E0,-2.116219026E0,1.338743997E0,6.903140938E-1,2.597528057E0
6.911119333E0,-2.200874722E0,1.385825778E0,6.845275065E-2,2.601739497E0
6.921149333E0,-2.229217346E0,1.294003442E0,-6.476563168E-1,2.657689521E0
6.931179333E0,-2.198488766E0,1.082283365E0,-1.310664498E0,2.778944325E0
6.941209333E0,-2.104006239E0,8.061854428E-1,-1.731350614E0,2.841540458E0
6.951239333E0,-1.931741419E0,5.100304019E-1,-1.984357297E0,2.815924325E0
6.961269333E0,-1.671836776E0,2.919508928E-1,-1.958195100E0,2.591293418E0
6.971300333E0,-1.332022330E0,1.589799464E-1,-1.724391258E0,2.184738731E0
6.981330333E0,-9.844457057E-1,6.962279677E-3,-1.397564063E0,1.709493238E0
6.991360333E0,-5.528431302E-1,-1.152299094E-1,-1.060977865E0,1.201909934E0
7.001390333E0,-8.129413158E-2,-2.410555583E-1,-8.545647204E-1,8.916262554E-1
7.011420333E0,3.903952003E-1,-4.292259747E-1,-9.563460338E-1,1.118588882E0
7.021450333E0,8.279174969E-1,-6.394930190E-1,-1.378132596E0,1.730216216E0
7.031480333E0,1.146512690E0,-9.015962148E-1,-2.004633687E0,2.479097275E0
7.041510333E0,1.219711059E0,-1.152291493E0,-2.650922340E0,3.137333263E0
7.051540333E0,8.841437379E-1,-1.324698400E0,-3.120304068E0,3.503260407E0
7.061570333E0,1.785251418E-1,-1.278474991E0,-3.267822887E0,3.513550334E0
7.071600333E0,-6.411629838E-1,-9.467437363E-1,-2.995473615E0,3.206286926E0
7.081630333E0,-1.401163901E0,-4.606494963E-1,-2.138299867E0,2.597649814E0
7.091660333E0,-1.878804529E0,3.037628531E-3,-1.031827741E0,2.143498116E0
7.101690333E0,-2.140610102E0,1.987679100E-1,-1.493086151E-1,2.154997298E0
7.111721333E0,-2.186612194E0,6.885856569E-2,3.801579316E-1,2.220480678E0
7.121751333E0,-1.953169418E0,-3.881481153E-1,5.331409736E-1,2.061496794E0
7.131781333E0,-1.332749139E0,-8.310109663E-1,4.264690125E-1,1.627475134E0
7.141811333E0,-5.828030938E-1,-1.106707769E0,2.948095965E-1,1.285058065E0
7.151841333E0,-3.879510641E-2,-1.288003614E0,1.042278615E-1,1.292796124E0
7.161871333E0,3.157423362E-1,-1.443112704E0,-1.966863012E-1,1.490286214E0
7.171901333E0,3.904802772E-1,-1.545981014E0,-6.114632213E-1,1.707752738E0
7.181931333E0,2.774492133E-1,-1.398838171E0,-8.284428692E-1,1.649255554E0
7.191961333E0,2.202611053E-1,-1.125926982E0,-8.249624602E-1,1.413078053E0
7.201991333E0,1.912393275E-1,-8.860636711E-1,-6.603025286E-1,1.121463659E0
7.212021333E0,1.800571123E-1,-6.451145321E-1,-3.247587427E-1,7.443531180E-1
7.222051333E0,2.771571448E-1,-4.064727044E-1,3.432026151E-1,5.998534632E-1
7.232081333E0,3.474532485E-1,-3.166939706E-1,1.239081130E0,1.325270115E0
7.242111333E0,2.045817965E-1,-5.107706594E-1,2.079292983E0,2.150860220E0
7.252141333E0,4.009698898E-2,-7.710021615E-1,2.732132564E0,2.839119660E0
7.262172333E0,-6.963507593E-2,-8.762257308E-1,3.375017845E0,3.487601759E0
7.272202333E0,-2.011328164E-1,-7.719575965E-1,3.893042560E0,3.973934236E0
7.282232333E0,-4.877732679E-1,-5.556649965E-1,3.896294197E0,3.965828390E0
7.292262333E0,-9.116396847E-1,-1.732044679E-1,3.535095313E0,3.654857805E0
7.302292333E0,-1.169459795E0,4.667744547E-1,2.969604363E0,3.225533240E0
7.312322333E0,-1.170124331E0,1.194119550E0,2.613867072E0,3.102807361E0
7.322352333E0,-1.159787331E0,1.822573611E0,2.396832460E0,3.226714593E0
7.332382333E0,-1.117040091E0,2.180184057E0,2.281350828E0,3.347468102E0
7.342412333E0,-9.307358140E-1,2.285947909E0,2.240847166E0,3.333650104E0
7.352442333E0,-7.561069643E-1,2.225712817E0,2.191094669E0,3.213470264E0
7.362472333E0,-5.847581103E-1,2.005186833E0,2.106170294E0,2.966255146E0
7.372502333E0,-4.912535307E-1,1.699148828E0,1.884587133E0,2.584589994E0
7.382532333E0,-3.443100777E-1,1.322250756E0,1.694646180E0,2.176860622E0
7.392562333E0,-1.828953508E-1,1.003081659E0,1.426736699E0,1.753625140E0
7.402593333E0,-9.824199378E-3,7.904102397E-1,1.214999957E0,1.449506729E0
7.412623333E0,1.982349363E-1,6.042851794E-1,1.075850258E0,1.249764556E0
7.422653333E0,4.256197044E-1,4.833238292E-1,1.003369050E0,1.192268219E0
7.432683333E0,6.464880431E-1,4.112270755E-1,9.221406993E-1,1.198915329E0
7.442713333E0,8.598579124E-1,2.875584644E-1,7.809930065E-1,1.196660176E0
7.452743333E0,1.119278990E0,1.745200914E-1,6.274036083E-1,1.294943245E0
7.462773333E0,1.351890292E0,5.260739923E-3,4.304705545E-1,1.418781144E0
7.472803333E0,1.506724855E0,-2.280718160E-1,2.364342114E-1,1.542121162E0
7.482833333E0,1.615685380E0,-4.883617902E-1,2.046934783E-2,1.688003400E0
7.492863333E0,1.692194442E0,-7.562665933E-1,-2.061478271E-1,1.864928448E0
7.502893333E0,1.742833084E0,-9.693344539E-1,-4.340870574E-1,2.040957622E0
7.512923333E0,1.757929718E0,-1.203033630E0,-7.092318830E-1,2.245131772E0
7.522953333E0,1.791612019E0,-1.394801838E0,-1.057123526E0,2.504567017E0
7.532983333E0,1.861442100E0,-1.380260983E0,-1.510102207E0,2.765952954E0
7.543013333E0,1.991165210E0,-9.358907193E-1,-2.002631600E0,2.975090529E0
7.553044333E0,2.043172977E0,-3.687388676E-1,-2.425847222E0,3.193001552E0
7.563074333E0,1.892264235E0,-5.521525741E-2,-2.701670909E0,3.298899568E0
7.573104333E0,1.544822389E0,4.112580657E-2,-2.825735084E0,3.220705871E0
7.583133833E0,1.202654438E0,6.641150594E-2,-2.769868447E0,3.020423712E0
7.593163833E0,9.566480425E-1,1.069099063E-1,-2.494016401E0,2.673335559E0
7.603193833E0,8.184406221E-1,1.113801026E-1,-2.260491910E0,2.406672860E0
7.613223833E0,7.774922785E-1,1.690827656E-1,-2.021362571E0,2.172323610E0
7.623253833E0,7.958338246E-1,4.383464617E-1,-1.669959235E0,1.901121497E0
7.633283833E0,7.947383487E-1,9.928040081E-1,-1.155060149E0,1.717973454E0
7.643313833E0,6.994638169E-1,1.720198805E0,-4.403688674E-1,1.908470146E0
7.653343833E0,5.163798934E-1,2.416306320E0,4.563133474E-1,2.512649259E0
7.663373833E0,2.327709308E-1,2.964958166E0,1.201358403E0,3.207556896E0
7.673403833E0,-1.494475231E-1,3.305843237E0,1.742710877E0,3.740050170E0
7.683433833E0,-6.826504406E-1,3.199751356E0,2.073877584E0,3.873678949E0
7.693464833E0,-1.342161987E0,2.357389190E0,2.316222307E0,3.567011125E0
7.703494833E0,-2.083445967E0,8.249134898E-1,2.337476205E0,3.238058735E0
7.713524833E0,-2.695302414E0,-1.253058314E0,1.982180525E0,3.572653058E0
7.723554833E0,-3.044301082E0,-3.652027055E0,1.585402211E0,5.011843060E0
7.733584833E0,-3.002841107E0,-5.523176994E0,1.253476829E0,6.410440155E0
7.743614833E0,-2.491858193E0,-6.268791715E0,7.281419246E-1,6.785079033E0
7.753644833E0,-1.904774061E0,-5.733174482E0,-6.339426957E-2,6.041644867E0
7.763674833E0,-1.746436723E0,-3.540928788E0,-1.487389136E0,4.219069133E0
7.773704833E0,-1.618637931E0,-1.116229960E0,-2.574541916E0,3.239478994E0
7.783734833E0,-9.529999647E-1,6.376031989E-1,-2.463876343E0,2.717615389E0
7.793764833E0,1.815002051E-1,1.984383609E0,-1.596979845E0,2.553637652E0
7.803794833E0,1.115362233E0,2.860697633E0,2.060573414E-2,3.070512735E0
7.813824833E0,1.466289897E0,3.100004874E0,1.814248637E0,3.879630704E0
7.823854833E0,1.187044711E0,2.621386884E0,2.962821593E0,4.130261025E0
7.833884833E0,6.894273636E-1,1.594186630E0,3.481131653E0,3.890375134E0
7.843915833E0,1.839422947E-1,3.822564608E-1,3.729261757E0,3.753311607E0
7.853945833E0,-3.375714540E-1,-6.704446703E-1,3.585219108E0,3.662955991E0
7.863975833E0,-7.605452934E-1,-1.360693860E0,3.275500281E0,3.627508651E0
7.874005833E0,-1.042473766E0,-1.643189805E0,2.974157006E0,3.554213581E0
7.884035833E0,-1.068453530E0,-1.441348014E0,2.659291459E0,3.207944530E0
7.894065833E0,-6.175244451E-1,-1.009332917E0,1.712462208E0,2.081493740E0
7.904095833E0,5.847929013E-1,-5.278720111E-1,-1.955977836E0,2.108668037E0
7.914125833E0,1.408752418E0,5.236123145E-2,-4.702520278E0,4.909279177E0
7.924155833E0,8.903868100E-1,2.425933760E-1,-4.622598195E0,4.713815258E0
7.934185833E0,-4.642905575E-1,-8.629320860E-2,-3.292789328E0,3.326480693E0
7.944215833E0,-1.493904250E0,-3.611345637E-1,-1.779159204E0,2.351079657E0
7.954245833E0,-1.816072091E0,-3.192907190E-1,-3.048480964E-1,1.868956063E0
7.964275833E0,-1.623424462E0,-5.333654702E-2,1.071883580E0,1.946095111E0
7.974305833E0,-1.293244473E0,2.116054720E-1,1.989715101E0,2.382482807E0
7.984335833E0,-8.137672350E-1,4.322232574E-1,2.378973602E0,2.551185892E0
7.994366833E0,-3.381778103E-1,5.516450357E-1,2.182493269E0,2.276390420E0
8.004396833E0,1.526795715E-2,4.913450396E-1,1.427121738E0,1.509413633E0
8.014426833E0,2.653866997E-1,2.741215628E-1,5.250391082E-1,6.490291185E-1
8.024456833E0,3.493813679E-1,1.088634610E-2,-1.194878519E-1,3.694092574E-1
8.034486833E0,2.584612575E-1,-1.610346580E-1,-2.994990635E-1,4.271230171E-1
8.044516833E0,1.057954270E-1,-1.796972162E-1,-6.559874296E-2,2.186022803E-1
8.054546833E0,2.413438261E-2,-1.035483420E-2,2.432885369E-1,2.447018659E-1
8.064576833E0,-4.964870811E-3,1.878950125E-1,5.112828755E-1,5.447378860E-1
8.074606833E0,-7.827375233E-2,2.547666943E-1,6.410127103E-1,6.942118867E-1
8.084636833E0,-2.249292299E-1,1.367687130E-1,6.034712470E-1,6.583892354E-1
8.094666833E0,-4.179402637E-1,6.879833937E-3,5.354657169E-1,6.792973798E-1
8.104696833E0,-6.526819986E-1,-5.654608369E-2,5.089064940E-1,8.295643860E-1
8.114726833E0,-9.136262763E-1,-4.715720952E-2,4.784180152E-1,1.032385864E0
8.124756833E0,-1.168300585E0,6.136360466E-2,4.169123963E-1,1.241977332E0
8.134787833E0,-1.343658874E0,2.784058177E-1,3.761174691E-1,1.422811766E0
8.144817833E0,-1.454695453E0,5.151537323E-1,4.255685413E-1,1.600821918E0
8.154847833E0,-1.488706075E0,7.060337484E-1,5.239502104E-1,1.728945706E0
8.164877833E0,-1.480842447E0,8.087745899E-1,6.407764828E-1,1.804883706E0
8.174907833E0,-1.433120689E0,8.253666490E-1,7.175293744E-1,1.802751624E0
8.184937833E0,-1.345366554E0,7.579272026E-1,6.784675618E-1,1.686648464E0
8.194967833E0,-1.241337278E0,5.681166422E-1,5.005052876E-1,1.454022111E0
8.204997833E0,-1.120665073E0,3.661134678E-1,2.057705355E-1,1.196775163E0
8.215027833E0,-1.016500142E0,2.297137141E-1,-1.442378001E-1,1.052067237E0
8.225057833E0,-9.561261785E-1,9.821158826E-2,-5.282012093E-1,1.096731190E0
8.235087833E0,-9.266094339E-1,-3.759525776E-2,-8.284511284E-1,1.243523107E0
8.245117833E0,-9.178476736E-1,-6.990872562E-2,-9.567050529E-1,1.327635545E0
8.255147833E0,-8.727548236E-1,2.190951705E-2,-7.969988092E-1,1.182111717E0
8.265177833E0,-8.068900323E-1,3.310026920E-1,-4.144764463E-1,9.656215775E-1
8.275207833E0,-7.619945258E-1,6.628275025E-1,5.385059036E-2,1.011373245E0
8.285238833E0,-7.630952641E-1,9.385804385E-1,5.087158748E-1,1.312265012E0
8.295268833E0,-8.834707233E-1,1.122188857E0,9.569656194E-1,1.719189212E0
8.305298833E0,-1.116221189E0,1.142803801E0,1.298018725E0,2.058349552E0
8.315328833E0,-1.394781373E0,1.018731732E0,1.549900549E0,2.320651015E0
8.325358833E0,-1.678657261E0,8.635746950E-1,1.745503946E0,2.571076716E0
8.335388833E0,-1.915069546E0,6.543882161E-1,1.879939474E0,2.762225141E0
8.345418833E0,-2.109306740E0,4.816684824E-1,1.870607318E0,2.860131324E0
8.355448833E0,-2.183427216E0,3.383924031E-1,1.679984725E0,2.775646321E0
8.365478833E0,-2.072267845E0,3.169839925E-1,1.298867741E0,2.466136712E0
8.375508833E0,-1.785981735E0,3.745317042E-1,7.976701427E-1,1.991552764E0
8.385538833E0,-1.386801386E0,3.993642443E-1,2.667137253E-1,1.467598751E0
8.395568833E0,-9.691947055E-1,4.514945108E-1,-2.058383632E-1,1.088831990E0
8.405598833E0,-5.586830369E-1,4.881963140E-1,-5.398969562E-1,9.175789339E-1
8.415628833E0,-2.724407807E-1,5.144737011E-1,-6.209742292E-1,8.511851511E-1
8.425658833E0,-2.159768504E-1,4.003910154E-1,-4.466851028E-1,6.375629743E-1
8.435689833E0,-4.600270602E-1,1.538811743E-1,-1.008901978E-1,4.954625555E-1
8.445719833E0,-8.112201878E-1,-2.180485189E-2,3.327533484E-1,8.770851929E-1
8.455749833E0,-1.280609517E0,-1.436818761E-1,8.167777470E-1,1.525690370E0
8.465779833E0,-1.836467180E0,-3.580618519E-1,1.271438452E0,2.262161738E0
8.475809833E0,-2.304956038E0,-6.632619506E-1,1.644373720E0,2.908041211E0
8.485839833E0,-2.532784317E0,-9.708418661E-1,1.807952063E0,3.259788489E0
8.495869833E0,-2.449292510E0,-1.079248075E0,1.880134771E0,3.270889323E0
8.505899833E0,-2.171329326E0,-7.981648171E-1,2.033534281E0,3.080097367E0
8.515929833E0,-1.633046640E0,-1.248269445E-1,1.998138599E0,2.583598451E0
8.525959833E0,-9.800912842E-1,6.411185449E-1,1.393315476E0,1.820148326E0
8.535989833E0,-4.068948734E-1,1.383316737E0,4.600735456E-3,1.441925727E0
8.546019833E0,-2.602907051E-1,2.146806396E0,-2.499589967E0,3.305219956E0
8.556049833E0,-8.646261705E-1,2.541343179E0,-5.682774407E0,6.284896859E0
8.566079833E0,-1.786850631E0,2.079642354E0,-8.367921084E0,8.805671511E0
8.576109833E0,-2.359364818E0,9.942968023E-1,-9.820936632E0,1.014918838E1
8.586141125E0,-2.306694415E0,-2.657635528E-1,-9.605458549E0,9.882120386E0
8.596171125E0,-1.699183766E0,-1.572118068E0,-7.758314939E0,8.096309738E0
8.606201125E0,-9.267952292E-1,-2.579765818E0,-5.421852933E0,6.075411945E0
8.616231125E0,-3.953474995E-1,-3.093948913E0,-3.547824994E0,4.723968851E0
8.626261125E0,-7.348108202E-2,-2.922981005E0,-2.374433824E0,3.766583785E0
8.636291125E0,1.111615629E-1,-2.095014684E0,-1.747703522E0,2.730551413E0
8.646321125E0,1.479990216E-1,-6.858210933E-1,-1.420141332E0,1.583999901E0
8.656351125E0,5.931529579E-1,-3.367458272E-1,6.555660793E0,6.591048218E0
8.666381125E0,-1.896675813E0,2.348420731E0,2.619864854E0,3.997017753E0
8.676411125E0,-6.028859407E0,4.564939386E0,-1.394401889E1,1.586258113E1
8.686441125E0,-1.941247238E0,3.879865567E0,-3.206079798E0,5.394510666E0
8.696471125E0,1.420297745E0,2.656156767E0,9.758831016E0,1.021308951E1
8.706501125E0,-3.780143643E0,2.195955167E0,-2.323646078E0,4.950862163E0
8.716531125E0,2.336436278E-1,3.520271160E0,3.691432611E0,5.106228854E0
8.726561125E0,3.962637290E0,3.246399858E0,6.872513223E0,8.571641869E0
8.736592125E0,4.181639782E0,2.184002289E0,6.823291361E0,8.295377163E0
8.746622125E0,3.464801841E0,1.135839182E0,7.062636609E0,7.948321730E0
8.756652125E0,1.365335380E0,1.139242262E-1,4.556408883E0,4.757938770E0
8.766682125E0,-7.014045078E-1,-8.580028832E-1,5.023237717E-1,1.216744181E0
8.776712125E0,-1.736969204E0,-2.270680829E0,-3.015910803E0,4.155571130E0
8.786742125E0,-2.085887472E0,-3.427962921E0,-4.191765990E0,5.802823317E0
8.796772125E0,-1.751066549E0,-3.972162112E0,-4.827069479E0,6.491910786E0
8.806802125E0,-2.539513001E-1,-4.288942037E0,-5.238212940E0,6.774835043E0
8.816832125E0,1.459928419E0,-4.502404000E0,-5.180380468E0,7.017077352E0
8.826862125E0,2.736941898E0,-4.506608148E0,-4.957983960E0,7.237539147E0
8.836892125E0,3.455479333E0,-4.261309265E0,-4.508947034E0,7.101387007E0
8.846922125E0,3.989373976E0,-3.831303272E0,-2.776609994E0,6.188986390E0
8.856952125E0,3.938495598E0,-3.281940989E0,1.249924207E-1,5.128207030E0
8.866982125E0,3.004796123E0,-2.711843895E0,1.110031911E0,4.197030843E0
8.877012125E0,2.062176720E0,-2.592158992E0,-1.045166409E0,3.473360604E0
8.887043125E0,1.985721452E0,-2.781472539E0,-3.241200514E0,4.710101903E0
8.897073125E0,2.507629888E0,-2.712487088E0,-3.097253759E0,4.820661231E0
8.907103125E0,3.098049565E0,-2.296177613E0,-1.737512995E0,4.229573755E0
8.917133125E0,3.579333593E0,-1.640952660E0,-3.814416513E-1,3.955989426E0
8.927163125E0,3.996730943E0,-8.560885048E-1,5.513032660E-1,4.124400690E0
8.937193125E0,4.280990116E0,-1.415049577E-1,8.148562789E-1,4.360148023E0
8.947223125E0,4.352874031E0,4.774549788E-1,7.830263758E-1,4.448438590E0
8.957253125E0,4.150637845E0,9.053343397E-1,7.992366117E-1,4.322754208E0
8.967283125E0,3.684284390E0,1.137399219E0,9.738607836E-1,3.976937675E0
8.977313125E0,3.141873862E0,1.003474007E0,1.196786465E0,3.508650636E0
8.987343125E0,2.628726601E0,6.087577146E-1,1.501782204E0,3.088064003E0
8.997373125E0,2.250954955E0,4.545859337E-1,1.735831043E0,2.878637871E0
9.007403125E0,2.027953552E0,7.758027256E-1,1.575099271E0,2.682424872E0
9.017433125E0,2.041973129E0,1.431162749E0,1.153622611E0,2.747494532E0
9.027464125E0,2.345332816E0,2.154282061E0,8.110927185E-1,3.286242325E0
9.037494125E0,2.814719222E0,2.852459491E0,6.965542424E-1,4.067475539E0
9.047524125E0,3.254966321E0,3.460337200E0,7.284294614E-1,4.806178187E0
9.057554125E0,3.527108309E0,3.928820795E0,6.631447139E-1,5.321267403E0
9.067584125E0,3.600622136E0,4.139915805E0,3.377635351E-1,5.497041645E0
9.077614125E0,3.488341269E0,4.108189398E0,-2.224084952E-1,5.393997635E0
9.087644125E0,3.159958130E0,3.990084997E0,-9.458660692E-1,5.176946619E0
9.097674125E0,2.570758767E0,3.663833168E0,-1.742585747E0,4.803028129E0
9.107704125E0,1.690338829E0,2.924144016E0,-2.522542042E0,4.215576110E0
9.117734125E0,5.038993040E-1,1.629820731E0,-3.297861203E0,3.712966286E0
9.127764125E0,-1.236695174E0,4.343896508E-2,-4.701492629E0,4.861618541E0
9.137794125E0,-3.445054040E0,-1.527775708E0,-6.279907272E0,7.323915025E0
9.147824125E0,-5.924875447E0,-2.793778004E0,-7.104979806E0,9.663854440E0
9.157854125E0,-7.938253060E0,-3.277974238E0,-6.578785361E0,1.081856708E1
9.167884125E0,-8.768679305E0,-3.153142031E0,-5.431704322E0,1.078589140E1
9.177915125E0,-8.041602012E0,-2.675715119E0,-4.252258360E0,9.482010097E0
9.187945125E0,-5.917786868E0,-1.891856684E0,-3.299896326E0,7.034816194E0
9.197975125E0,-3.695954847E0,-6.292007500E-1,-2.273327571E0,4.384517541E0
9.208005125E0,-1.514305770E0,1.063962868E0,-6.852232155E-1,1.973491780E0
9.218035125E0,3.731333426E-1,2.776813477E0,1.863874980E0,3.365107951E0
9.228065125E0,1.293619280E0,3.066086345E0,4.501233387E0,5.597806563E0
9.238095125E0,1.101832361E0,1.336541351E0,5.694788096E0,5.952393535E0
9.248125125E0,2.627826422E-1,-1.501368513E0,5.376869134E0,5.588728282E0
9.258155125E0,-5.061925820E-1,-4.547731031E0,3.090336503E0,5.521618255E0
9.268185125E0,-8.236811891E-1,-7.905463044E0,-4.534912180E0,9.150968535E0
9.278215125E0,-1.738536550E0,-9.669761549E0,-8.918435268E0,1.326895947E1
9.288245125E0,-1.539149128E0,-6.583204687E0,-4.205092087E0,7.961806544E0
9.298275125E0,6.125136736E-1,-1.957625581E0,7.694796927E-1,2.190792074E0
9.308305125E0,2.300539928E0,1.680335412E0,3.837685508E0,4.779523105E0
9.318335125E0,2.765273120E0,3.870387815E0,5.259547091E0,7.091507094E0
9.328366125E0,2.510874216E0,4.983610552E0,5.706007733E0,7.981189618E0
9.338396125E0,1.898596770E0,5.109426261E0,5.584735311E0,7.803856412E0
9.348426125E0,1.277330984E0,4.435369765E0,5.000350546E0,6.804967669E0
9.358456125E0,6.560049713E-1,3.171109355E0,4.335278882E0,5.411184718E0
9.368486125E0,-6.998356998E-2,1.546486799E0,3.827997841E0,4.129175049E0
9.378516125E0,-8.846024519E-1,-1.310571527E-1,3.663799839E0,3.771356087E0
9.388546125E0,-1.624224654E0,-1.631395386E0,3.503121861E0,4.191827693E0
9.398576125E0,-2.337926441E0,-2.728686215E0,2.654946978E0,4.467703208E0
9.408606125E0,-2.860468130E0,-3.231361404E0,1.268077326E0,4.497998950E0
9.418636125E0,-2.080152523E0,-2.629703379E0,1.260099531E0,3.581930375E0
9.428666125E0,-6.251971614E-1,-1.599458479E0,9.220719215E-1,1.949193563E0
9.438696125E0,5.354698831E-1,-6.068626320E-1,6.377055983E-1,1.030377931E0
9.448726125E0,1.265625735E0,1.221255308E-1,3.538781691E-1,1.319830635E0
9.458756125E0,1.736282741E0,6.279342431E-1,1.922213674E-2,1.846442163E0
9.468786125E0,1.919439754E0,8.345806915E-1,-1.054942771E-1,2.095686748E0
9.478817125E0,1.928313781E0,8.090950173E-1,-1.481602494E-1,2.096420818E0
9.488847125E0,1.752753178E0,6.482369453E-1,-1.420288682E-2,1.868838292E0
9.498877125E0,1.540406571E0,4.567564201E-1,1.735237259E-1,1.616041248E0
9.508907125E0,1.344974790E0,3.508650988E-1,3.802637297E-1,1.441063499E0
9.518937125E0,1.079738072E0,4.321875894E-1,5.098777896E-1,1.269880221E0
9.528967125E0,7.494233045E-1,5.692276132E-1,5.493447777E-1,1.089694934E0
9.538997125E0,4.234062409E-1,6.976558578E-1,5.020869595E-1,9.581690121E-1
9.549027125E0,1.606045952E-1,8.729419345E-1,3.141416609E-1,9.415447096E-1
9.559057125E0,-7.215668768E-2,9.875713348E-1,-4.483060241E-3,9.902140308E-1
9.569087125E0,-2.934863716E-1,1.000347501E0,-3.906630758E-1,1.113304546E0
9.579117125E0,-5.323556560E-1,8.509821314E-1,-6.961022526E-1,1.221528337E0
9.589147208E0,-6.792885840E-1,6.268805748E-1,-9.803407411E-1,1.347397567E0
9.599177208E0,-7.573231852E-1,3.778985310E-1,-1.350978711E0,1.594204875E0
9.609207208E0,-6.948123568E-1,2.481961781E-1,-1.696828653E0,1.850295391E0
9.619237208E0,-3.496357217E-1,3.438414234E-1,-1.942015708E0,2.002972060E0
9.629268208E0,1.864370093E-1,5.375971001E-1,-1.947952532E0,2.029356664E0
9.639298208E0,5.540453178E-1,5.608976698E-1,-1.710470938E0,1.883423277E0
9.649328208E0,6.450952363E-1,4.118316776E-1,-1.213716347E0,1.434873014E0
9.659358208E0,5.667150646E-1,1.631320542E-1,-6.564131069E-1,8.824149809E-1
9.669388208E0,4.336412072E-1,2.206154466E-3,-2.751142739E-1,5.135537240E-1
9.679418208E0,2.318078944E-1,-1.971593410E-1,-1.559091349E-1,3.419274250E-1
9.689448208E0,-7.253792614E-2,-4.190231681E-1,-3.658655459E-1,5.609810726E-1
9.699478208E0,-3.861840355E-1,-4.805352920E-1,-8.712614447E-1,1.067309131E0
9.709508208E0,-6.254637945E-1,-2.836928701E-1,-1.639685715E0,1.777710845E0
9.719538208E0,-7.873284647E-1,5.294536829E-2,-2.515197355E0,2.636077968E0
9.729568208E0,-1.001356146E0,3.468615103E-1,-3.314934488E0,3.480203686E0
9.739598208E0,-1.254977955E0,4.911555898E-1,-3.774474767E0,4.007850203E0
9.749628208E0,-1.656855625E0,3.959623343E-1,-3.586514266E0,3.970521542E0
9.759658208E0,-2.131310690E0,1.370406085E-1,-2.895024882E0,3.597559513E0
9.769688208E0,-2.609924295E0,-2.649314940E-1,-2.045540223E0,3.326579072E0
9.779719208E0,-3.019126187E0,-7.041778421E-1,-1.430828873E0,3.414419516E0
9.789749208E0,-3.272258292E0,-1.110043021E0,-1.611808091E0,3.812846071E0
9.799779208E0,-3.248635541E0,-1.485179327E0,-2.729842794E0,4.495712646E0
9.809809208E0,-2.821113737E0,-1.562588276E0,-4.360575106E0,5.423557882E0
9.819839208E0,-2.265977037E0,-1.526743090E0,-5.943554378E0,6.541516264E0
9.829869208E0,-2.045907720E0,-1.838894359E0,-6.458014630E0,7.019488858E0
9.839899208E0,-2.745045262E0,-2.827745649E0,-5.197726818E0,6.522866167E0
9.849929208E0,-3.746718035E0,-3.902763264E0,-3.166834163E0,6.268835278E0
9.859959208E0,-4.294777558E0,-4.339961332E0,-1.535901292E0,6.295980576E0
9.869989208E0,-4.376267279E0,-3.663975255E0,-7.847419488E-1,5.761271552E0
9.880019208E0,-4.308955886E0,-2.445810785E0,-9.321432388E-1,5.041624961E0
9.890049208E0,-4.742032545E0,-1.845109364E0,-1.153122967E0,5.217374225E0
9.900079208E0,-5.111952258E0,-1.466871695E0,-1.017367649E0,5.414684237E0
9.910109208E0,-4.854349664E0,-8.637378323E-1,-5.542950670E-1,4.961652620E0
9.920139208E0,-4.012015564E0,-2.739058006E-1,-1.015779034E-1,4.022637362E0
9.930170208E0,-2.753218793E0,-2.330115438E-2,1.971067160E-1,2.760363694E0
9.940200208E0,-1.522372881E0,1.017064691E-2,4.449883139E-1,1.586107572E0
9.950230208E0,-6.231965366E-1,-1.942152679E-1,1.090196986E0,1.270678151E0
9.960260208E0,-2.826544046E-2,-4.769258058E-1,1.940418395E0,1.998369512E0
9.970290208E0,1.851152462E-1,-6.020532972E-1,2.561970402E0,2.638262339E0
9.980320208E0,5.573940182E-1,-6.460489172E-1,2.935070708E0,3.056584263E0
9.990350208E0,9.285618192E-1,-6.616627371E-1,2.873713535E0,3.091642623E0
1.000038021E1,1.213509209E0,-6.741178912E-1,2.429886624E0,2.798461817E0
1.001041021E1,1.261680034E0,-6.873273361E-1,2.158635314E0,2.593060314E0
1.002044021E1,1.125593691E0,-5.819049615E-1,2.006417233E0,2.373032797E0
1.003047021E1,1.013769785E0,-6.302965182E-1,2.185417608E0,2.490191358E0
1.004050021E1,8.845963123E-1,-6.861239791E-1,2.629000543E0,2.857432520E0
1.005053021E1,6.441406783E-1,-7.422794688E-1,2.846704369E0,3.011581277E0
1.006056021E1,4.992653856E-1,-6.883663863E-1,2.801237589E0,2.927464131E0
1.007059021E1,4.146953514E-1,-4.321419811E-1,2.653971663E0,2.720713971E0
1.008062121E1,4.704567388E-1,-1.975130975E-1,2.384155405E0,2.438142317E0
1.009065121E1,6.226682407E-1,9.495702803E-2,2.367382959E0,2.449741751E0
1.010068121E1,7.494741753E-1,3.974878728E-1,2.470941241E0,2.612519620E0
1.011071121E1,8.303531545E-1,6.742529619E-1,2.674633091E0,2.880584245E0
1.012074121E1,8.959057045E-1,8.547939312E-1,3.081838744E0,3.321302417E0
1.013077121E1,8.920015186E-1,9.399685675E-1,3.479613423E0,3.713073820E0
1.014080121E1,7.941091883E-1,9.077901703E-1,3.890114274E0,4.072797744E0
1.015083121E1,7.068818870E-1,8.032670975E-1,4.290336598E0,4.421753968E0
1.016086121E1,6.490251499E-1,6.831489158E-1,4.500732281E0,4.598316773E0
1.017089121E1,6.484459832E-1,6.459156007E-1,4.459607059E0,4.552557992E0
1.018092121E1,6.046409824E-1,6.394813246E-1,4.254042345E0,4.344122852E0
1.019095121E1,5.829100978E-1,6.594717854E-1,4.057630278E0,4.151993581E0
1.020098121E1,6.362995622E-1,7.460111618E-1,3.728786379E0,3.855548942E0
1.021101121E1,9.167782179E-1,7.938402164E-1,3.396559864E0,3.606561174E0
1.022104221E1,1.548780954E0,8.476135504E-1,3.094204436E0,3.562481195E0
1.023107221E1,2.364456720E0,8.585057437E-1,2.918580683E0,3.853024902E0
1.024110221E1,3.076061695E0,7.981735879E-1,2.758518124E0,4.208165737E0
1.025113221E1,3.657975428E0,7.053174645E-1,2.565305069E0,4.523167812E0
1.026116221E1,4.069064801E0,6.489415348E-1,2.280688339E0,4.709559721E0
1.027119221E1,4.272334775E0,6.436515588E-1,1.885738158E0,4.714142568E0
1.028122221E1,4.291346412E0,6.610481948E-1,1.474607561E0,4.585532270E0
1.029125221E1,4.202710224E0,6.535924101E-1,1.063777512E0,4.384242108E0
1.030128221E1,4.003902845E0,6.465699041E-1,5.960818282E-1,4.099341920E0
1.031131221E1,3.686963291E0,6.309707022E-1,1.327671710E-1,3.742919911E0
1.032134221E1,3.113347343E0,5.948407567E-1,-3.215152922E-1,3.185928324E0
1.033137221E1,2.251741990E0,4.727602494E-1,-7.082814181E-1,2.407385887E0
1.034140221E1,1.191274880E0,1.094499367E-1,-1.193877183E0,1.690105871E0
1.035143221E1,3.466784924E-2,-5.903214437E-1,-2.324735707E0,2.398765802E0
1.036146221E1,-1.234830204E0,-1.516109344E0,-4.550171074E0,4.952519558E0
1.037149221E1,-2.625407722E0,-2.473709021E0,-7.517879770E0,8.338496163E0
1.038152321E1,-4.054051782E0,-3.606232831E0,-9.637022989E0,1.105949652E1
1.039155321E1,-5.218638800E0,-4.529670151E0,-9.338524969E0,1.161723509E1
1.040158321E1,-5.116868012E0,-4.725260684E0,-6.596269705E0,9.592768151E0
1.041161321E1,-3.777190799E0,-3.712228233E0,-5.129120268E0,7.372630705E0
1.042164321E1,-2.419223788E0,-1.170612574E0,-5.200961498E0,5.854312773E0
1.043167321E1,-1.036483586E0,1.893924260E0,-4.156464303E0,4.683742395E0
1.044170321E1,3.417630306E-1,4.457880961E0,-1.098625163E0,4.603963714E0
1.045173321E1,1.476392424E0,6.191548242E0,2.389702658E0,6.798947199E0
1.046176321E1,2.053779826E0,6.666753797E0,5.486890343E0,8.875223006E0
1.047179321E1,2.091924138E0,5.726270674E0,7.909943765E0,9.986667753E0
1.048182321E1,1.576418111E0,3.062148246E0,8.450012484E0,9.124941474E0
1.049185321E1,6.685203516E-1,-3.795649874E-1,6.872969306E0,6.915829387E0
1.050188321E1,6.018188238E-2,-3.361322204E0,5.040235573E0,6.058554568E0
1.051191321E1,-8.672025999E-1,-6.092108738E0,3.545414772E0,7.101816327E0
1.052194321E1,-2.949297568E0,-1.025842765E1,-5.271130425E0,1.190455837E1
1.053197421E1,-5.775639886E0,-1.543446129E1,-2.161497175E1,2.718064781E1
1.054200421E1,-1.699987319E0,-1.144168190E1,-1.209658526E1,1.673706714E1
1.055203421E1,2.926368589E0,-4.641146148E0,8.645210668E-2,5.487380491E0
1.056206421E1,4.589979503E0,-3.170336938E-1,5.615573527E0,7.259689265E0
1.057209421E1,5.145450372E0,1.766767784E0,8.181440513E0,9.825125791E0
1.058212463E1,4.782829738E0,2.694490528E0,8.213008461E0,9.878727018E0
1.059215463E1,4.390262589E0,3.362891012E0,6.622286307E0,8.627752748E0
1.060218463E1,3.794613163E0,3.580604485E0,5.176418395E0,7.349498278E0
1.061221463E1,2.771753589E0,3.244724631E0,4.228431541E0,6.007536033E0
1.062224463E1,1.724889733E0,2.488457453E0,3.474120841E0,4.608381571E0
1.063227463E1,7.869735387E-1,1.257253692E0,3.225577923E0,3.550262967E0
1.064230463E1,3.115645006E-1,2.044572508E-1,3.243580331E0,3.264917850E0
1.065233463E1,4.291563928E-2,-4.333102548E-1,3.323510599E0,3.351913220E0
1.066236463E1,-7.342114806E-2,-7.836754167E-1,3.435661365E0,3.524671167E0
1.067239463E1,-2.172334170E-1,-8.410213995E-1,3.341886059E0,3.452927712E0
1.068242563E1,-4.430713043E-1,-6.381154150E-1,2.935696360E0,3.036744405E0
1.069245563E1,-6.983946535E-1,1.456950724E-2,1.468804200E0,1.626454162E0
1.070248563E1,-8.288527590E-1,5.802303189E-1,6.958595932E-1,1.227959565E0
1.071251563E1,-6.780340639E-1,8.801147139E-1,3.487700415E-1,1.164462384E0
1.072254563E1,-5.035247898E-1,1.003621942E0,-6.243458068E-1,1.284757527E0
1.073257563E1,-2.341970667E-1,1.035311512E0,-1.945709540E0,2.216416885E0
1.074260563E1,2.362772137E-2,1.007965254E0,-2.877911251E0,3.049413942E0
1.075263563E1,3.639590612E-1,8.167677337E-1,-3.078776557E0,3.206000752E0
1.076266563E1,4.983450338E-1,4.940178019E-1,-2.014378656E0,2.133101669E0
1.077269563E1,3.387894291E-1,1.842703235E-1,-4.974740911E-1,6.294555589E-1
1.078272563E1,1.661164731E-2,1.485485137E-2,6.037355411E-1,6.041466850E-1
1.079275563E1,-3.474026701E-1,2.869521081E-2,1.157427687E0,1.208780742E0
1.080278563E1,-7.132240695E-1,2.193056703E-1,1.233074870E0,1.441269297E0
1.081281563E1,-1.086134341E0,5.502089596E-1,1.141815548E0,1.669179574E0
1.082284663E1,-1.349761613E0,8.815233082E-1,1.110303734E0,1.957476471E0
1.083287663E1,-1.417999789E0,1.131408162E0,1.006006436E0,2.074332852E0
1.084290663E1,-1.322297826E0,1.272237766E0,6.787097096E-1,1.956452745E0
1.085293663E1,-1.163813139E0,1.325953798E0,1.476274310E-1,1.770426038E0
1.086296663E1,-9.643081874E-1,1.208389095E0,-4.511680900E-1,1.610480404E0
1.087299663E1,-7.572647130E-1,9.228993756E-1,-9.902499443E-1,1.551060300E0
1.088302663E1,-4.646565932E-1,5.265008390E-1,-1.454901275E0,1.615501966E0
1.089305663E1,-1.506102419E-1,2.639193410E-1,-1.700348823E0,1.727287754E0
1.090308663E1,1.342903706E-1,8.959805489E-2,-1.799512338E0,1.806739154E0
1.091311663E1,2.943403575E-1,-1.696072608E-1,-1.917283448E0,1.947146293E0
1.092314663E1,3.226645625E-1,-4.754599088E-1,-2.063541607E0,2.142050071E0
1.093317663E1,3.529785749E-1,-7.509064507E-1,-2.260261383E0,2.407744981E0
1.094320663E1,2.876979205E-1,-9.053167981E-1,-2.434687335E0,2.613440456E0
1.095323663E1,2.488870266E-1,-8.103942686E-1,-2.628740050E0,2.762056819E0
1.096326663E1,2.440645355E-1,-3.114396626E-1,-3.005296353E0,3.031232147E0
1.097329663E1,4.179618984E-2,3.325925499E-1,-3.441135528E0,3.457423672E0
1.098332763E1,-3.920271581E-1,8.826968443E-1,-3.572478025E0,3.700734826E0
1.099335763E1,-1.268999871E0,9.604420084E-1,-2.860271371E0,3.273218880E0
1.100338763E1,-2.312710031E0,5.465053332E-1,-1.438939692E0,2.778100647E0
1.101341763E1,-3.195719701E0,-6.613434792E-2,-4.023971951E-1,3.221633384E0
1.102344763E1,-3.744983166E0,-4.944165820E-1,-1.687775409E-1,3.781247483E0
1.103347763E1,-3.945542370E0,-6.157580012E-1,-6.763657071E-1,4.050176920E0
1.104350763E1,-3.300245113E0,-5.653842384E-1,-1.654666135E0,3.734862402E0
1.105353762E1,-2.084839359E0,-4.844517571E-1,-3.008493610E0,3.692192094E0
1.106356763E1,-1.186788311E0,-4.288833278E-1,-5.153506665E0,5.305755210E0
1.107359763E1,-4.470295769E-1,-7.171171457E-1,-7.526626035E0,7.573915230E0
1.108362763E1,-8.915161997E-2,-1.538477283E0,-8.475678252E0,8.614637670E0
1.109365763E1,-3.757923639E-1,-2.303842143E0,-7.083226994E0,7.457949663E0
1.110368763E1,-1.309394483E0,-2.895397350E0,-4.460081268E0,5.476327660E0
1.111371763E1,-2.533583047E0,-3.561757740E0,-1.926495590E0,4.776666883E0
1.112374863E1,-3.515156893E0,-3.765484673E0,-4.332482743E-1,5.169420362E0
1.113377863E1,-4.477563566E0,-3.628800745E0,-1.276647444E-1,5.764812973E0
1.114380863E1,-5.675033278E0,-3.657190146E0,-5.863105461E-1,6.776784085E0
1.115383863E1,-6.217101744E0,-3.247513753E0,-8.119611762E-1,7.061018384E0
1.116386863E1,-5.610499313E0,-2.126399029E0,-3.660391351E-1,6.011094744E0
1.117389862E1,-4.904169111E0,-1.227209528E0,2.656418942E-1,5.062359480E0
1.118392863E1,-3.483578420E0,-6.487398058E-1,8.638653016E-1,3.647251733E0
1.119395863E1,-1.716520029E0,-4.632807434E-1,1.943158400E0,2.633806110E0
1.120398863E1,-5.804297090E-1,-7.208529317E-1,3.283326194E0,3.411269338E0
1.121401863E1,1.610969308E-1,-8.811514252E-1,4.069124150E0,4.166551500E0
1.122404863E1,5.548168579E-1,-9.402159047E-1,4.177860142E0,4.318141158E0
1.123407863E1,7.367766541E-1,-1.199449287E0,3.342636842E0,3.626946303E0
1.124410863E1,1.240789102E0,-1.477495501E0,1.855412889E0,2.676771851E0
1.125413862E1,1.952010207E0,-1.465504616E0,8.487482026E-1,2.584264139E0
1.126416863E1,2.236094841E0,-1.386050311E0,7.644263828E-1,2.739635614E0
1.127419963E1,2.086611942E0,-1.293992332E0,1.379655211E0,2.816347645E0
1.128422963E1,1.724512880E0,-1.313105711E0,2.016428690E0,2.960435094E0
1.129425962E1,1.282413676E0,-1.311134614E0,2.440380476E0,3.052722667E0
1.130428963E1,7.641372380E-1,-1.177588887E0,2.989349534E0,3.302549309E0
1.131431963E1,3.470246476E-1,-8.753328609E-1,3.212627802E0,3.347777041E0
1.132434963E1,1.129684988E-1,-4.312099349E-1,2.952817007E0,2.986273961E0
1.133437963E1,-2.145343423E-3,7.930987895E-2,2.474708894E0,2.475980366E0
1.134440963E1,-3.798731357E-2,5.425409210E-1,2.278078142E0,2.342100277E0
1.135443963E1,2.231297493E-3,9.289939284E-1,2.477742430E0,2.646175022E0
1.136446963E1,1.473451567E-1,1.264829344E0,2.892795631E0,3.160659809E0
1.137449962E1,3.250204057E-1,1.402999050E0,3.401777042E0,3.694067087E0
1.138452963E1,4.366148087E-1,1.402627167E0,3.887372807E0,4.155678381E0
1.139455963E1,5.157130185E-1,1.331428546E0,4.383467540E0,4.610146371E0
1.140458963E1,5.833059543E-1,1.233934411E0,4.885215361E0,5.072294263E0
1.141461963E1,6.393041539E-1,1.129869760E0,5.039260842E0,5.203793358E0
1.142465063E1,6.771540579E-1,1.048766540E0,4.831840222E0,4.990503863E0
1.143468063E1,7.830465487E-1,9.803792596E-1,4.649731322E0,4.816046798E0
1.144471063E1,1.025562449E0,9.652647918E-1,4.469687951E0,4.686323168E0
1.145474063E1,1.443930437E0,9.555543208E-1,4.059303167E0,4.413157755E0
1.146477063E1,1.871565092E0,9.336646843E-1,3.706862828E0,4.256209307E0
1.147480063E1,2.335422370E0,9.866129762E-1,3.412781210E0,4.251432512E0
1.148483063E1,2.721495017E0,1.070032863E0,3.136078101E0,4.287947214E0
1.149486063E1,2.979332376E0,1.241481997E0,2.793219010E0,4.268462416E0
1.150489063E1,3.153452518E0,1.477638758E0,2.263075648E0,4.153214475E0
1.151492063E1,3.166257628E0,1.705398917E0,1.661532521E0,3.961598560E0
1.152495063E1,2.960867454E0,1.821165601E0,1.036054693E0,3.627228908E0
1.153498063E1,2.458158935E0,1.716508627E0,5.253694028E-1,3.043839718E0
1.154501063E1,1.704914768E0,1.450676662E0,2.163522416E-1,2.249000986E0
1.155504063E1,6.887906018E-1,1.003863432E0,2.026984084E-1,1.234204573E0
1.156507063E1,-4.573727167E-1,4.110826492E-1,1.949134254E-1,6.451123855E-1
1.157510163E1,-1.527787695E0,-2.511344039E-1,-6.054593003E-1,1.662463442E0
1.158513158E1,-2.503933571E0,-1.050745822E0,-1.703047752E0,3.205327090E0
1.159516158E1,-3.057542394E0,-1.990175276E0,-3.126804125E0,4.804817078E0
1.160519158E1,-3.013183369E0,-3.049190231E0,-5.460272648E0,6.942003492E0
1.161522158E1,-2.538956054E0,-3.942547134E0,-8.105607973E0,9.364339612E0
1.162525158E1,-2.333991849E0,-4.268804811E0,-9.217712138E0,1.042288010E1
1.163528158E1,-2.665021731E0,-4.408805280E0,-7.961518546E0,9.482915289E0
1.164531158E1,-2.488714730E0,-4.123148915E0,-5.527557728E0,7.331299504E0
1.165534158E1,-1.420903224E0,-2.739811712E0,-3.181996578E0,4.432903835E0
1.166537158E1,-7.959873140E-2,-2.822059232E-1,-2.350031346E0,2.368253253E0
1.167540158E1,1.258633342E0,2.494645561E0,-1.744579647E0,3.294081437E0
1.168543158E1,2.286804526E0,4.715129213E0,-6.225969046E-1,5.277266844E0
1.169546158E1,2.812759528E0,5.977759420E0,1.166790541E0,6.708697639E0
1.170549158E1,2.928398158E0,6.342309927E0,3.507898744E0,7.817017627E0
1.171552158E1,2.611975498E0,5.538152298E0,5.643377622E0,8.327139837E0
1.172555258E1,1.295652357E0,2.664631137E0,7.360062250E0,7.934071492E0
1.173558258E1,-5.363408259E-1,-1.627813967E0,7.919791646E0,8.103119122E0
1.174561258E1,-2.376850186E0,-5.759615591E0,7.194180250E0,9.517290478E0
1.175564258E1,-3.713814583E0,-8.936282725E0,5.584007918E0,1.117276654E1
1.176567258E1,-5.039408777E0,-1.148183590E1,2.920304149E0,1.287464068E1
1.177570258E1,-8.517283530E0,-1.328763619E1,-9.805655519E0,1.858107301E1
1.178573258E1,-8.017717305E0,-9.180577056E0,-1.197821539E1,1.708930747E1
1.179576258E1,-9.795378453E-1,-1.750949312E0,-3.668619114E0,4.181397385E0
1.180579258E1,2.422986764E0,2.490805694E0,2.278920141E-1,3.482371697E0
1.181582258E1,3.645434319E0,4.869360051E0,3.035018334E0,6.797881653E0
1.182585258E1,4.111431971E0,5.693466040E0,4.935706068E0,8.583741772E0
1.183588258E1,4.058643016E0,5.851695204E0,5.886394336E0,9.239294247E0
1.184591258E1,3.441990099E0,5.443346128E0,5.532285787E0,8.490200171E0
1.185594258E1,2.368816111E0,4.297159714E0,4.492328078E0,6.652659839E0
1.186597258E1,1.019292772E0,2.867863981E0,3.821731087E0,4.885614605E0
1.187600358E1,-3.038108003E-1,1.274069114E0,3.334923195E0,3.582913036E0
1.188603358E1,-1.494703272E0,-1.826529837E-1,2.889709178E0,3.258514864E0
1.189606358E1,-2.320014665E0,-1.212647038E0,2.373299464E0,3.533487120E0
1.190609358E1,-3.072998631E0,-1.913010741E0,1.281226691E0,3.839853189E0
1.191612358E1,-3.891962287E0,-2.214192633E0,-3.133669049E0,5.465336327E0
1.192615358E1,-3.628436171E0,-1.061419914E0,-4.148097814E0,5.612386013E0
1.193618358E1,-2.311832071E0,2.725925159E-1,-1.978010144E0,3.054733759E0
1.194621358E1,-1.434564951E0,9.442072141E-1,-5.959539934E-1,1.817873765E0
1.195624358E1,-7.752554262E-1,1.381990589E0,8.354046372E-1,1.791317915E0
1.196627358E1,-4.715133306E-1,1.575698318E0,1.926070497E0,2.532764808E0
1.197630358E1,-4.228680047E-1,1.575248083E0,2.508618068E0,2.992221329E0
1.198633358E1,-4.532925296E-1,1.412818864E0,2.581997116E0,2.977959094E0
1.199636358E1,-5.001015374E-1,1.121588933E0,2.376591446E0,2.675116854E0
1.200639358E1,-5.288517120E-1,8.156123239E-1,1.995582197E0,2.219742305E0
1.201642458E1,-4.735107395E-1,4.847347623E-1,1.704106683E0,1.833891980E0
1.202645458E1,-3.763884875E-1,3.078915721E-1,1.710005354E0,1.777803089E0
1.203648458E1,-2.578496388E-1,2.419291323E-1,1.723122413E0,1.759024443E0
1.204651458E1,-8.010831624E-2,2.863744032E-1,1.495845233E0,1.525116587E0
1.205654458E1,1.696066761E-1,3.745966083E-1,1.095847151E0,1.170457185E0
1.206657458E1,4.906579918E-1,3.908834428E-1,5.419836813E-1,8.290243914E-1
1.207660458E1,9.159832889E-1,3.360459155E-1,-4.078034576E-1,1.057476195E0
1.208663458E1,1.286684482E0,2.180163592E-1,-1.790427958E0,2.215563215E0
1.209666458E1,1.373437574E0,1.931645232E-1,-3.121345457E0,3.415617186E0
1.210669458E1,1.186307378E0,2.926888114E-1,-3.567385100E0,3.770839215E0
1.211672458E1,8.819600952E-1,4.088291323E-1,-3.223005733E0,3.366416615E0
1.212675458E1,5.442500621E-1,3.898110634E-1,-2.566894927E0,2.652755240E0
1.213678458E1,1.350817913E-1,2.059137923E-1,-1.871736269E0,1.887867644E0
1.214681458E1,-2.375919601E-1,1.165040177E-1,-1.338559225E0,1.364464703E0
1.215684458E1,-5.379853553E-1,2.459093320E-1,-1.061115421E0,1.214852081E0
1.216687558E1,-8.015097168E-1,5.442202413E-1,-7.972632495E-1,1.254680113E0
1.217690558E1,-1.085344674E0,7.895477754E-1,-6.195193689E-1,1.478229684E0
1.218693558E1,-1.381422824E0,8.509838855E-1,-5.679036574E-1,1.719016334E0
1.219696558E1,-1.646014887E0,8.200176162E-1,-7.450266369E-1,1.984151857E0
1.220699558E1,-1.851533700E0,7.808833712E-1,-1.407377884E0,2.453297452E0
1.221702558E1,-1.825417989E0,5.972872317E-1,-2.543903675E0,3.187530200E0
1.222705558E1,-1.165790960E0,7.738205194E-3,-3.577437633E0,3.762603947E0
1.223708558E1,-2.426205656E-1,-7.717342329E-1,-4.251347364E0,4.327631323E0
1.224711558E1,4.898423052E-1,-1.544701059E0,-4.322424363E0,4.616210482E0
1.225714558E1,1.027340880E0,-2.186848714E0,-3.807679351E0,4.509563019E0
1.226717558E1,1.238834962E0,-2.407933692E0,-2.634546043E0,3.778053676E0
1.227720558E1,1.074510368E0,-2.402481748E0,-1.721115063E0,3.144634819E0
1.228723558E1,4.297990018E-1,-2.448359587E0,-1.100040774E0,2.718323298E0
1.229726558E1,-6.039074492E-1,-2.400677297E0,-1.037647474E0,2.684151258E0
1.230729558E1,-1.615764902E0,-2.067293034E0,-2.370648336E0,3.536151898E0
1.231732658E1,-2.544634285E0,-1.654089600E0,-4.532682636E0,5.454941606E0
1.232735658E1,-3.497060637E0,-1.489937791E0,-5.327744336E0,6.544784751E0
1.233738658E1,-4.279137133E0,-1.548321655E0,-4.165385107E0,6.169177226E0
1.234741658E1,-4.898219569E0,-1.705291328E0,-2.609715257E0,5.806133583E0
1.235744658E1,-5.610426807E0,-2.041978099E0,-2.116375147E0,6.334477664E0
1.236747658E1,-6.128930410E0,-2.468201528E0,-2.620985180E0,7.108120009E0
1.237750658E1,-6.859890838E0,-2.330590816E0,-1.505606575E0,7.399770741E0
1.238753658E1,-7.347511786E0,-1.798521674E0,1.200466118E0,7.659094500E0
1.239756658E1,-7.438647659E0,-9.821755242E-1,4.052703999E0,8.527752193E0
1.240759658E1,-7.248575143E0,-2.701109576E-1,6.617476387E0,9.818645287E0
1.241762658E1,-7.145424997E0,5.290087098E-1,8.304202806E0,1.096798673E1
1.242765658E1,-6.962491931E0,1.124706668E0,8.424133877E0,1.098668697E1
1.243768658E1,-7.197897910E0,1.268014323E0,7.535058889E0,1.049736668E1
1.244771658E1,-7.217218865E0,1.372583004E0,5.402607992E0,9.119232718E0
1.245774658E1,-7.406269287E0,1.646061373E0,3.787570192E0,8.479860302E0
1.246777758E1,-7.468802919E0,1.895900618E0,3.397187271E0,8.421302604E0
1.247780758E1,-7.151462247E0,1.992344593E0,3.654713266E0,8.274646718E0
1.248783758E1,-6.624679572E0,2.216004100E0,4.454693351E0,8.285007330E0
1.249786758E1,-5.837580611E0,2.540000074E0,5.069564622E0,8.138146793E0
1.250789758E1,-4.944740016E0,2.667524924E0,5.079498457E0,7.574130156E0
1.251792758E1,-3.707224771E0,2.431361731E0,4.737568196E0,6.488419513E0
1.252795758E1,-2.649652324E0,2.062694784E0,4.709325559E0,5.783866737E0
1.253798758E1,-2.012894925E0,1.609327995E0,4.773912734E0,5.425119848E0
1.254801758E1,-1.505087635E0,1.012136073E0,4.878244603E0,5.204515215E0
1.255804758E1,-1.053667091E0,3.648107082E-1,5.242454510E0,5.359722985E0
1.256807758E1,-7.991565049E-1,-2.439546078E-1,5.768040844E0,5.828246748E0
1.257810758E1,-8.297026518E-1,-8.888165402E-1,6.260065330E0,6.377054122E0
1.258813671E1,-1.011322140E0,-1.531961730E0,6.396608341E0,6.654793571E0
1.259816671E1,-1.291750217E0,-2.033965074E0,5.806664042E0,6.286730458E0
1.260819671E1,-1.815523623E0,-2.380240109E0,4.778733763E0,5.638968468E0
1.261822671E1,-2.407134670E0,-2.555112203E0,3.488766362E0,4.949180378E0
1.262825771E1,-2.599665355E0,-2.612206171E0,2.617494100E0,4.520304901E0
1.263828771E1,-2.178883929E0,-2.548280901E0,2.721335095E0,4.318209748E0
1.264831771E1,-1.382994263E0,-2.382234594E0,3.166806681E0,4.197187076E0
1.265834771E1,-6.227658892E-1,-2.194164750E0,3.450829335E0,4.136474272E0
1.266837771E1,-1.035968739E-1,-1.933337417E0,3.488677192E0,3.989911582E0
1.267840771E1,1.697180656E-1,-1.454641659E0,3.440403749E0,3.739139545E0
1.268843771E1,2.709102720E-1,-8.005270922E-1,3.233565512E0,3.342182209E0
1.269846771E1,2.605156767E-1,-1.182722157E-1,2.787265083E0,2.801910665E0
1.270849771E1,2.352478114E-1,4.497245586E-1,2.398229653E0,2.451346401E0
1.271852771E1,4.112835011E-1,9.382869083E-1,2.102882112E0,2.339155749E0
1.272855771E1,6.655949897E-1,1.123127920E0,1.913998043E0,2.316855957E0
1.273858771E1,9.574064264E-1,9.738730627E-1,2.009583355E0,2.429708021E0
1.274861771E1,1.140707574E0,5.937116593E-1,2.342202509E0,2.672006717E0
1.275864771E1,1.222722082E0,1.347017223E-1,2.579427849E0,2.857733695E0
1.276867871E1,1.296707487E0,-2.127065027E-1,2.582317543E0,2.897422692E0
1.277870871E1,1.348251570E0,-4.897774011E-1,2.373733327E0,2.773494927E0
1.278873871E1,1.386113461E0,-6.866092980E-1,2.010320104E0,2.536558648E0
1.279876871E1,1.608369051E0,-7.665401512E-1,1.705486918E0,2.466398272E0
1.280879871E1,1.919232178E0,-7.312294006E-1,1.449409278E0,2.513749360E0
1.281882871E1,2.286084734E0,-5.576208901E-1,1.045297971E0,2.574834425E0
1.282885871E1,2.742358174E0,-2.442036992E-1,6.348237249E-1,2.825449516E0
1.283888871E1,3.239691055E0,8.958811462E-2,2.296681058E-1,3.249057033E0
1.284891871E1,3.575239665E0,1.459769082E-1,-9.001496136E-3,3.578229862E0
1.285894871E1,3.525055937E0,1.722379231E-1,3.378053427E-2,3.529422953E0
1.286897871E1,3.193340469E0,4.318262315E-1,1.019263244E-1,3.224017094E0
1.287900871E1,2.553113332E0,7.742584759E-1,1.450936863E-1,2.671875007E0
1.288903871E1,1.595710706E0,9.975127709E-1,-9.160891235E-2,1.884069155E0
1.289906871E1,3.415349892E-1,9.547824883E-1,-5.307619974E-1,1.144536608E0
1.290909871E1,-1.050063744E0,7.128293824E-1,-1.065658561E0,1.657222907E0
1.291912971E1,-2.536910405E0,5.486337197E-1,-1.819922483E0,3.170020695E0
1.292915971E1,-4.006542863E0,5.344378495E-1,-2.306301190E0,4.653711928E0
1.293918971E1,-5.202382371E0,5.702000052E-1,-1.882552302E0,5.561826459E0
1.294921971E1,-5.781464297E0,6.009785789E-1,-8.495934176E-1,5.874377724E0
1.295924971E1,-5.523343640E0,8.284428692E-1,3.366464245E-1,5.595263476E0
1.296927971E1,-4.713655130E0,1.109019173E0,1.241080878E0,4.998874869E0
1.297930971E1,-3.591120703E0,1.269543954E0,2.247389177E0,4.422516011E0
1.298933971E1,-2.845018032E0,9.656507081E-1,2.641194035E0,4.000314340E0
1.299936971E1,-2.237060509E0,4.643823588E-1,2.812586743E0,3.623635589E0
1.300939971E1,-1.560072512E0,-2.330074507E-1,2.911589459E0,3.311415391E0
1.301942971E1,-9.540998259E-1,-1.038124607E0,2.449729589E0,2.826514503E0
1.302945971E1,-5.707113442E-1,-2.154969694E0,9.104312114E-1,2.408005567E0
1.303948971E1,-3.693332371E-1,-3.446500348E0,-1.581239140E0,3.809867309E0
1.304951971E1,-2.059833741E-1,-4.237487708E0,-3.842870818E0,5.724193162E0
1.305954971E1,-6.198808730E-2,-4.069779623E0,-4.432177478E0,6.017569767E0
1.306958071E1,3.838211757E-1,-2.353416592E0,-3.565719813E0,4.289550808E0
1.307961071E1,9.531946769E-1,-1.417686671E-1,-2.883202397E0,3.039989228E0
1.308964071E1,1.230223768E0,1.573086367E0,-1.938553133E0,2.783170761E0
1.309967071E1,1.209206828E0,2.810011044E0,2.055530190E-2,3.059209987E0
1.310970071E1,1.039936659E0,3.503481465E0,2.122902832E0,4.226413026E0
1.311973071E1,7.951578864E-1,3.579530352E0,3.646936469E0,5.171601223E0
1.312976071E1,1.672803614E-1,2.730104749E0,4.208037622E0,5.018867929E0
1.313979071E1,-7.758196825E-1,1.375758626E0,4.148840411E0,4.439311290E0
1.314982071E1,-1.567138872E0,1.368938434E-1,3.872312719E0,4.179649502E0
1.315985071E1,-2.230500225E0,-9.664003211E-1,3.111230943E0,3.948267825E0
1.316988071E1,-2.761639076E0,-1.775391258E0,2.274066221E0,3.993750328E0
1.317991071E1,-2.951894901E0,-2.115921988E0,1.501613950E0,3.930095905E0
1.318994071E1,-2.658915191E0,-1.912057645E0,-3.168921912E-1,3.290321427E0
1.319997071E1,-2.075582339E0,-1.026093961E0,-1.391840808E0,2.701505451E0
1.321000071E1,-1.426673549E0,7.116236866E-2,-1.929475915E0,2.400695484E0
1.322003171E1,-1.080075456E0,9.249657816E-1,-1.857517741E0,2.339336839E0
1.323006171E1,-1.268041220E0,1.196707528E0,-1.190882531E0,2.111454154E0
1.324009171E1,-1.719286639E0,1.102960873E0,1.996180952E-1,2.052392901E0
1.325012171E1,-1.995880989E0,9.546667135E-1,1.318047777E0,2.575301808E0
1.326015171E1,-2.115287857E0,9.707740384E-1,2.062472005E0,3.109764577E0
1.327018171E1,-1.908574751E0,1.218609443E0,2.388574730E0,3.291345590E0
1.328021171E1,-1.589724327E0,1.499345961E0,2.411417463E0,3.254258122E0
1.329024171E1,-1.117859579E0,1.811127686E0,2.396573721E0,3.205208126E0
1.330027171E1,-5.417611948E-1,2.101899780E0,2.275642776E0,3.144843068E0
1.331030171E1,-3.689680785E-2,2.192314106E0,2.068404590E0,3.014282678E0
1.332033171E1,2.405161527E-1,2.012930886E0,1.892575307E0,2.773369803E0
1.333036171E1,2.971502370E-1,1.610378739E0,1.762770628E0,2.406029558E0
1.334039171E1,2.461654401E-1,1.105088675E0,1.666679240E0,2.014854360E0
1.335042171E1,1.131126326E-1,5.290244973E-1,1.590781796E0,1.680252394E0
1.336045171E1,8.766525775E-2,-6.137939215E-2,1.360912546E0,1.365113763E0
1.337048271E1,1.494565862E-1,-5.902594632E-1,9.123382077E-1,1.096861208E0
1.338051271E1,3.815989414E-1,-9.854324234E-1,2.132497821E-1,1.078040019E0
1.339054271E1,7.279204613E-1,-1.136256089E0,-4.106469586E-1,1.410523669E0
1.340057271E1,1.023760045E0,-1.064261076E0,-7.643796051E-1,1.662832658E0
1.341060271E1,1.192153131E0,-9.230104727E-1,-8.190072904E-1,1.715794382E0
1.342063271E1,1.175074876E0,-7.290992600E-1,-7.542202140E-1,1.575193584E0
1.343066271E1,1.098678080E0,-5.757952058E-1,-7.790661297E-1,1.464779054E0
1.344069271E1,8.998133987E-1,-4.801914757E-1,-9.722241479E-1,1.409066286E0
1.345072271E1,6.503135839E-1,-4.340680540E-1,-1.369460590E0,1.576941705E0
1.346075271E1,4.124526519E-1,-2.700407910E-1,-1.789641069E0,1.856301262E0
1.347078271E1,2.286726174E-1,-1.502675951E-2,-1.992434641E0,2.005570434E0
1.348081271E1,6.151095450E-2,2.213755846E-1,-1.768458361E0,1.783321541E0
1.349084271E1,-1.779755035E-1,3.420258629E-1,-1.154520598E0,1.217199565E0
1.350087271E1,-4.203221270E-1,3.163940084E-1,-4.672428167E-1,7.036275355E-1
1.351090371E1,-6.359405431E-1,2.291441953E-1,3.251592770E-2,6.767456850E-1
1.352093371E1,-8.281148404E-1,5.461474836E-2,1.697655742E-1,8.470993506E-1
1.353096371E1,-1.034556929E0,-1.760035300E-1,-2.209224254E-3,1.049423728E0
1.354099371E1,-1.206045823E0,-3.427497482E-1,-2.548083557E-1,1.279433944E0
1.355102371E1,-1.156171413E0,-2.928794307E-1,-5.602214393E-1,1.317709664E0
1.356105371E1,-9.250143135E-1,6.626707971E-2,-9.409386206E-1,1.321139014E0
1.357108371E1,-9.184166077E-1,4.216368735E-1,-1.288677798E0,1.637668216E0
1.358111371E1,-1.150454590E0,5.901442730E-1,-1.469548258E0,1.957393192E0
1.359114396E1,-1.534413175E0,4.326068348E-1,-1.493356220E0,2.184418748E0
1.360117396E1,-1.980406333E0,-3.439975441E-2,-1.471268363E0,2.467351451E0
1.361120396E1,-2.391897995E0,-6.053803629E-1,-1.643993797E0,2.964856996E0
1.362123396E1,-2.721614884E0,-9.722878826E-1,-2.241324883E0,3.657330794E0
1.363126396E1,-2.852295476E0,-1.063816688E0,-3.326378658E0,4.509111931E0
1.364129396E1,-2.652793449E0,-9.020160449E-1,-4.646695740E0,5.426115307E0
1.365132396E1,-2.176509082E0,-5.940092826E-1,-5.750986855E0,6.177692823E0
1.366135396E1,-1.709800409E0,-3.653211701E-1,-6.150044121E0,6.393740664E0
1.367138496E1,-1.774205443E0,-4.831764793E-1,-5.616188069E0,5.909554373E0
1.368141496E1,-2.271669886E0,-1.023462129E0,-4.493057225E0,5.137657251E0
1.369144496E1,-2.873491341E0,-1.641344424E0,-3.423823677E0,4.761673296E0
1.370147496E1,-3.705105155E0,-2.069465275E0,-2.677169321E0,5.017741156E0
1.371150496E1,-4.717792912E0,-2.089339961E0,-2.114527573E0,5.576211823E0
1.372153496E1,-5.857683923E0,-2.027209786E0,-1.599362731E0,6.401562434E0
1.373156496E1,-6.962298388E0,-2.031051992E0,-1.345206486E0,7.376201701E0
1.374159496E1,-7.509231738E0,-1.583640007E0,-1.537587482E0,7.826918438E0
1.375162496E1,-7.197699689E0,-5.272545451E-1,-1.788353950E0,7.435259782E0
1.376165496E1,-6.407972989E0,4.303924942E-1,-1.478847377E0,6.590473814E0
1.377168496E1,-5.596915061E0,6.855690783E-1,-7.326584601E-1,5.686145583E0
1.378171496E1,-4.905236228E0,4.606167519E-1,2.411286485E-1,4.932712567E0
1.379174496E1,-3.848815390E0,-7.624067545E-2,9.555870652E-1,3.966401289E0
1.380177496E1,-2.452821305E0,-4.933050263E-1,2.100844942E0,3.266991226E0
1.381180496E1,-1.491042038E0,-7.550158739E-1,3.274303941E0,3.676183024E0
1.382183596E1,-9.307124251E-1,-1.023338168E0,3.841037132E0,4.082525306E0
1.383186596E1,-6.811076528E-1,-1.428316324E0,3.725265770E0,4.047418957E0
1.384189596E1,-5.066170898E-1,-1.654441018E0,3.711569252E0,4.095068042E0
1.385192596E1,-9.887700140E-2,-1.791271711E0,3.291359099E0,3.748529808E0
1.386195596E1,3.802879956E-1,-2.045253709E0,2.371052964E0,3.154294509E0
1.387198596E1,7.717535287E-1,-2.298951532E0,2.631055255E0,3.578160618E0
1.388201596E1,1.316979199E0,-2.085053367E0,4.078655112E0,4.766267856E0
1.389204596E1,1.622357638E0,-1.677167975E0,4.588033842E0,5.147328555E0
1.390207596E1,1.727594071E0,-1.214452658E0,3.910742959E0,4.444478262E0
1.391210596E1,1.707279382E0,-6.182986164E-1,2.381832160E0,2.995032638E0
1.392213596E1,1.616000252E0,-2.351867080E-2,1.010038384E0,1.905829867E0
1.393216596E1,1.530552551E0,4.571359044E-1,8.845431027E-1,1.825919179E0
1.394219596E1,1.342865700E0,7.425402546E-1,1.389787266E0,2.070305041E0
1.395222596E1,1.026056831E0,8.081115156E-1,2.254547484E0,2.605536644E0
1.396225596E1,5.656014624E-1,8.692026401E-1,3.369781078E0,3.525740030E0
1.397228696E1,1.751238164E-1,8.644851065E-1,3.953086448E0,4.050295707E0
1.398231696E1,-2.491206229E-3,7.695415270E-1,3.632378072E0,3.713000245E0
1.399234696E1,-1.599690029E-1,5.640095580E-1,3.120856922E0,3.175444030E0
1.400237696E1,-2.280677229E-1,2.753623420E-1,2.921099078E0,2.942899783E0
1.401240696E1,-1.867153367E-1,-6.623199642E-2,3.121422055E0,3.127702822E0
1.402243696E1,-2.858177483E-2,-2.824684632E-1,3.569363213E0,3.580636689E0
1.403246696E1,2.494094753E-1,-3.979199821E-1,3.948386164E0,3.976216631E0
1.404249696E1,6.408329085E-1,-3.258173811E-1,4.205488528E0,4.266492417E0
1.405252696E1,1.084779541E0,-1.154205287E-1,4.237452040E0,4.375622052E0
1.406255696E1,1.578490656E0,1.997525811E-1,4.168674166E0,4.461992621E0
1.407258696E1,2.130285673E0,5.510527128E-1,4.135187747E0,4.684181235E0
1.408261696E1,2.684313742E0,9.550514603E-1,4.068696719E0,4.967087330E0
1.409264696E1,3.092424543E0,1.418376642E0,3.866302366E0,5.150065615E0
1.410267696E1,3.369738978E0,1.807144563E0,3.642208995E0,5.280776327E0
1.411270796E1,3.480768541E0,2.138225607E0,3.353919921E0,5.285502551E0
1.412273796E1,3.433515729E0,2.324785700E0,2.893109919E0,5.056060108E0
1.413276796E1,3.225301934E0,2.222842419E0,2.274997829E0,4.529814136E0
1.414279796E1,2.861145822E0,1.815490294E0,1.674665952E0,3.779770690E0
1.415282796E1,2.346648732E0,1.388259389E0,1.120686707E0,2.947874336E0
1.416285796E1,1.732646065E0,1.107200105E0,6.636700863E-1,2.160650930E0
1.417288796E1,1.079183756E0,9.697244632E-1,3.733318555E-1,1.498125424E0
1.418291796E1,3.834732664E-1,7.834795350E-1,-2.218337139E-1,9.000567340E-1
1.419294796E1,-3.275765160E-1,5.652626163E-1,-1.404082831E0,1.548637077E0
1.420297796E1,-9.646765620E-1,2.922034925E-1,-2.660592465E0,2.845124956E0
1.421300796E1,-1.656174717E0,-1.256408769E-1,-3.363015850E0,3.750810036E0
1.422303796E1,-2.459546480E0,-5.987028426E-1,-3.989725101E0,4.725010091E0
1.423306796E1,-3.349718697E0,-1.067597498E0,-5.325063972E0,6.380962786E0
1.424309796E1,-4.215364768E0,-1.617153908E0,-6.654683390E0,8.041722322E0
1.425312796E1,-4.612886847E0,-2.232159373E0,-7.028274862E0,8.698155440E0
1.426315896E1,-3.983677619E0,-2.722761231E0,-6.624043980E0,8.195186071E0
1.427318896E1,-2.775923239E0,-2.494919211E0,-5.953420969E0,7.026634538E0
1.428321896E1,-2.084543197E0,-8.777255416E-1,-4.675136890E0,5.193517826E0
1.429324896E1,-1.390186046E0,1.554851241E0,-2.906414381E0,3.577348764E0
1.430327896E1,-2.716733336E-2,3.781625912E0,1.205008820E-1,3.783642830E0
1.431330896E1,1.310621229E0,4.829400179E0,3.080279584E0,5.876134479E0
1.432333896E1,2.145760329E0,4.605693895E0,4.925662891E0,7.076641757E0
1.433336896E1,2.540937675E0,3.320470632E0,6.399536626E0,7.644341601E0
1.434339896E1,2.186676806E0,9.685672992E-1,6.667081826E0,7.083054294E0
1.435342896E1,1.492677504E0,-1.910716878E0,5.794218829E0,6.281074506E0
1.436345896E1,9.449457175E-1,-4.541039477E0,4.625891055E0,6.550788501E0
1.437348896E1,3.563556343E-1,-7.376994617E0,3.000560693E0,7.971850688E0
1.438351896E1,-9.164750397E-2,-1.197051227E1,-8.172032343E0,1.449426355E1
1.439354896E1,-3.060409284E-1,-1.478366268E1,-1.673550771E1,2.233220906E1
1.440357896E1,9.311585677E-1,-1.095690913E1,-1.168796311E1,1.604772245E1
1.441360996E1,3.112767884E0,-4.863504649E0,-3.251387241E0,6.626803178E0
1.442363996E1,4.113463294E0,-3.097942561E-1,2.136299242E0,4.645463078E0
1.443366996E1,4.508144796E0,2.165871828E0,4.854835567E0,6.970207935E0
1.444369996E1,4.099221231E0,3.383629916E0,6.201539379E0,8.167720415E0
1.445372996E1,3.550647445E0,3.969689909E0,6.050615727E0,8.060737307E0
1.446375996E1,3.204507481E0,4.250201894E0,5.462491082E0,7.627050095E0
1.447378996E1,2.689907773E0,3.840633674E0,5.109307562E0,6.934774301E0
1.448381996E1,1.926840283E0,2.801977555E0,4.729161361E0,5.824839815E0
1.449384996E1,1.169775545E0,1.686888971E0,4.585252029E0,5.023793924E0
1.450387996E1,4.525584117E-1,8.215870088E-1,4.775111121E0,4.866364202E0
1.451390996E1,-3.042578200E-1,1.711281216E-1,4.547378443E0,4.560757433E0
1.452393996E1,-8.290846011E-1,-2.262550861E-1,4.107983576E0,4.196915737E0
1.453396996E1,-9.625999233E-1,-3.565684730E-1,3.857590599E0,3.991834781E0
1.454399996E1,-1.134209563E0,-3.542594075E-1,3.463309339E0,3.661480935E0
1.455402996E1,-1.426721496E0,-7.311943173E-2,2.996278192E0,3.319422191E0
1.456406096E1,-1.983893613E0,6.465570402E-1,9.669598997E-1,2.299756796E0
1.457409096E1,-2.272712152E0,1.193649434E0,2.533938412E-1,2.579579023E0
1.458412096E1,-2.233702160E0,1.045664007E0,4.007927191E-1,2.498694331E0
1.459415108E1,-1.801219579E0,8.922202045E-1,-3.712291968E-1,2.044079250E0
1.460418108E1,-1.207317593E0,9.525137687E-1,-1.202758811E0,1.952313245E0
1.461421108E1,-5.738241094E-1,9.669622386E-1,-2.452802886E0,2.698246111E0
1.462424108E1,2.048145157E-1,8.105831337E-1,-3.259115798E0,3.364644080E0
1.463427108E1,7.804375210E-1,5.934450263E-1,-2.748151011E0,2.917806317E0
1.464430108E1,7.729650718E-1,3.190252554E-1,-1.326471276E0,1.568049158E0
1.465433108E1,3.286892411E-1,5.369498134E-2,-9.439386807E-2,3.461646582E-1
1.466436108E1,-2.552072820E-1,-1.100077611E-1,4.957438634E-1,5.683260001E-1
1.467439108E1,-8.328993246E-1,-3.001083434E-2,6.122917718E-1,1.034177523E0
1.468442108E1,-1.228495038E0,2.779818946E-1,6.189219296E-1,1.403402418E0
1.469445108E1,-1.403741354E0,6.387966156E-1,6.915466869E-1,1.690203457E0
1.470448108E1,-1.449182406E0,8.834949893E-1,6.839072996E-1,1.829869459E0
1.471451208E1,-1.428971505E0,1.015408759E0,4.711002979E-1,1.815199714E0
1.472454208E1,-1.272321382E0,1.151066501E0,7.883640066E-2,1.717547952E0
1.473457208E1,-9.922409213E-1,1.239033768E0,-3.108830807E-1,1.617527438E0
1.474460208E1,-7.509175605E-1,1.177469603E0,-6.093851209E-1,1.523700126E0
1.475463208E1,-6.107425520E-1,9.276736271E-1,-8.330341029E-1,1.388355372E0
1.476466208E1,-4.816228741E-1,5.572449142E-1,-1.022902697E0,1.260481025E0
1.477469208E1,-3.213407528E-1,2.796085900E-1,-1.271436259E0,1.340891869E0
1.478472208E1,-1.755261049E-1,8.273400843E-2,-1.579054036E0,1.590932424E0
1.479475208E1,1.761386007E-2,-8.362570882E-2,-1.989205808E0,1.991040746E0
1.480478208E1,2.064999756E-1,-2.716470212E-1,-2.495004580E0,2.518229973E0
1.481481208E1,3.133756757E-1,-5.253547847E-1,-2.894219428E0,2.958159573E0
1.482484208E1,4.482931602E-1,-6.511289781E-1,-3.046602838E0,3.147494965E0
1.483487208E1,5.875618502E-1,-6.257918233E-1,-3.097571847E0,3.214311075E0
1.484490208E1,5.759200439E-1,-4.745436502E-1,-3.149567043E0,3.236765072E0
1.485493208E1,2.341725084E-1,-2.993768567E-1,-3.080453539E0,3.103813344E0
1.486496308E1,-5.514509082E-1,-9.281636238E-2,-2.621434831E0,2.680416676E0
1.487499308E1,-1.557717838E0,6.855918825E-2,-1.747063252E0,2.341669326E0
1.488502308E1,-2.566990529E0,4.949083328E-3,-8.470492941E-1,2.703138431E0
1.489505308E1,-3.448160665E0,-1.630297279E-1,-3.226560840E-1,3.467058929E0
1.490508308E1,-4.091168738E0,-3.097533256E-1,-2.468964882E-1,4.110300067E0
1.491511308E1,-4.512387828E0,-3.909255427E-1,-7.316156092E-1,4.587998266E0
1.492514308E1,-4.540618185E0,-4.412080890E-1,-1.913572658E0,4.947083828E0
1.493517308E1,-3.964158443E0,-6.405934650E-1,-3.438947792E0,5.286896450E0
1.494520308E1,-3.222180691E0,-1.253167657E0,-5.431596733E0,6.438565108E0
1.495523308E1,-2.242149341E0,-2.185165885E0,-7.523276165E0,8.148734127E0
1.496526308E1,-1.157477681E0,-3.030887861E0,-7.963420061E0,8.598958941E0
1.497529308E1,-7.880751541E-1,-3.616352023E0,-6.277770115E0,7.287623893E0
1.498532308E1,-1.257562132E0,-4.002481679E0,-3.536320013E0,5.486973787E0
1.499535308E1,-1.960788632E0,-3.908126915E0,-1.334690269E0,4.571602143E0
1.500538308E1,-2.787779638E0,-3.297145504E0,-7.126258993E-1,4.376153500E0
1.501541408E1,-3.774378288E0,-2.764567069E0,-9.552339665E-1,4.775063819E0
1.502544408E1,-4.273561521E0,-2.277149019E0,-8.755994209E-1,4.920915573E0
1.503547408E1,-3.946387878E0,-1.431952123E0,-3.479613715E-1,4.212545701E0
1.504550408E1,-3.194636797E0,-6.627988511E-1,4.469044465E-1,3.293133791E0
1.505553408E1,-2.049920079E0,-5.245139551E-1,1.590474232E0,2.647054118E0
1.506556408E1,-1.083683188E0,-8.285948968E-1,2.679508792E0,3.006776700E0
1.507559408E1,-3.059307083E-1,-1.130824025E0,3.394610110E0,3.591063126E0
1.508562408E1,3.586702546E-1,-1.460477180E0,3.493677438E0,3.803606182E0
1.509565408E1,5.916440839E-1,-1.697063711E0,2.890658766E0,3.403817866E0
1.510568408E1,9.521684906E-1,-2.049328634E0,1.890723055E0,2.946388697E0
1.511571408E1,1.605682256E0,-2.156067801E0,1.541569144E0,3.098915826E0
1.512574408E1,2.101922584E0,-2.103632310E0,1.735157737E0,3.442981240E0
1.513577408E1,2.451805351E0,-1.954909549E0,2.338126123E0,3.911502856E0
1.514580408E1,2.521523165E0,-1.918694234E0,3.085694983E0,4.422779688E0
1.515583508E1,2.534856863E0,-2.055315013E0,3.536502738E0,4.812137855E0
1.516586508E1,2.461564646E0,-2.090396553E0,3.257548452E0,4.587012118E0
1.517589508E1,2.027480805E0,-1.878663611E0,2.521777519E0,3.741579510E0
1.518592508E1,1.437278644E0,-1.373013943E0,2.049592051E0,2.855129553E0
1.519595508E1,9.845927632E-1,-8.311612397E-1,2.033403449E0,2.407276782E0
1.520598508E1,7.195791158E-1,-2.930665416E-1,2.171581634E0,2.306393048E0
1.521601508E1,6.987522107E-1,2.687608355E-1,2.342285540E0,2.459021876E0
1.522604508E1,8.452594614E-1,7.649894696E-1,2.656568996E0,2.890853036E0
1.523607508E1,1.061160006E0,1.130807068E0,3.014345503E0,3.389847194E0
1.524610508E1,1.246552702E0,1.355590410E0,3.423010914E0,3.886968319E0
1.525613508E1,1.413158002E0,1.473294277E0,3.778744989E0,4.294941822E0
1.526616508E1,1.546245893E0,1.528608352E0,4.097587227E0,4.638721908E0
1.527619508E1,1.696027585E0,1.602017806E0,4.275038527E0,4.870207904E0
1.528622508E1,1.835191317E0,1.729528037E0,4.327433673E0,5.008580297E0
1.529625508E1,1.900949397E0,1.892586417E0,4.322366475E0,5.087076164E0
1.530628608E1,1.884227529E0,2.012780027E0,4.217262482E0,5.038541422E0
1.531631608E1,1.872990935E0,2.163863309E0,4.183838920E0,5.069014458E0
1.532634608E1,1.977087161E0,2.237519515E0,4.084429822E0,5.059440107E0
1.533637608E1,2.221854240E0,2.182970840E0,3.880036306E0,4.975608474E0
1.534640608E1,2.613237619E0,2.033863918E0,3.538172995E0,4.846058340E0
1.535643608E1,2.972521832E0,1.824161130E0,3.197755702E0,4.731711254E0
1.536646608E1,3.223413284E0,1.708078111E0,2.827455627E0,4.615455488E0
1.537649608E1,3.384352925E0,1.700558592E0,2.447425786E0,4.509505208E0
1.538652608E1,3.474459687E0,1.742270874E0,1.823532846E0,4.293326212E0
1.539655608E1,3.423972781E0,1.790456609E0,1.023933122E0,3.997219473E0
1.540658608E1,3.234282965E0,1.747140436E0,1.602134165E-1,3.679504632E0
1.541661608E1,2.800508149E0,1.578259984E0,-7.524910462E-1,3.301513781E0
1.542664608E1,2.001088520E0,1.251159723E0,-1.384465131E0,2.736146856E0
1.543667608E1,8.787730703E-1,7.634218311E-1,-1.744172097E0,2.096948093E0
1.544670608E1,-3.840378150E-1,-5.540061414E-2,-2.295807484E0,2.328365581E0
1.545673708E1,-1.848313346E0,-1.277396180E0,-3.599258273E0,4.242954553E0
1.546676708E1,-3.591346990E0,-2.628776595E0,-6.380148429E0,7.779108790E0
1.547679708E1,-5.792789769E0,-3.914798003E0,-1.064413572E1,1.273497868E1
1.548682708E1,-8.118030383E0,-5.162491497E0,-1.175052949E1,1.518646368E1
1.549685708E1,-8.829596767E0,-5.889179365E0,-8.217227812E0,1.342263184E1
1.550688708E1,-7.391790411E0,-5.553217649E0,-5.791959465E0,1.090979313E1
1.551691708E1,-5.270207734E0,-3.643770202E0,-5.415937890E0,8.389549098E0
1.552694708E1,-2.951689956E0,4.649413526E-2,-4.553856866E0,5.426992506E0
1.553697708E1,-2.214650470E-1,3.999684371E0,-1.764562507E0,4.377236877E0
1.554700708E1,1.707694534E0,6.305921534E0,2.166799196E0,6.883014294E0
1.555703708E1,2.668276291E0,6.918848898E0,6.073112304E0,9.585033203E0
1.556706708E1,3.384341230E0,5.691725324E0,8.865905052E0,1.106588339E1
1.557709708E1,2.682447603E0,1.897625547E0,8.823316272E0,9.415275774E0
1.558712688E1,1.260024687E0,-2.328158374E0,6.694283073E0,7.198708877E0
1.559715688E1,4.383645880E-1,-5.202930256E0,5.078909057E0,7.284089783E0
1.560718788E1,-8.357992512E-1,-7.639080856E0,2.585682031E0,8.108012597E0
1.561721788E1,-3.172719386E0,-1.087411373E1,-6.102740146E0,1.286685412E1
1.562724788E1,-3.200138734E0,-1.016081891E1,-8.689323817E0,1.374727163E1
1.563727788E1,8.573561811E-1,-5.122652078E0,-5.341135629E0,7.450124411E0
1.564730788E1,3.371117752E0,-4.875051731E-1,-1.838958678E0,3.870899793E0
1.565733788E1,3.569144527E0,1.876684914E0,2.766295506E0,4.890105290E0
1.566736788E1,3.614982605E0,2.786160836E0,4.877329806E0,6.679755795E0
1.567739787E1,3.338437956E0,3.094646485E0,5.799633350E0,7.372770975E0
1.568742788E1,2.913239543E0,3.082610577E0,5.423492492E0,6.885036196E0
1.569745788E1,2.099257131E0,2.484706464E0,4.529826272E0,5.576734955E0
1.570748788E1,1.214659649E0,1.365499102E0,3.566929017E0,4.007863330E0
1.571751788E1,5.191488424E-1,3.300279611E-1,2.777121918E0,2.844440213E0
1.572754788E1,-4.677772522E-5,-3.425994748E-1,2.277664744E0,2.303287018E0
1.573757788E1,-3.010994464E-1,-5.919879001E-1,1.980294067E0,2.088701784E0
1.574760888E1,-5.057534561E-1,-3.571689820E-1,1.737053404E0,1.844101615E0
1.575763888E1,-9.376007375E-1,1.531403321E-1,7.079516351E-1,1.184796447E0
1.576766888E1,-1.460062320E0,8.719367981E-1,-5.680780506E-1,1.792977532E0
1.577769888E1,-1.398169835E0,1.391388234E0,5.025097132E-3,1.972527656E0
1.578772888E1,-1.058102497E0,1.723524701E0,4.057359187E-1,2.062702093E0
1.579775888E1,-7.374327117E-1,1.891441532E0,-4.411045933E-1,2.077481970E0
1.580778888E1,-5.057560873E-1,1.874753578E0,-1.251882439E0,2.310346260E0
1.581781888E1,-4.672515875E-1,1.586491109E0,-1.321904016E0,2.117240731E0
1.582784888E1,-5.041405016E-1,1.052885903E0,-8.066263229E-1,1.418933541E0
1.583787888E1,-5.927404368E-1,3.808367568E-1,1.436362678E-1,7.190335445E-1
1.584790888E1,-7.054519504E-1,-2.026030988E-1,1.003875711E0,1.243574249E0
1.585793888E1,-7.244717735E-1,-4.447725517E-1,1.490500878E0,1.715888936E0
1.586796888E1,-5.622170940E-1,-3.345917130E-1,1.593915319E0,1.722964224E0
1.587799888E1,-2.797863454E-1,-4.537848651E-2,1.346024950E0,1.375544537E0
1.588802888E1,1.911922574E-2,2.753465545E-1,8.963202721E-1,9.378546263E-1
1.589805888E1,2.585881421E-1,5.337712669E-1,2.729076078E-1,6.528844883E-1
1.590808988E1,3.913854262E-1,7.315977752E-1,-3.885979123E-1,9.162020487E-1
1.591811988E1,4.660017452E-1,8.663608932E-1,-9.396592498E-1,1.360403738E0
1.592814988E1,5.412992647E-1,9.615371919E-1,-1.398108439E0,1.781085588E0
1.593817988E1,6.112363493E-1,1.012562919E0,-1.786283451E0,2.142359006E0
1.594820988E1,5.642314598E-1,9.063195956E-1,-2.048105396E0,2.309655399E0
1.595823988E1,4.265558437E-1,6.565318054E-1,-2.158041821E0,2.295676023E0
1.596826988E1,2.235773537E-1,2.894178790E-1,-2.099447896E0,2.131063352E0
1.597829988E1,-6.750961304E-2,-1.417657435E-1,-1.889459764E0,1.895972910E0
1.598832988E1,-4.039399830E-1,-5.351307446E-1,-1.641650233E0,1.773287318E0
1.599835988E1,-6.594153598E-1,-7.137614286E-1,-1.505555850E0,1.791921430E0
1.600838988E1,-7.381662449E-1,-7.409971744E-1,-1.796136741E0,2.078478628E0
1.601841988E1,-5.907845432E-1,-5.354891789E-1,-2.657906839E0,2.774931314E0
1.602844988E1,-3.324449077E-1,-7.232596457E-2,-3.789316170E0,3.804558805E0
1.603847988E1,-1.692260224E-1,3.126816112E-1,-4.639059277E0,4.652663561E0
1.604851088E1,-4.643040061E-1,5.412673974E-1,-4.406107959E0,4.463444405E0
1.605854088E1,-1.435277727E0,4.965724504E-1,-2.879411647E0,3.255398253E0
1.606857088E1,-2.460078284E0,8.038518190E-2,-1.284435643E0,2.776368466E0
1.607860088E1,-3.289209370E0,-5.842789310E-1,-7.029744852E-1,3.413861930E0
1.608863088E1,-4.021168503E0,-1.353620483E0,-1.810379242E0,4.612977081E0
1.609866088E1,-4.351666288E0,-1.909915810E0,-4.392508505E0,6.471391570E0
1.610869088E1,-4.182255202E0,-2.155781288E0,-7.250773696E0,8.643631802E0
1.611872088E1,-4.264593938E0,-2.641102526E0,-8.344080232E0,9.735802942E0
1.612875088E1,-4.761749941E0,-3.217793525E0,-6.271075637E0,8.506165253E0
1.613878088E1,-5.273595611E0,-3.690899345E0,-2.727047825E0,6.990732328E0
1.614881088E1,-5.487467464E0,-3.810858482E0,-6.612171793E-1,6.713579499E0
1.615884088E1,-5.281850125E0,-3.174858590E0,-4.268625301E-1,6.177368326E0
1.616887088E1,-4.838264851E0,-1.996290295E0,-9.763663155E-1,5.324215706E0
1.617890088E1,-3.809038829E0,-4.091027820E-1,-8.730337358E-1,3.929164006E0
1.618893088E1,-2.577415237E0,3.214430791E-1,-4.990130782E-2,2.597861640E0
1.619896188E1,-2.620000509E0,-3.037225074E-1,1.930009035E0,3.268269405E0
1.620899188E1,-2.849291762E0,-1.087424821E0,4.073992542E0,5.089044264E0
1.621902188E1,-2.650496955E0,-1.512728484E0,5.219593066E0,6.046290875E0
1.622905188E1,-2.458953864E0,-1.863531602E0,5.539808815E0,6.341031922E0
1.623908188E1,-2.361848277E0,-2.551986866E0,5.110329655E0,6.181135287E0
1.624911188E1,-2.100909262E0,-3.359598445E0,4.222335234E0,5.790408989E0
1.625914188E1,-1.557669598E0,-3.709525650E0,4.289825259E0,5.881285223E0
1.626917188E1,-1.311174668E0,-3.518295971E0,4.374952240E0,5.765222689E0
1.627920188E1,-1.121490407E0,-2.822645123E0,4.326648391E0,5.286298566E0
1.628923188E1,-8.468653992E-1,-2.105532655E0,4.622574221E0,5.149625346E0
1.629926188E1,-6.674713612E-1,-1.404438635E0,5.138591588E0,5.368713943E0
1.630929188E1,-4.641110480E-1,-9.032071227E-1,4.960539193E0,5.063411030E0
1.631932188E1,-1.189177483E-1,-5.881854558E-1,4.173849829E0,4.216767240E0
1.632935188E1,3.079319179E-1,-3.430637437E-1,3.252885590E0,3.285388783E0
1.633938188E1,5.801084045E-1,-1.016287011E-1,2.909484462E0,2.968493555E0
1.634941288E1,8.042719415E-1,1.480380517E-1,3.181651885E0,3.285068848E0
1.635944288E1,1.007555071E0,4.070480704E-1,3.472735636E0,3.638783883E0
1.636947288E1,1.160629915E0,6.668147188E-1,3.449412847E0,3.700020629E0
1.637950288E1,1.120848675E0,8.851678777E-1,3.502588595E0,3.782585200E0
1.638953288E1,1.126126957E0,1.069161628E0,3.768276134E0,4.075680745E0
1.639956288E1,1.266426803E0,1.196081291E0,4.254555146E0,4.597356501E0
1.640959288E1,1.457503871E0,1.282873852E0,4.829480286E0,5.205186134E0
1.641962288E1,1.639525647E0,1.333172185E0,5.351753004E0,5.753838079E0
1.642965288E1,1.812428691E0,1.388566952E0,5.693042117E0,6.133819731E0
1.643968288E1,1.930900005E0,1.451652562E0,5.654509551E0,6.148914396E0
1.644971288E1,1.988243649E0,1.506431617E0,5.318168351E0,5.874126627E0
1.645974288E1,2.051431585E0,1.524377307E0,4.925154183E0,5.548805407E0
1.646977287E1,2.267601978E0,1.417291399E0,4.617407037E0,5.335839333E0
1.647980288E1,2.694666237E0,1.231106697E0,4.263377133E0,5.191650451E0
1.648983288E1,3.169705731E0,1.098037518E0,3.790979118E0,5.062039459E0
1.649986388E1,3.536759723E0,1.023435232E0,3.184100699E0,4.867708524E0
1.650989388E1,3.782651806E0,9.381939375E-1,2.421658276E0,4.588364780E0
