"Time (s)","Linear Acceleration x (m/s^2)","Linear Acceleration y (m/s^2)","Linear Acceleration z (m/s^2)","Absolute acceleration (m/s^2)"
-1.310708336E-3,-1.042549780E-1,1.688368902E-2,-5.110291064E-1,5.218284267E-1
8.723291670E-3,-1.764873871E-1,1.277333030E-1,-8.673145741E-1,8.942584442E-1
1.875829167E-2,-1.265565509E-1,1.752979173E-1,-8.215057325E-1,8.494807761E-1
2.879229166E-2,-2.997721285E-2,1.429576984E-1,-4.399439210E-1,4.635581845E-1
3.882629167E-2,1.854093611E-2,8.811052322E-2,-4.568721950E-2,1.009680773E-1
4.886029166E-2,-8.209081471E-2,-1.169808581E-2,5.682558060E-2,1.005231002E-1
5.889529167E-2,-2.256077993E-1,-1.121593903E-1,-2.555584073E-2,2.532423917E-1
6.892954167E-2,-3.186913794E-1,-1.904778738E-1,-1.729694098E-1,4.095905669E-1
7.896354167E-2,-3.324568945E-1,-2.607912268E-1,-2.174673057E-1,4.752175078E-1
8.899754166E-2,-2.758394748E-1,-3.555101269E-1,-3.030810678E-1,5.425246537E-1
9.903254166E-2,-3.198035198E-1,-3.261948189E-1,-5.973059428E-1,7.519652522E-1
1.090665417E-1,-4.084356147E-1,-4.299336340E-1,-7.425326532E-1,9.502722358E-1
1.191005417E-1,-5.098979625E-1,-6.921317008E-1,-3.024495685E-1,9.113275838E-1
1.291345417E-1,-5.267037374E-1,-8.199554895E-1,1.959343493E-1,9.940493453E-1
1.391685417E-1,-4.107402948E-1,-9.865952884E-1,1.182418102E-1,1.075201831E0
1.492035417E-1,-3.900893909E-1,-7.767270242E-1,1.408886611E-2,8.692945986E-1
1.592375417E-1,-1.720774171E-1,-4.739584900E-1,-3.096697104E-1,5.917284996E-1
1.692715417E-1,3.117586282E-1,-1.326470107E-1,-2.287518471E-1,4.087983357E-1
1.793055417E-1,7.861066890E-1,1.366190243E-1,5.825580955E-2,8.000138896E-1
1.893405417E-1,1.016183223E0,4.411456700E-1,-7.043555975E-2,1.110044599E0
1.993745417E-1,9.450231931E-1,6.470844591E-1,-3.874400175E-1,1.209089285E0
2.094085417E-1,7.248340085E-1,6.106735548E-1,-7.461725450E-1,1.206266968E0
2.194435417E-1,3.546467856E-1,3.368616021E-1,-1.088930479E0,1.193741878E0
2.294775417E-1,-2.087116849E-1,-2.271847934E-2,-1.324932289E0,1.341462734E0
2.395115417E-1,-8.714125952E-1,-3.737741974E-1,-1.002764740E0,1.380073978E0
2.495455417E-1,-1.281658800E0,-7.449779588E-1,-2.002133417E-1,1.495903346E0
2.595805417E-1,-1.316995571E0,-1.028017110E0,4.717919505E-1,1.736054192E0
2.696145417E-1,-9.980925223E-1,-1.229791074E0,7.434518355E-1,1.749655795E0
2.796485417E-1,-3.576771051E-1,-1.333597570E0,5.293917024E-1,1.478739654E0
2.896825417E-1,-5.695737684E-1,-1.217831179E0,-1.420505029E-1,1.351926552E0
2.997175417E-1,-3.332334340E0,-9.550912213E-1,5.552089137E-1,3.510684881E0
3.097515417E-1,-5.045812647E0,-1.432103274E0,4.761773622E-1,5.266677315E0
3.197855417E-1,-4.777316106E0,-2.903196366E0,5.112220645E-3,5.590288405E0
3.298195417E-1,-4.641682922E0,-4.015270709E0,7.599018073E-1,6.184259857E0
3.398545417E-1,-4.556464432E0,-4.829317734E0,1.743473647E0,6.864646986E0
3.498885417E-1,-3.671908758E0,-5.300555953E0,2.341747888E0,6.860217963E0
3.599225417E-1,-2.639691008E0,-5.678335201E0,2.203159522E0,6.638175287E0
3.699565417E-1,-2.017565973E0,-5.388745998E0,1.591827278E0,5.970181737E0
3.799905417E-1,-1.629099185E0,-4.317451014E0,1.504340653E0,4.853595390E0
3.900255417E-1,-8.226155341E-2,-2.814021065E0,1.756464990E0,3.318230067E0
4.000595417E-1,1.981887433E0,-1.428781909E0,1.601961672E0,2.921570937E0
4.100935417E-1,3.031494218E0,-1.768377815E-1,1.222956263E0,3.273660156E0
4.201285417E-1,3.474434837E0,1.344133230E0,1.125720868E0,3.891739848E0
4.301625417E-1,5.176323670E0,3.646697903E0,9.145817113E-1,6.397592675E0
4.401965417E-1,6.980798979E0,5.639179906E0,1.883399856E-1,8.975933174E0
4.502305417E-1,7.955185427E0,7.361867870E0,-1.081602456E0,1.089274702E1
4.602645417E-1,7.503886213E0,8.227303149E0,-3.115251489E0,1.156294155E1
4.702995417E-1,6.155589035E0,6.516816570E0,-8.387754255E0,1.227658731E1
4.803335417E-1,2.510162902E0,2.683952384E0,-1.458059590E1,1.503656527E1
4.903675417E-1,-2.676464147E0,-3.749355275E-1,-1.221955337E1,1.251485204E1
5.004025417E-1,-1.758966429E0,-1.530337812E0,-4.825320577E0,5.359068519E0
5.104365417E-1,1.475605096E0,-1.651107228E0,-1.527001245E0,2.689850977E0
5.204705417E-1,3.185403458E0,-1.337302074E-1,-1.688921463E-1,3.192679677E0
5.305045417E-1,3.236618636E0,1.645546233E0,-1.351820710E-1,3.633427692E0
5.405395417E-1,1.673167310E0,2.463385177E0,-7.999107957E-1,3.083441690E0
5.505735417E-1,-7.456913191E-1,2.509955326E0,-1.667171868E0,3.104092994E0
5.606075417E-1,-1.707951812E0,2.594975595E0,-2.175217432E0,3.792435709E0
5.706415417E-1,-2.815691029E0,2.750333192E0,-4.310576150E-1,3.959578173E0
5.806765417E-1,-2.864980134E0,9.924028891E-1,4.061417520E-1,3.059072700E0
5.907105417E-1,-1.227716482E0,-1.106430611E-1,-3.067332387E-1,1.270281436E0
6.007445417E-1,-1.014481975E0,6.871366438E-1,-8.233379576E-1,1.476216731E0
6.107785417E-1,5.542341828E-1,2.826952767E0,3.662266114E-1,2.903955820E0
6.208135417E-1,4.788682508E-1,3.381714368E0,1.869887233E0,3.893813701E0
6.308475417E-1,-5.423801225E-1,1.787545280E0,1.250016300E0,2.247673259E0
6.408815417E-1,-1.222594905E0,8.198098938E-1,1.388462287E-1,1.478548220E0
6.509155417E-1,-2.118513474E0,6.114265300E-1,-5.747713584E-1,2.278662734E0
6.609505417E-1,-3.067100253E0,2.345851757E-1,-6.104531148E-1,3.136046423E0
6.709845417E-1,-3.047763510E0,1.329797903E0,7.369647883E-1,3.405927477E0
6.810185417E-1,-2.334408463E0,2.511424439E0,1.503711492E0,3.744043781E0
6.910525417E-1,-2.808670278E0,1.979088078E0,-1.597030131E0,3.788921164E0
7.010865417E-1,-4.387647715E0,2.198429124E0,-2.466821001E0,5.492699603E0
7.111215417E-1,-3.525487461E0,1.098954434E0,-7.449865834E-1,3.767196265E0
7.211555417E-1,-2.283395600E0,8.824438061E-1,-4.107337166E-1,2.482197559E0
7.311895417E-1,-2.519996749E0,-1.503799493E0,1.616122167E-1,2.939033011E0
7.412235417E-1,-4.099570602E0,-2.870839921E0,-1.846101929E0,5.334444049E0
7.512585417E-1,-3.366504006E0,-2.088080909E0,-3.085924194E0,5.021589314E0
7.612925417E-1,-2.647673042E0,-6.073257315E-1,-3.284210878E0,4.262048589E0
7.713265417E-1,8.146019250E-1,1.733413074E0,-4.676290253E0,5.053314527E0
7.813605417E-1,4.764531169E0,3.298238056E0,-7.578755132E0,9.540265242E0
7.913955417E-1,6.321578624E0,3.413472936E0,-8.189358228E0,1.089402322E1
8.014295417E-1,3.846256356E0,2.639512375E0,-2.117134700E0,5.122789560E0
8.114635417E-1,2.929056846E0,1.610376839E0,6.600910056E-1,3.407111344E0
8.214975417E-1,1.813247302E0,2.098132565E0,-2.330893848E-1,2.782868430E0
8.315325417E-1,1.817726269E0,3.806332737E0,1.976105706E0,4.658035150E0
8.415665417E-1,5.152417914E0,3.088495215E0,6.687244779E0,8.989185491E0
8.516005417E-1,8.968709629E0,2.449808234E0,1.013963210E1,1.375686927E1
8.616345417E-1,1.484247164E1,3.774302275E0,1.025448428E1,1.843091886E1
8.716695417E-1,1.176674733E1,2.878824002E0,6.112240702E0,1.356847290E1
8.817035417E-1,1.040746148E1,1.005190092E-1,1.245003892E1,1.622740976E1
8.917375417E-1,1.356428667E1,8.474090441E-1,1.050921122E1,1.717997367E1
9.017715417E-1,9.782913358E0,-3.484964502E0,1.063946028E1,1.486769944E1
9.118065417E-1,8.061856182E0,-6.145197948E0,6.889203515E0,1.225634970E1
9.218405417E-1,7.495848046E0,-1.038022749E1,-1.328216085E0,1.287249077E1
9.318745417E-1,8.445429436E0,-1.007068758E1,-4.192740136E0,1.379576372E1
9.419085417E-1,9.048522368E0,-7.851780927E0,-4.661575735E-1,1.198930872E1
9.519435417E-1,7.131012779E0,-8.521842604E0,-6.692851675E-1,1.113198488E1
9.619775417E-1,3.997657142E0,-9.622012601E0,-4.599010527E-1,1.042956845E1
9.720115417E-1,8.745095730E-1,-8.801082235E0,-7.931948300E-1,8.879919681E0
9.820455417E-1,-1.280714475E0,-6.672577039E0,-2.317841109E0,7.178850974E0
9.920805417E-1,-5.182811741E0,-4.728170843E0,-4.325710498E0,8.241899561E0
1.002114542E0,-7.401615488E0,-4.330543807E0,-4.527695546E0,9.697295935E0
1.012148542E0,-7.977498402E0,-3.936741434E0,-3.335942949E0,9.500890970E0
1.022182542E0,-9.060700364E0,-3.990200772E0,-2.220220528E0,1.014629846E1
1.032217542E0,-1.120317865E1,-4.229581103E0,-2.260282141E0,1.218644507E1
1.042251542E0,-1.228663029E1,-3.616450256E0,-3.596059846E0,1.330306892E1
1.052285542E0,-1.209533863E1,-2.771380829E0,-3.570841974E0,1.291234606E1
1.062319542E0,-1.005503810E1,-2.222688199E0,-3.417446119E0,1.085002636E1
1.072354042E0,-1.088067664E1,-7.580062862E-1,-3.234441133E0,1.137652439E1
1.082388042E0,-1.385843085E1,6.889685033E-1,-4.583300228E0,1.461291977E1
1.092422042E0,-1.444915517E1,1.235111163E0,-6.066150609E0,1.571947098E1
1.102456042E0,-1.256279312E1,1.685584604E0,-3.363003863E0,1.311391480E1
1.112491042E0,-1.057424512E1,1.785895050E0,1.108848654E0,1.078116999E1
1.122525042E0,-9.357084616E0,2.288866547E0,4.546287353E0,1.065188581E1
1.132559042E0,-8.021870583E0,3.063689864E0,6.814188416E0,1.096219718E1
1.142593042E0,-7.171945043E0,4.450697656E0,6.844001030E0,1.086673159E1
1.152628042E0,-5.769631872E0,6.080606681E0,6.587961981E0,1.066131664E1
1.162662042E0,-4.858283086E0,6.264881682E0,5.491166412E0,9.643887473E0
1.172696042E0,-4.398916469E0,7.838127093E0,4.046456542E0,9.857003245E0
1.182730042E0,-5.175324966E0,1.011863241E1,3.438179176E0,1.187399623E1
1.192765042E0,-4.141140797E0,1.132481009E1,2.727936894E0,1.236292888E1
1.202799042E0,-1.196041530E0,1.258753152E1,2.018577396E0,1.280433988E1
1.212833042E0,1.220097560E0,1.410693284E1,1.371565150E0,1.422587021E1
1.222867042E0,3.369189048E0,1.483441652E1,6.752917197E-1,1.522719170E1
1.232902042E0,3.866853173E0,1.389908187E1,6.819002429E-1,1.444306125E1
1.242936042E0,3.206824733E0,1.216896794E1,-9.039912343E-2,1.258473987E1
1.252970042E0,1.350534908E0,9.236322656E0,-3.659876357E0,1.002637999E1
1.263004042E0,-3.233278121E0,4.408955553E0,-9.932218502E0,1.133763383E1
1.273039042E0,-2.633221064E0,3.862328598E-1,-1.183839326E1,1.213386105E1
1.283073042E0,5.593630096E0,-1.809004562E0,-6.649456564E0,8.875610838E0
1.293107042E0,1.432479893E1,-3.289501146E0,4.140603730E0,1.526975053E1
1.303141042E0,1.773691823E1,-4.104455074E0,1.075186365E1,2.114349526E1
1.313176042E0,1.857701577E1,-6.885909194E0,9.735587164E0,2.207493868E1
1.323210042E0,1.729543474E1,-9.484231735E0,4.360647904E0,2.020143472E1
1.333244042E0,1.826261099E1,-9.955534859E0,2.029934004E-2,2.079990496E1
1.343278042E0,2.034804852E1,-8.490496266E0,-2.575926829E0,2.219835589E1
1.353313042E0,2.311605492E1,-9.325741201E0,-6.747678677E0,2.582348953E1
1.363347042E0,2.499633470E1,-1.060660244E1,-9.963635591E0,2.892387937E1
1.373381042E0,2.295377363E1,-1.037973281E1,-1.073814959E1,2.738471168E1
1.383415042E0,1.791019930E1,-1.152971524E1,-9.752768623E0,2.342703712E1
1.393450042E0,1.151916920E1,-1.286418551E1,-8.599489535E0,1.929066479E1
1.403484042E0,3.511835382E0,-1.150895061E1,-5.668914167E0,1.330133526E1
1.413518042E0,-1.778720078E0,-9.961304891E0,-4.550268137E0,1.109488082E1
1.423552042E0,-5.572287174E0,-6.755400510E0,-3.363905504E0,9.380921097E0
1.433587042E0,-7.229152447E0,-2.775611874E0,-2.312261549E0,8.081535736E0
1.443621042E0,-8.180875087E0,-9.948546267E-1,-9.382394727E-1,8.294380401E0
1.453655042E0,-1.055580417E1,5.156481144E-1,3.364970282E-2,1.056844487E1
1.463689042E0,-1.246182924E1,1.862042316E0,1.649838674E-1,1.260125428E1
1.473723042E0,-1.204698800E1,2.799983946E0,1.888757367E-1,1.236953936E1
1.483758042E0,-1.108420419E1,3.330349795E0,3.681171624E-1,1.157956486E1
1.493792042E0,-1.081717705E1,3.657616701E0,1.063303010E-1,1.141931633E1
1.503826042E0,-1.072074360E1,3.620276674E0,3.687224954E-2,1.131556919E1
1.513860042E0,-1.039761711E1,2.822350131E0,1.167842309E0,1.083697178E1
1.523895042E0,-8.665109328E0,3.089060640E0,1.898326628E0,9.393085717E0
1.533929042E0,-8.268376915E0,4.073240005E0,1.628993350E0,9.360072665E0
1.543963042E0,-9.024533581E0,2.921904240E0,1.354485140E0,9.581981045E0
1.553997042E0,-9.976718152E0,1.689737442E0,6.490282197E-1,1.013959345E1
1.564032042E0,-1.136285442E1,2.391524066E0,1.799914627E0,1.175046980E1
1.574066042E0,-9.909227250E0,3.725768631E0,3.912723995E0,1.128643193E1
1.584100042E0,-6.230500054E0,4.591697999E0,4.921236548E0,9.171771399E0
1.594134042E0,-4.371038699E0,5.990895774E0,4.956584136E0,8.919895615E0
1.604169042E0,-3.914243687E0,7.881839123E0,4.006042926E0,9.669181534E0
1.614203042E0,-4.049179882E0,8.724950902E0,2.578101993E0,9.958274743E0
1.624237042E0,-4.567273595E0,9.095807047E0,1.782328687E0,1.033297583E1
1.634271042E0,-5.141383048E0,9.534569246E0,1.692656372E0,1.096389146E1
1.644306042E0,-5.616840618E0,9.318641512E0,1.634536803E0,1.100262190E1
1.654340042E0,-5.285499372E0,8.339008942E0,7.971324912E-1,9.905099391E0
1.664374042E0,-5.805855957E0,6.751337280E0,-7.787292570E-1,8.938396820E0
1.674408042E0,-5.555129104E0,6.316126095E0,-6.430250296E-1,8.436017390E0
1.684443042E0,-5.295552490E0,5.767056173E0,1.349013754E0,7.944913542E0
1.694477042E0,-5.339336441E0,3.263848827E0,2.099108612E0,6.600566624E0
1.704511042E0,-4.207446468E0,1.676611905E0,2.231894201E0,5.049255885E0
1.714545042E0,-3.499548628E0,6.977347952E-1,2.182004003E0,4.182680470E0
1.724579042E0,-3.351550337E0,-1.497365509E0,9.890135506E-1,3.801728677E0
1.734614042E0,-3.086791336E0,-3.492637219E0,-9.104018292E-1,4.749276470E0
1.744648042E0,-1.519151065E0,-4.710447640E0,-2.701436143E0,5.638607467E0
1.754682042E0,1.390895314E0,-5.088745244E0,-4.242924449E0,6.769957593E0
1.764716042E0,6.441890348E0,-5.131682518E0,-5.691414253E0,1.001120936E1
1.774751042E0,1.682146178E1,-5.280933282E0,-2.667864647E0,1.783163858E1
1.784785042E0,2.260446097E1,-6.365013496E0,-1.083849249E0,2.350850445E1
1.794819042E0,2.363894101E1,-6.445720859E0,-2.694617705E0,2.464970211E1
1.804853042E0,2.363013978E1,-8.127274831E0,-4.346554068E0,2.536392388E1
1.814888042E0,2.379476930E1,-8.645214761E0,-5.660210001E0,2.594164146E1
1.824922042E0,2.400051411E1,-7.562537295E0,-6.534778047E0,2.599846096E1
1.834956042E0,2.412509021E1,-6.738706709E0,-7.885810552E0,2.626054367E1
1.844990042E0,2.141868306E1,-6.796338621E0,-8.448965247E0,2.400698266E1
1.855025042E0,1.745185010E1,-7.069650929E0,-7.252910854E0,2.017800168E1
1.865059042E0,1.326985831E1,-6.587357379E0,-4.862995357E0,1.559266304E1
1.875093042E0,8.006579529E0,-6.459988065E0,-2.694580575E0,1.063473206E1
1.885127042E0,4.667419442E0,-4.455352040E0,7.155778661E-1,6.492073454E0
1.895162042E0,-5.881918877E-1,-3.486526878E0,3.358832459E0,4.876842714E0
1.905196042E0,-4.209249750E0,-3.662183084E0,3.618452635E0,6.650005103E0
1.915230042E0,-6.830422041E0,-3.863607969E0,3.122508176E0,8.445838567E0
1.925264042E0,-9.390709029E0,-2.500259180E0,2.521403882E0,1.003963095E1
1.935299042E0,-1.100279691E1,-9.390373984E-1,1.493883785E0,1.114338458E1
1.945333042E0,-1.147307677E1,7.687679404E-1,9.858347118E-1,1.154098630E1
1.955367042E0,-1.093720635E1,2.174134236E0,7.265867114E-1,1.117484992E1
1.965401042E0,-1.060783854E1,2.518128271E0,6.611046204E-1,1.092264931E1
1.975436042E0,-1.019562504E1,2.802514329E0,1.951439519E0,1.075234731E1
1.985470042E0,-9.438450376E0,3.177119416E0,2.847042630E0,1.035780310E1
1.995504042E0,-8.814354830E0,3.262274171E0,3.289061436E0,9.957570435E0
2.005538042E0,-8.120014343E0,3.205963438E0,3.681414284E0,9.474473370E0
2.015572042E0,-9.434809315E0,1.578118189E0,3.850880334E0,1.031190395E1
2.025607042E0,-1.098811689E1,7.177699873E-1,7.742575403E0,1.346110621E1
2.035641042E0,-7.238789828E0,2.821226881E0,6.156656152E0,9.912810613E0
2.045675042E0,-1.813038556E0,3.771549405E0,7.578427103E0,8.657034774E0
2.055709042E0,-2.735194750E0,5.613164474E0,4.567945732E0,7.736603515E0
2.065744042E0,-1.897647182E0,8.714646939E0,4.536727155E0,1.000639942E1
2.075777583E0,-4.237058523E0,8.851268302E0,1.725534681E0,9.963688344E0
2.085811583E0,-4.392935352E0,9.075165206E0,-7.087445176E-1,1.010736481E1
2.095845583E0,-3.882934771E0,1.028535758E1,-1.704322737E0,1.112521816E1
2.105880583E0,-3.186615002E0,1.170098720E1,-2.826178011E0,1.245210419E1
2.115914583E0,-1.421055252E0,1.249912512E1,-3.962715058E0,1.318903474E1
2.125948583E0,-6.779665285E-1,1.275240312E1,-3.856067692E0,1.333989063E1
2.135982583E0,-9.993675077E-1,1.189560359E1,-3.264361043E0,1.237578980E1
2.146017583E0,-9.902698249E-1,9.767531673E0,-2.265159011E0,1.007552751E1
2.156051583E0,-5.406201106E-1,7.572429614E0,-2.810112493E0,8.095103001E0
2.166085583E0,-2.744104153E-1,6.076154026E0,-2.939424545E0,6.755380483E0
2.176119583E0,3.320575297E-1,5.940545400E0,-2.511323574E0,6.458102504E0
2.186154583E0,4.114609641E-1,4.849091848E0,-1.673660815E0,5.146273642E0
2.196188583E0,1.665149608E0,3.012104266E0,-1.154659908E0,3.630252722E0
2.206222583E0,1.086606211E0,-7.377768204E-2,-2.698802265E0,2.910273161E0
2.216256583E0,1.915140297E0,-1.607367423E0,-2.676156876E0,3.662404676E0
2.226291583E0,2.572933931E0,-5.364681782E0,-1.374198589E0,6.106408224E0
2.236325583E0,4.935425987E0,-6.328491787E0,7.565362962E-1,8.061053599E0
2.246359583E0,5.978682695E0,-7.677838540E0,5.887947357E-1,9.748873302E0
2.256393583E0,7.388010187E0,-9.285008912E0,-6.401144318E-1,1.188292184E1
2.266427583E0,9.265924770E0,-9.709142547E0,-1.879027308E0,1.355195759E1
2.276462583E0,1.275064193E1,-9.010977396E0,-3.415412457E0,1.598254128E1
2.286496583E0,1.763192563E1,-8.008517296E0,-5.053480686E0,2.001396557E1
2.296530583E0,2.178787158E1,-7.593046896E0,-6.521152865E0,2.397688770E1
2.306564583E0,2.391468166E1,-7.426157421E0,-7.268939241E0,2.607484019E1
2.316599583E0,2.438733315E1,-7.387558782E0,-6.988237807E0,2.642259470E1
2.326633583E0,2.308527985E1,-7.320592960E0,-4.335753676E0,2.460325155E1
2.336667583E0,1.866468892E1,-6.412520953E0,-7.843829298E-1,1.975110868E1
2.346701583E0,1.286004100E1,-5.262946077E0,2.095459511E0,1.405240928E1
2.356736583E0,6.911871416E0,-4.447103665E0,2.277101072E0,8.528533682E0
2.366770583E0,1.436526400E0,-3.728449871E0,1.023632356E0,4.124653893E0
2.376804583E0,-3.315153759E0,-3.274767625E0,-2.530686629E-1,4.666732389E0
2.386838583E0,-6.573942697E0,-2.313119336E0,-1.593059871E0,7.148781952E0
2.396873583E0,-9.853868151E0,-1.332555304E0,-2.795809911E0,1.032913231E1
2.406907583E0,-1.079195333E1,3.151625848E-1,-4.287248683E0,1.161662969E1
2.416941583E0,-1.086152116E1,2.544651534E0,-4.024777697E0,1.185945736E1
2.426975583E0,-1.205105767E1,3.778692656E0,-2.039030517E0,1.279312919E1
2.437010583E0,-1.269351464E1,4.359651246E0,-5.266738800E-1,1.343165136E1
2.447044583E0,-1.441466245E1,4.718960309E0,-5.400593992E-1,1.517704662E1
2.457078583E0,-1.590581236E1,4.541150866E0,-1.040913144E0,1.657408876E1
2.467112583E0,-1.626285856E1,3.942382243E0,-1.407251730E0,1.679295399E1
2.477146583E0,-1.505275856E1,4.965927402E0,-1.397488049E0,1.591222638E1
2.487181583E0,-1.342606785E1,4.923318742E0,-6.190108073E-1,1.431368365E1
2.497215583E0,-1.116865903E1,4.064210443E0,-7.542417026E-1,1.190905670E1
2.507249583E0,-8.969645768E0,3.699275481E0,-1.707200591E-1,9.704036769E0
2.517283583E0,-7.130353214E0,3.854990342E0,1.341097502E0,8.215925389E0
2.527318583E0,-6.021876662E0,3.904213958E0,1.898539467E0,7.423633697E0
2.537352583E0,-4.885636361E0,3.648135733E0,2.440509700E0,6.567680303E0
2.547386583E0,-2.171466444E0,3.092872440E0,2.624081866E0,4.600753426E0
2.557420583E0,-7.295103192E-2,2.078744221E0,2.430394017E0,3.198955215E0
2.567455583E0,5.261342186E-1,2.090671372E0,2.290944940E0,3.145815112E0
2.577489583E0,1.304151285E0,3.445237935E0,2.655859144E0,4.541372347E0
2.587523583E0,2.170198182E0,4.960802903E0,3.452136480E0,6.421570825E0
2.597557583E0,2.284558611E0,5.418862082E0,3.034700246E0,6.617603788E0
2.607592583E0,2.256387311E0,5.350216940E0,2.050729626E0,6.158051396E0
2.617626583E0,1.596714381E0,5.471720327E0,1.483954335E0,5.889935536E0
2.627660583E0,1.957769423E0,5.569760007E0,5.556527174E-1,5.929910420E0
2.637694583E0,3.656409543E0,5.443741400E0,1.121086657E-2,6.557726501E0
2.647729583E0,4.554336045E0,5.087649475E0,-3.242953509E-1,6.836031120E0
2.657763583E0,5.263511503E0,4.602653927E0,-2.300394040E0,7.360760100E0
2.667797583E0,5.573954215E0,4.308196333E0,-1.084359594E1,1.293109021E1
2.677831583E0,4.189974111E0,3.819565571E0,-2.189479610E1,2.261696400E1
2.687865583E0,8.620865201E0,2.975122381E0,-4.339026362E0,1.009939700E1
2.697900583E0,1.186185463E1,3.981117707E-1,1.319123080E0,1.194161522E1
2.707934583E0,1.297176960E1,-4.237378365E0,1.977017287E0,1.378879180E1
2.717968583E0,1.282556816E1,-1.054521252E1,4.692205204E0,1.725437612E1
2.728002583E0,8.002448471E0,-1.599572149E1,6.451726534E0,1.901386502E1
2.738037583E0,2.504620911E0,-1.842837955E1,7.561560225E0,2.007624197E1
2.748071583E0,-6.242043042E-1,-2.101608823E1,7.485203190E0,2.231801654E1
2.758105583E0,-8.468528277E-1,-2.440840652E1,6.351380712E0,2.523544146E1
2.768139583E0,2.375389844E0,-2.616081237E1,5.532132590E0,2.684464699E1
2.778174583E0,7.835722718E0,-2.429295208E1,6.230034031E0,2.627469115E1
2.788208583E0,1.165202613E1,-2.070935031E1,8.668790735E0,2.529416605E1
2.798242583E0,1.151792842E1,-1.612902514E1,9.735685982E0,2.208147886E1
2.808276583E0,5.492348135E0,-1.148599912E1,7.894241068E0,1.498042409E1
2.818311583E0,-2.611766460E0,-8.585430490E0,3.715549452E0,9.712684926E0
2.828345583E0,-4.383131910E0,-3.913710421E0,-4.747451452E0,7.554288179E0
2.838379583E0,-5.470318165E0,1.036972121E0,-1.268902982E1,1.385680951E1
2.848413583E0,-6.315713866E0,4.248496846E0,-1.234135438E1,1.449989638E1
2.858447583E0,-6.492943558E0,5.567807622E0,-4.760483726E0,9.788820310E0
2.868482583E0,-5.850787717E0,6.186037241E0,-3.169378579E0,9.085358234E0
2.878516583E0,-4.315876066E0,6.344987367E0,-3.440549052E0,8.409698490E0
2.888550583E0,-3.599131973E0,6.181231415E0,-2.344296690E0,7.527091054E0
2.898584583E0,-2.984042893E0,6.609174510E0,-1.081083516E0,7.331742035E0
2.908619583E0,-2.146813413E0,7.470928382E0,-6.848533791E-1,7.803371251E0
2.918653583E0,-1.958420218E0,8.168726327E0,-9.194688141E-1,8.450380019E0
2.928687583E0,-2.434966539E0,8.499740714E0,-2.000603201E0,9.065156778E0
2.938721583E0,-2.694011641E0,8.796552397E0,-2.169429858E0,9.452166879E0
2.948756583E0,-1.575876074E0,9.635540135E0,-8.715877193E-1,9.802381560E0
2.958790583E0,1.054209128E0,1.104777486E1,1.866264591E0,1.125378291E1
2.968824583E0,4.050983748E0,1.262246980E1,4.574555717E0,1.402368615E1
2.978858583E0,4.849495890E0,1.289018808E1,6.371555945E0,1.517469223E1
2.988893583E0,4.234284604E0,1.067900383E1,6.747401519E0,1.332282689E1
2.998927583E0,4.948699751E0,8.230766455E0,6.094516622E0,1.137445728E1
3.008961583E0,6.186285748E0,6.695117471E0,5.598946969E0,1.069780054E1
3.018995583E0,6.053617687E0,4.949476261E0,6.695061922E0,1.029404957E1
3.029029583E0,4.920692173E0,3.597334539E0,7.079712818E0,9.342181802E0
3.039064583E0,3.592885977E0,2.153199742E0,5.496316055E0,6.910469517E0
3.049098583E0,1.334439277E0,4.369565785E-1,3.296430974E0,3.583031733E0
3.059132583E0,-2.822978999E0,-1.017155322E0,-2.131409508E-1,3.008196211E0
3.069167042E0,-8.199795508E0,-1.938320414E0,-7.122631381E0,1.103293298E1
3.079202042E0,-1.211181257E1,-1.411286309E0,-1.128623601E1,1.661525974E1
3.089236042E0,-1.196634554E1,5.789339912E-1,-9.643715712E0,1.537952675E1
3.099270042E0,-1.005177769E1,2.734362399E0,-7.036463887E0,1.257087095E1
3.109304042E0,-1.010354426E1,2.715835789E0,-7.496982991E0,1.287097994E1
3.119339042E0,-8.521751972E0,1.328850508E0,-5.819205151E0,1.040428993E1
3.129373042E0,-6.658173593E0,-2.737610820E-1,-2.726112855E0,7.199855000E0
3.139407042E0,-4.754367539E0,-3.753468060E-1,-2.630540115E0,5.446525242E0
3.149441042E0,-5.043642746E0,-3.155961558E-1,-4.542406556E-1,5.073880926E0
3.159475042E0,-5.608611832E0,-2.731687590E-1,-2.463878682E0,6.132034410E0
3.169510042E0,3.719581692E0,-1.200511726E0,-5.713830138E0,6.922743041E0
3.179544042E0,1.269942500E1,-1.136264567E0,-2.251634109E0,1.294744565E1
3.189578042E0,1.414428135E1,-7.468651477E-1,-1.282019573E0,1.422188724E1
3.199612042E0,1.450231221E1,-1.344269324E0,-9.200199142E-1,1.459351075E1
3.209647042E0,1.265461896E1,-2.385136275E0,6.170996448E-1,1.289220959E1
3.219681042E0,1.070942807E1,-3.664189264E0,1.392916111E0,1.140431268E1
3.229715042E0,8.464457445E0,-6.952530030E0,3.177318513E-1,1.095836061E1
3.239749042E0,5.694027958E0,-1.175880096E1,-9.854645830E-1,1.310200347E1
3.249784042E0,2.855011216E0,-1.758157058E1,4.200832683E-1,1.781682303E1
3.259818042E0,2.403412040E0,-1.918822055E1,3.846356928E0,1.971696373E1
3.269852042E0,1.783990173E0,-1.750729573E1,5.751967433E0,1.851413390E1
3.279886042E0,3.702132431E0,-1.440290136E1,7.859741326E0,1.682037115E1
3.289921042E0,5.013631327E0,-7.482210000E0,6.551354318E0,1.113733402E1
3.299955042E0,3.484010822E0,-3.122279842E0,6.299893640E0,7.847013616E0
3.309989042E0,-1.667690223E-1,-5.072354329E-1,3.406721740E0,3.448311573E0
3.320023042E0,-2.474725851E0,1.390935659E0,2.739399483E0,3.945032266E0
3.330057042E0,-3.059487178E0,3.786183817E0,3.972575510E0,6.283072964E0
3.340092042E0,-2.777739676E0,5.930877614E0,2.683043434E0,7.077419660E0
3.350126042E0,-2.298001652E0,7.113311504E0,-2.264792683E0,7.810844899E0
3.360160042E0,-1.338185296E0,7.288970048E0,-6.930743889E0,1.014667606E1
3.370194042E0,-3.645081148E-1,7.513853962E0,-7.900768899E0,1.090930872E1
3.380229042E0,-4.395542040E-1,7.956530287E0,-6.335778002E0,1.018045505E1
3.390263042E0,-4.079231063E-1,8.202613866E0,-4.542053384E0,9.385069229E0
3.400297042E0,4.243900350E-1,8.613698854E0,-2.877880261E0,9.091650546E0
3.410331042E0,1.381883292E0,9.046874038E0,-2.187250417E0,9.409548113E0
3.420366042E0,1.312459155E0,9.223910186E0,-1.425463468E0,9.425232849E0
3.430400042E0,2.516018304E0,9.905384459E0,5.530413508E0,1.162034694E1
3.440434042E0,3.175486288E0,9.540668476E0,8.992279755E0,1.348959463E1
3.450468042E0,3.937697453E0,6.959971197E0,6.059722765E0,1.003328960E1
3.460503042E0,5.282506768E0,6.183955048E0,3.809705411E0,8.981093091E0
3.470537042E0,5.724493121E0,5.915550308E0,2.112259292E0,8.498540831E0
3.480571042E0,6.119160882E0,5.368818102E0,1.815863931E0,8.340605465E0
3.490605042E0,5.611108008E0,5.506469745E0,7.094520307E-1,7.893609080E0
3.500639042E0,5.170315071E0,6.011559250E0,-1.530754865E0,8.075531748E0
3.510674042E0,5.229548535E0,7.433719625E0,-6.570517983E0,1.121517151E1
3.520708042E0,5.405141591E0,7.421808262E0,-4.374665726E0,1.017037333E1
3.530742042E0,4.706943404E0,7.339382402E0,-2.654693209E0,9.114233171E0
3.540776042E0,3.145864002E0,7.697868762E0,-2.867396203E0,8.796340420E0
3.550811042E0,2.197224744E0,7.569189672E0,-2.942668580E0,8.413068836E0
3.560845042E0,2.040934663E0,7.153501171E0,-2.846405869E0,7.964924335E0
3.570879042E0,2.471242080E0,6.502215487E0,-2.734138159E0,7.474045433E0
3.580913042E0,2.807385644E0,5.612987888E0,-2.335436988E0,6.696365664E0
3.590948042E0,2.395520638E0,4.668305295E0,-1.628276482E0,5.493894589E0
3.600982042E0,1.349224985E0,3.251051318E0,-6.647892433E-1,3.582134485E0
3.611016042E0,3.246632870E-1,1.550403848E0,-2.939476987E-1,1.611075291E0
3.621050042E0,1.707177933E-1,8.822752601E-1,-9.169638669E-1,1.283891324E0
3.631085042E0,-2.046491857E-1,4.747851402E-1,-2.969216108E0,3.013892254E0
3.641119042E0,3.229387969E-2,-3.118056983E-1,-3.091509454E0,3.107361645E0
3.651153042E0,4.815411593E-1,-3.160249321E0,-4.274570458E-1,3.225178629E0
3.661187042E0,-1.719017082E-1,-8.851876413E0,2.924825217E0,9.324155124E0
3.671221042E0,-3.199976474E-2,-2.453335216E1,4.587952273E0,2.495867982E1
3.681256042E0,-8.837715626E-2,-4.133931414E1,-1.189013834E0,4.135650442E1
3.691290042E0,-2.656757276E0,-6.177430374E1,-5.587260139E0,6.208333462E1
3.701324042E0,-6.935802315E0,-7.374979433E1,-3.314055651E0,7.414931208E1
3.711358042E0,-8.848550516E0,-6.242874750E1,-9.856019926E-1,6.306042160E1
3.721393042E0,-5.632324045E0,-3.812597912E1,-1.201879975E0,3.855849937E1
3.731427042E0,-1.292772311E0,-1.782166076E1,-2.273923695E0,1.801259508E1
3.741461042E0,1.460973901E0,-4.266493406E0,-3.720031343E0,5.846028046E0
3.751495042E0,2.435750505E0,3.598533803E0,-4.720991632E0,6.416392135E0
3.761530042E0,2.287884215E0,7.201152470E0,-4.194058099E0,8.641824716E0
3.771564042E0,2.025761723E0,9.034162776E0,-3.224114365E0,9.803811558E0
3.781598042E0,1.810357023E0,1.018099882E1,-2.700238926E0,1.068744215E1
3.791632042E0,1.924195734E0,1.104279070E1,-2.950899705E0,1.159109851E1
3.801666042E0,2.322711255E0,1.141396844E1,-3.249271426E0,1.209261873E1
3.811701042E0,2.756224262E0,1.131830799E1,-3.069868324E0,1.204678212E1
3.821735042E0,3.039727974E0,1.113592164E1,-2.870981131E0,1.189500860E1
3.831769042E0,3.407835927E0,1.105266898E1,-3.132342900E0,1.198275467E1
3.841803042E0,3.828707693E0,1.114371364E1,-3.302053657E0,1.223703046E1
3.851838042E0,4.770384817E0,1.252565394E1,-2.997423661E0,1.373437754E1
3.861872042E0,6.067184397E0,1.622568430E1,-2.534491997E0,1.750734723E1
3.871906042E0,3.842284927E0,1.278417221E1,-1.808737344E0,1.347107061E1
3.881940042E0,2.656704651E0,1.176944290E1,-9.937354696E-1,1.210641879E1
3.891975042E0,1.453793228E0,1.075600699E1,4.459893572E-1,1.086296956E1
3.902009042E0,1.712682172E-1,1.122356205E1,8.422715342E-1,1.125642479E1
3.912043042E0,-7.635355595E-1,1.273480767E1,8.575538170E-1,1.278646595E1
3.922077042E0,-9.224625885E-1,1.351362172E1,1.081126712E0,1.358814719E1
3.932111042E0,-9.172909456E-1,1.357973268E1,1.681470941E0,1.371414987E1
3.942146042E0,-1.779536788E0,1.175871793E1,5.056536441E0,1.292295475E1
3.952180042E0,5.449861535E-1,1.235938252E1,7.497929070E0,1.446617733E1
3.962214042E0,2.020127785E0,1.227000315E1,9.132966102E0,1.542870582E1
3.972248042E0,2.146383935E0,1.112615094E1,1.098330112E1,1.578071932E1
3.982283042E0,3.172241084E0,1.200513831E1,1.132490716E1,1.680595078E1
3.992317042E0,3.267232026E0,1.257651887E1,1.072658848E1,1.684943122E1
4.002351042E0,2.294739052E0,1.282917004E1,8.686428276E0,1.566229445E1
4.012385042E0,1.742181704E0,1.359182706E1,6.398639663E0,1.512334452E1
4.022419042E0,2.170174647E0,1.335062941E1,3.843514012E0,1.406134999E1
4.032454042E0,2.904476029E0,1.230116296E1,2.240629649E0,1.283647196E1
4.042488042E0,3.102729676E0,1.098460154E1,1.161213686E0,1.147330901E1
4.052522042E0,3.095879079E0,9.203944284E0,1.123396307E0,9.775432313E0
4.062556042E0,2.512224630E0,7.301818135E0,1.431694261E0,7.853506804E0
4.072591417E0,2.154121848E0,6.956333059E0,1.411720172E0,7.417800510E0
4.082625417E0,2.216808531E0,6.835522567E0,1.293836212E0,7.301549217E0
4.092659417E0,2.757883994E0,6.094150001E0,4.623079129E-1,6.705096343E0
4.102693417E0,4.047494130E0,4.630409490E0,-1.453617811E-1,6.151750225E0
4.112728417E0,5.289911681E0,2.037966324E0,5.937553672E-1,5.699913839E0
4.122762417E0,4.846113861E0,-7.731907743E0,3.216642208E0,9.675433013E0
4.132796417E0,5.004862257E0,-3.093234149E1,3.642918847E0,3.154566934E1
4.142830417E0,1.214449851E1,-4.973445635E1,7.830200608E0,5.179109030E1
4.152865417E0,1.366391738E1,-7.061843727E1,1.156446992E1,7.285192712E1
4.162899417E0,7.858222219E0,-7.415483797E1,1.049883124E1,7.530549189E1
4.172933417E0,-8.677807726E0,-8.795424820E1,-4.529604077E1,9.931256433E1
4.182967417E0,7.267353769E-1,-6.514621993E1,-1.823284632E0,6.517578141E1
4.193001417E0,2.858898445E0,-2.777434452E1,2.808507023E1,3.960250855E1
4.203036417E0,-1.515985821E0,-1.450421138E1,5.347883316E0,1.553287536E1
4.213070417E0,-2.120778831E0,-8.798961450E0,-6.689610855E-1,9.075623085E0
4.223104417E0,-1.839680371E0,-1.643886209E0,-1.414946666E0,2.844092087E0
4.233138417E0,-1.410923489E0,3.899352583E0,-3.274317681E0,5.283636242E0
4.243173417E0,-1.014015441E0,7.714781249E0,-5.353266848E0,9.444762727E0
4.253207417E0,-5.488166644E-1,1.024131285E1,-8.215390617E0,1.314071275E1
4.263241417E0,-8.894886777E-2,1.123583418E1,-7.474555410E0,1.349521620E1
4.273275417E0,-8.545091718E-2,1.096739085E1,-4.033505836E0,1.168589463E1
4.283310417E0,-1.210163140E-1,1.069744595E1,-2.560120343E0,1.100019141E1
4.293344417E0,-1.179865061E-1,1.058179387E1,-2.248050935E0,1.081859582E1
4.303378417E0,-1.403119064E-1,1.069239162E1,-2.044623964E0,1.088702958E1
4.313412417E0,-1.968780899E-1,1.095927258E1,-2.203426740E0,1.118031778E1
4.323446417E0,-1.416212442E-1,1.151351144E1,-2.884636719E0,1.187022035E1
4.333481417E0,9.549826093E-2,1.190929192E1,-2.808735182E0,1.223639438E1
4.343515417E0,-1.361090740E-1,1.205058989E1,-2.234791497E0,1.225681587E1
4.353549417E0,1.716088358E-1,1.272972411E1,-1.914223892E0,1.287398845E1
4.363583417E0,6.017172284E-1,1.386849040E1,-1.093585448E0,1.392454735E1
4.373618417E0,8.659046642E-1,1.512134173E1,-4.975103438E-1,1.515428266E1
4.383652417E0,1.062551351E0,1.638125415E1,-3.680009490E-1,1.641980291E1
4.393686417E0,1.384512493E0,1.733528351E1,-3.087527208E-1,1.739322447E1
4.403720417E0,1.572392595E0,1.773759066E1,-1.920207348E-1,1.780818388E1
4.413754417E0,1.367667396E0,1.698298643E1,-2.602262396E-1,1.703995481E1
4.423789417E0,1.257075205E0,1.573889190E1,1.366272104E-1,1.578960491E1
4.433823417E0,1.382772654E0,1.509369375E1,8.094359100E-1,1.517849919E1
4.443857417E0,1.273446532E0,1.467020097E1,1.417079730E0,1.479339642E1
4.453891417E0,9.059781913E-1,1.436714212E1,1.825507743E0,1.451096302E1
4.463926417E0,4.745462814E-1,1.423125634E1,1.914799404E0,1.436733476E1
4.473960417E0,1.092245266E-1,1.409658678E1,1.994698098E0,1.423743338E1
4.483994417E0,-4.105002666E-1,1.370543846E1,2.603904294E0,1.395664255E1
4.494028417E0,-5.893321679E-1,1.261300783E1,3.910851717E0,1.321854909E1
4.504063417E0,-3.048233919E-1,1.114799146E1,5.510018420E0,1.243908895E1
4.514097417E0,-5.109547736E-1,1.016790339E1,4.120066262E0,1.098281750E1
4.524131417E0,-1.066732402E0,9.744722854E0,1.778590854E0,9.962977815E0
4.534165417E0,-1.602403429E0,9.376816045E0,1.149184940E0,9.581910139E0
4.544199417E0,-1.738382037E0,8.879773479E0,8.396016955E-1,9.087204198E0
4.554234417E0,-2.041030996E0,8.468275677E0,7.260604620E-1,8.740976162E0
4.564268417E0,-1.773609027E0,7.302783510E0,3.312479242E0,8.212725169E0
4.574302417E0,1.109322059E-1,4.640623407E0,7.948835936E0,9.204981493E0
4.584336417E0,1.607080910E-1,3.836738259E-1,9.582074364E0,9.591099093E0
4.594371417E0,1.191701142E0,-1.296595980E1,5.909366877E0,1.429884199E1
4.604405417E0,6.012641569E0,-5.254119003E1,2.943166763E0,5.296593943E1
4.614439417E0,9.385861688E0,-9.631804934E1,3.114768509E0,9.682439161E1
4.624473417E0,2.048273328E1,-1.200110701E2,6.809832240E0,1.219367587E2
4.634508417E0,2.536751829E1,-1.066341282E2,2.650509175E1,1.127690923E2
4.644542417E0,1.761350807E1,-6.233155274E1,6.618024271E0,6.510957210E1
4.654576417E0,1.205000517E1,-3.329171406E1,-6.707565608E0,3.603515347E1
4.664610417E0,1.896470722E1,3.399982824E0,-9.838553123E1,1.002543404E2
4.674644417E0,6.462624575E0,5.607099157E0,-3.938333631E1,4.030201305E1
4.684679417E0,-1.970630812E0,2.306200325E-1,9.904657066E-1,2.217564816E0
4.694713417E0,8.825868619E-2,4.600002215E0,-2.560827856E0,5.265515101E0
4.704747417E0,1.717197575E0,7.229557074E0,-3.231779480E-1,7.437721895E0
4.714781417E0,3.327850110E0,1.011365994E1,1.758619105E0,1.079135974E1
4.724816417E0,3.534968137E0,1.192606291E1,1.498950105E0,1.252891965E1
4.734850417E0,4.825999439E0,1.281239906E1,1.896798166E0,1.382192763E1
4.744884417E0,6.240251455E0,1.369510877E1,2.517318140E0,1.525888702E1
4.754918417E0,6.891365815E0,1.421655644E1,2.299766634E0,1.596528504E1
4.764953417E0,7.675606073E0,1.444504341E1,1.799889922E0,1.645642159E1
4.774987417E0,8.086682290E0,1.447406665E1,1.122861287E0,1.661787752E1
4.785021417E0,8.831238080E0,1.484162964E1,8.823308086E-1,1.729286686E1
4.795055417E0,1.010952713E1,1.534400838E1,5.614630225E-1,1.838358976E1
4.805089417E0,1.139452644E1,1.608885711E1,-4.769462711E-1,1.972090347E1
4.815124417E0,1.172047831E1,1.673424354E1,-1.513311451E0,2.048644992E1
4.825158417E0,1.081476800E1,1.687169872E1,-2.597195199E0,2.020789072E1
4.835192417E0,9.412858867E0,1.680805411E1,-3.762334194E0,1.962823868E1
4.845226417E0,7.589798183E0,1.710338060E1,-4.984005239E0,1.936416724E1
4.855261417E0,5.299211093E0,1.741238607E1,-5.730270755E0,1.908163593E1
4.865295417E0,3.413206887E0,1.764391944E1,-5.879208108E0,1.890827761E1
4.875329417E0,2.698195909E0,1.758246052E1,-4.856304388E0,1.843927524E1
4.885363417E0,2.546107783E0,1.749697774E1,-3.021268022E0,1.793752924E1
4.895397417E0,2.558116210E0,1.720577003E1,-1.075836225E0,1.742813542E1
4.905432417E0,3.087236894E0,1.694420185E1,8.992918271E-1,1.724661514E1
4.915466417E0,3.498592608E0,1.686648183E1,2.581225868E0,1.741783817E1
4.925500417E0,3.515146660E0,1.613448527E1,3.269150205E0,1.683345521E1
4.935534417E0,2.673922070E0,1.394617768E1,2.558103054E0,1.442877758E1
4.945569417E0,3.385108823E-1,1.131096155E1,1.303371266E0,1.139083919E1
4.955603417E0,-7.445443878E-1,9.075143571E0,1.378522021E0,9.209391953E0
4.965637417E0,4.011479740E-1,8.152565793E0,3.321030210E0,8.812178525E0
4.975671417E0,5.417158423E-1,7.642809625E0,4.145305184E0,8.711460847E0
4.985706417E0,1.686065830E-1,7.032026435E0,4.710674804E0,8.465712083E0
4.995740417E0,2.928471979E-2,6.372387419E0,5.501005522E0,8.418387065E0
5.005774417E0,-3.683520012E-1,5.576135811E0,6.945430341E0,8.914481275E0
5.015808417E0,-1.260282549E-1,4.972426583E0,7.024609827E0,8.607325511E0
5.025842417E0,-4.031384759E-2,5.864146850E0,3.927423896E0,7.057938930E0
5.035877417E0,-4.992731331E-1,2.315042485E0,1.770018836E0,2.956630185E0
5.045911417E0,2.550972374E0,-2.353579612E1,1.050686108E0,2.369694285E1
5.055945417E0,3.126449784E0,-5.500625453E1,-1.233728589E0,5.510884513E1
5.065979417E0,4.301260366E0,-8.846045803E1,-2.705190202E-1,8.856538069E1
5.076013708E0,6.495423946E0,-8.829159980E1,8.415326800E0,8.892926882E1
5.086047708E0,1.094262438E1,-6.518359533E1,1.446080633E1,6.765912391E1
5.096081708E0,6.675090757E0,-4.229961874E1,2.386938679E0,4.288953320E1
5.106115708E0,2.293028010E0,-2.381864465E1,-2.865194727E0,2.409969194E1
5.116150708E0,1.043194582E0,-1.079609082E1,-6.047695042E0,1.241847202E1
5.126184708E0,2.526135156E0,4.876137559E0,-4.745202145E1,4.776873890E1
5.136218708E0,2.141213242E0,8.298861959E0,-3.281403630E1,3.391484752E1
5.146252708E0,1.003626327E0,6.663251315E0,-1.029265842E1,1.230223562E1
5.156286708E0,7.488646761E-1,8.310808990E0,-5.620579913E0,1.006087784E1
5.166321708E0,4.642420256E-1,1.002152887E1,-2.464873878E0,1.033064203E1
5.176355708E0,2.427091509E-1,1.093199999E1,-8.363670158E-1,1.096663309E1
5.186389708E0,3.398920678E-2,1.089446905E1,7.395678956E-2,1.089477310E1
5.196423708E0,2.203832756E-1,1.049077027E1,6.287335575E-1,1.051190447E1
5.206458708E0,6.380384510E-1,1.035857993E1,7.269164944E-1,1.040363776E1
5.216492708E0,1.625390881E0,1.066764971E1,8.738359737E-1,1.082609048E1
5.226526708E0,3.067381211E0,1.130920270E1,1.256104714E0,1.178493497E1
5.236560708E0,4.584646842E0,1.204396382E1,2.183332783E0,1.307069215E1
5.246595708E0,5.342055396E0,1.252592174E1,2.797858776E0,1.390195256E1
5.256629708E0,5.526140948E0,1.282451566E1,2.553273253E0,1.419597267E1
5.266663708E0,5.304661868E0,1.297031832E1,2.224725223E0,1.418865734E1
5.276697708E0,4.771962688E0,1.313351060E1,1.770862005E0,1.408533566E1
5.286731708E0,1.232997804E1,3.372986230E1,9.110593486E-1,3.592439280E1
5.296766708E0,1.036425523E1,3.314060095E1,1.607683758E0,3.476063672E1
5.306800708E0,4.600867018E0,2.664032616E1,1.000717045E0,2.705321404E1
5.316834708E0,1.180811726E0,2.733224823E1,3.099503767E-1,2.735949888E1
5.326868708E0,-2.441648883E0,2.372878231E1,-2.398843026E0,2.397438647E1
5.336903708E0,-4.949144724E0,1.935451536E1,-6.175311109E0,2.090994418E1
5.346937708E0,-3.150999026E0,1.496417793E1,-4.710458457E0,1.600136978E1
5.356971708E0,-1.703326372E0,1.267019828E1,-8.973411959E-1,1.281563367E1
5.367005708E0,-2.149102598E0,1.029743559E1,1.036582696E-1,1.051981781E1
5.377039708E0,-2.848113548E0,8.752936261E0,1.300448828E0,9.296064282E0
5.387074708E0,-3.733291658E0,6.438009551E0,3.457456276E0,8.206061022E0
5.397108708E0,-3.482035047E0,4.381319273E0,5.160494088E0,7.612570254E0
5.407142708E0,-4.181985937E0,6.103686225E-1,5.058177170E0,6.591412027E0
5.417176708E0,-9.708544376E-1,-9.527301157E0,4.121019359E0,1.042568109E1
5.427211708E0,1.003368523E1,-3.823516067E1,5.413748692E0,3.989875970E1
5.437245708E0,1.631223595E1,-6.869626101E1,5.456859044E0,7.081696569E1
5.447279708E0,2.558554459E1,-6.676525313E1,8.162582073E0,7.196420543E1
5.457313708E0,2.509191562E1,-6.215472359E1,1.104326900E1,6.793208141E1
5.467348708E0,2.054891908E1,-6.217598874E1,2.430240352E1,6.984782365E1
5.477382708E0,1.161199024E1,-5.191102859E1,5.205389594E0,5.344800545E1
5.487416708E0,4.669172145E0,-3.152844875E1,-4.533769634E0,3.219315636E1
5.497450708E0,1.347024532E0,-1.207299525E1,-2.722179199E1,2.980935505E1
5.507484708E0,-1.997381093E0,2.369480063E0,-4.939398468E1,4.949110718E1
5.517519708E0,-4.202757294E0,5.774779760E0,-2.257652297E1,2.367932938E1
5.527553708E0,-6.810973032E0,8.109058415E0,-9.341975411E0,1.412156814E1
5.537587708E0,-8.230355396E0,9.278045463E0,-6.808983809E0,1.414860905E1
5.547621708E0,-7.810875560E0,9.634166039E0,-6.328563123E0,1.392399524E1
5.557656708E0,-6.518196512E0,9.300407555E0,-4.803371884E0,1.233113328E1
5.567690708E0,-5.455057517E0,8.950082154E0,-2.856965940E0,1.086387948E1
5.577724708E0,-4.894035009E0,9.075238881E0,-1.560758098E0,1.042820719E1
5.587758708E0,-4.389358025E0,9.498975490E0,-1.246473619E0,1.053805939E1
5.597792708E0,-3.841799024E0,9.901439928E0,-9.310919094E-1,1.066137254E1
5.607827708E0,-3.324180105E0,1.039128223E1,-7.593808935E-1,1.093643357E1
5.617861708E0,-3.654094630E-1,1.594850756E1,-1.342517352E0,1.600908400E1
5.627895708E0,-7.573158762E-1,1.507974931E1,-1.179860530E0,1.514478252E1
5.637929708E0,-2.923104966E-1,1.681441822E1,-9.946932435E-1,1.684635035E1
5.647964708E0,4.573238924E-2,2.036407456E1,4.084490633E-1,2.036822169E1
5.657998708E0,7.093934123E-1,2.303558320E1,1.824112013E0,2.311857947E1
5.668032708E0,1.627212581E0,2.287830245E1,9.095700628E-1,2.295412515E1
5.678066708E0,2.138749225E0,2.101434576E1,-6.778361356E-1,2.113377481E1
5.688101708E0,8.722222884E-1,1.670879997E1,2.066903025E-1,1.673282669E1
5.698135708E0,-3.228692150E-1,1.287266631E1,2.034625225E0,1.303646740E1
5.708169708E0,3.223254240E-1,1.176567846E1,3.580940115E0,1.230277267E1
5.718203708E0,9.905108763E-1,1.113971999E1,4.523551040E0,1.206387116E1
5.728237708E0,1.250793249E0,1.035860214E1,4.373585161E0,1.131341546E1
5.738272708E0,1.144724611E0,9.423673877E0,3.949872526E0,1.028190239E1
5.748306708E0,9.805482441E-1,8.868199500E0,3.541154491E0,9.599281867E0
5.758340708E0,5.750395994E-1,8.396498766E0,3.366951903E0,9.064669171E0
5.768374708E0,1.886327849E-1,7.950225819E0,3.731075563E0,8.784224369E0
5.778409708E0,-2.449786015E-2,7.223607532E0,3.957563953E0,8.236711624E0
5.788443708E0,4.717889538E-1,5.969487948E0,4.100253557E0,7.257372142E0
5.798477708E0,1.654256830E0,1.400686476E0,5.057484859E0,5.502421409E0
5.808511708E0,3.559637539E0,-9.285849742E0,7.444174447E0,1.242230889E1
5.818545708E0,6.349488553E0,-2.542614715E1,1.168629783E1,2.869450332E1
5.828580708E0,9.526279063E0,-4.236090692E1,1.607644932E1,4.629955346E1
5.838614708E0,1.026604306E1,-5.597130239E1,1.806235554E1,5.970282254E1
5.848648708E0,8.002771237E0,-6.027153189E1,1.582878115E1,6.282716146E1
5.858682708E0,5.057248047E0,-6.058425502E1,1.127881940E1,6.183234979E1
5.868717708E0,2.765741774E0,-5.140702666E1,6.917857795E0,5.194408989E1
5.878751708E0,2.519558500E0,-3.048410329E1,1.154175232E1,3.269313040E1
5.888785708E0,-9.650583851E-1,-1.543627978E1,-9.620976826E1,9.744500797E1
5.898819708E0,-4.991653982E0,-5.871629532E0,-7.252947106E1,7.293775988E1
5.908854708E0,-2.890797930E0,-3.228919607E0,1.858204672E1,1.908075194E1
5.918888708E0,-8.497181095E-1,-1.850004653E0,7.907784681E-1,2.184002900E0
5.928922708E0,8.501354545E-2,9.572260398E-1,-2.773422092E-1,1.000213825E0
5.938956708E0,4.551323560E-1,3.735355725E0,-9.941712333E-1,3.892095104E0
5.948990708E0,1.095272662E0,6.413933056E0,-9.278907050E-1,6.572605314E0
5.959025708E0,1.945087543E0,8.411743627E0,-7.594688210E-1,8.667040399E0
5.969059708E0,2.702363219E0,9.685467755E0,-6.610063872E-1,1.007710187E1
5.979093708E0,3.571632518E0,1.051470409E1,-3.439719625E-1,1.111008000E1
5.989127708E0,4.291593749E0,1.101343183E1,5.005260453E-2,1.182015071E1
5.999162708E0,4.889859512E0,1.129567926E1,6.518838537E-1,1.232590965E1
6.009196708E0,6.513464361E0,1.242072799E1,1.359816339E0,1.409073463E1
6.019230708E0,8.552891904E0,1.504468473E1,1.776234426E0,1.739682463E1
6.029264708E0,9.894146111E0,1.783394459E1,1.820939314E0,2.047582787E1
6.039299708E0,1.119032413E1,2.137180242E1,1.722767340E0,2.418564079E1
6.049333708E0,6.790122446E0,1.409751298E1,1.309452809E0,1.570223875E1
6.059367708E0,3.537380990E0,1.093315072E1,6.956636383E-1,1.151220209E1
6.069401708E0,2.945113593E0,1.117449689E1,3.406967177E-1,1.156110501E1
6.079436292E0,2.598940885E0,1.111371391E1,4.416764144E-1,1.142209301E1
6.089471292E0,2.128324078E0,1.109383455E1,3.952770041E-1,1.130306031E1
6.099505292E0,1.825340659E0,1.125486102E1,4.588444608E-1,1.141114821E1
6.109539292E0,1.685348376E0,1.135295859E1,4.171169758E-1,1.148494904E1
6.119573292E0,1.608118352E0,1.139271147E1,3.982877354E-1,1.151253892E1
6.129608292E0,1.643269327E0,1.155360462E1,7.143718779E-1,1.169172533E1
6.139642292E0,1.858910840E0,1.157525102E1,1.239017395E0,1.178885701E1
6.149676292E0,1.819758907E0,1.125442131E1,1.879988006E0,1.155456085E1
6.159710292E0,1.616277264E0,1.049150351E1,2.242911817E0,1.084963831E1
6.169744292E0,1.648761617E0,9.599397326E0,1.935448846E0,9.930398085E0
6.179779292E0,1.730383485E0,8.466028007E0,1.177305224E0,8.720888992E0
6.189813292E0,1.215116317E0,6.547689283E0,-1.480968162E0,6.822170425E0
6.199847292E0,5.133777502E-1,5.851641995E0,-4.187061321E0,7.213650480E0
6.209881292E0,4.530990964E-1,6.554440479E0,-5.384928351E0,8.494906834E0
6.219916292E0,3.413221140E-1,7.042609895E0,-4.774697138E0,8.515432325E0
6.229950292E0,8.006403820E-1,7.121961290E0,-3.569988573E0,8.006758148E0
6.239984292E0,2.096682017E0,5.557788418E0,-5.683582492E0,8.221204141E0
6.250018292E0,3.724722856E0,-1.386715724E0,-6.795934578E0,7.872818278E0
6.260052292E0,5.256606526E0,-1.878222731E1,-4.843701884E0,2.009640323E1
6.270087292E0,5.274341716E0,-4.949760202E1,3.437220817E0,4.989635030E1
6.280121292E0,1.109663756E-1,-8.525754041E1,9.129185293E0,8.574498547E1
6.290155292E0,-7.470063579E0,-1.026665538E2,2.060421737E1,1.049797928E2
6.300189292E0,-5.504240786E0,-7.677817022E1,2.147670147E1,7.991515999E1
6.310224292E0,-4.598409433E0,-3.797481222E1,-1.784484994E0,3.829381307E1
6.320258292E0,-1.378108330E0,-1.593671256E1,-3.064012338E0,1.628699363E1
6.330292292E0,-7.965853380E-1,-1.980129175E0,-1.278431488E1,1.296125637E1
6.340326292E0,-3.610348687E-1,5.267028603E0,-3.347931144E1,3.389301154E1
6.350361292E0,2.148119827E0,8.432469082E0,-8.836894677E0,1.240208294E1
6.360395292E0,2.510023153E0,1.070265465E1,-7.748613238E-1,1.102031955E1
6.370429292E0,2.421547910E0,1.290043591E1,3.688104960E-1,1.313092388E1
6.380463292E0,2.418314985E0,1.376422519E1,2.263003435E0,1.415709458E1
6.390497292E0,2.246235229E0,1.384142832E1,3.318997718E0,1.440994297E1
6.400532292E0,1.836224082E0,1.368091991E1,4.281598518E0,1.445238300E1
6.410566292E0,1.826053142E0,1.349950888E1,5.195057564E0,1.457943185E1
6.420600292E0,1.888990818E0,1.327931326E1,5.588481622E0,1.453064258E1
6.430634292E0,1.762559105E0,1.285976735E1,5.153990815E0,1.396581012E1
6.440669292E0,1.659178139E0,1.234577137E1,4.225159439E0,1.315381751E1
6.450703292E0,1.706717464E0,1.226324377E1,3.312854633E0,1.281698241E1
6.460737292E0,1.482255427E0,1.305765584E1,2.449787477E0,1.336790619E1
6.470771292E0,-1.643019066E0,1.746962797E1,1.589435767E0,1.761856178E1
6.480805292E0,-1.224899732E0,1.778083316E1,1.661997374E0,1.790029727E1
6.490840292E0,2.562157805E0,1.640129723E1,1.953611467E0,1.671477793E1
6.500874292E0,6.588191192E0,1.551074992E1,2.127946787E0,1.698575237E1
6.510908292E0,9.471829791E0,1.502242906E1,2.326408303E0,1.791092153E1
6.520942292E0,9.964670548E0,1.384745095E1,2.494516922E0,1.724149563E1
6.530977292E0,9.628420565E0,1.180885547E1,2.226002839E0,1.539839728E1
6.541011292E0,8.274727576E0,9.498818784E0,1.317618592E0,1.266628570E1
6.551045292E0,6.491415095E0,8.088813601E0,1.151780885E-2,1.037147569E1
6.561079292E0,5.216018663E0,7.806425829E0,-8.455817161E-1,9.426671913E0
6.571114292E0,4.441301765E0,8.067256671E0,-1.268287972E0,9.295931688E0
6.581148292E0,3.880072266E0,8.330063286E0,-1.397242466E0,9.295009503E0
6.591182292E0,3.565261099E0,8.390995951E0,-1.587612751E0,9.254210610E0
6.601216292E0,3.443738416E0,8.259038327E0,-1.984781805E0,9.165719131E0
6.611250292E0,3.399787820E0,7.643679106E0,-3.723424482E0,9.156870501E0
6.621285292E0,3.361829157E0,5.888074826E0,-7.908749764E0,1.041727619E1
6.631319292E0,2.635166432E0,6.041233869E0,-3.824660835E0,7.620278163E0
6.641353292E0,1.906775124E0,7.776119125E0,8.997870862E-1,8.056887540E0
6.651387292E0,1.587940342E0,8.006404697E0,1.513366415E0,8.301466654E0
6.661422292E0,1.432573390E0,7.598808158E0,2.139816781E0,8.023276625E0
6.671456292E0,1.365739569E0,6.905675122E0,2.519286312E0,7.476656805E0
6.681490292E0,2.978570922E-1,1.254292662E0,1.821641418E0,2.231668968E0
6.691524292E0,-3.505794039E0,-1.438456917E1,2.404874429E0,1.499966143E1
6.701559292E0,-9.689928596E0,-3.678966581E1,6.049925171E0,3.852240674E1
6.711593292E0,-2.019306456E1,-6.644060636E1,9.767545706E0,7.012502391E1
6.721627292E0,-3.448523836E1,-9.565193453E1,9.301354803E0,1.021030824E2
6.731661292E0,-3.256530744E1,-9.399442197E1,8.849066241E0,9.986869671E1
6.741695292E0,-1.221487209E1,-4.726226761E1,3.262213068E0,4.892409502E1
6.751730292E0,-5.314330239E0,-2.034321170E1,-9.694157302E-2,2.102612103E1
6.761764292E0,-1.747608359E0,-7.777804293E0,-2.244338100E0,8.281631971E0
6.771798292E0,1.358725833E0,6.865899437E0,-2.127944682E1,2.240092784E1
6.781832292E0,3.817370234E0,2.097680195E1,-4.935299804E1,5.376166804E1
6.791867292E0,5.099730408E0,1.741339413E1,-8.114083512E0,1.987641559E1
6.801901292E0,5.054274738E0,1.672996689E1,-1.702327960E0,1.755948193E1
6.811935292E0,5.078368775E0,1.603633040E1,-1.933716170E0,1.693201053E1
6.821969292E0,5.033673828E0,1.542054726E1,-1.109075160E0,1.625918810E1
6.832003292E0,5.074008506E0,1.430580483E1,1.585080030E-1,1.517981354E1
6.842038292E0,5.051749910E0,1.151741738E1,2.339484431E0,1.279235192E1
6.852072292E0,4.947770044E0,7.560854466E0,4.474164287E0,1.008291102E1
6.862106292E0,4.651325858E0,5.285396461E0,5.874745513E0,9.169671905E0
6.872140292E0,4.439111106E0,5.197529767E0,5.061777885E0,8.505387613E0
6.882175292E0,4.512830170E0,6.058511807E0,3.631461228E0,8.382047012E0
6.892209292E0,4.631307915E0,7.266213269E0,2.504353108E0,8.973218641E0
6.902243292E0,4.608245327E0,8.169388232E0,1.464191331E0,9.493086186E0
6.912277292E0,4.706767987E0,8.791322063E0,7.509338596E-1,1.000024550E1
6.922311292E0,4.932212942E0,9.338201033E0,3.714841354E-1,1.056724768E1
6.932346292E0,4.611897206E0,9.660353379E0,-4.952942491E-2,1.070488096E1
6.942380292E0,4.396843631E0,9.941952946E0,-3.272400087E-1,1.087574128E1
6.952414292E0,4.459747977E0,1.021373153E1,-3.197322569E-1,1.114952432E1
6.962448292E0,4.480449167E0,1.045641437E1,-1.624229331E-1,1.137705618E1
6.972483292E0,4.724468679E0,1.085333974E1,4.594296940E-1,1.184595557E1
6.982517292E0,5.203238404E0,1.087972238E1,1.348263849E0,1.213506754E1
6.992551292E0,6.069664201E0,1.038958186E1,6.752645302E-1,1.205156492E1
7.002585292E0,6.853341957E0,9.863345318E0,-3.402822963E-1,1.201539300E1
7.012620292E0,7.219146692E0,9.203401077E0,-1.103287148E0,1.174886858E1
7.022654292E0,7.413504632E0,8.597751743E0,-1.758709152E0,1.148801305E1
7.032688292E0,7.606023037E0,7.802345057E0,-2.538862790E0,1.118811866E1
7.042722292E0,7.518431747E0,7.123680956E0,-2.151826231E0,1.057846881E1
7.052756292E0,7.219641366E0,6.141026545E0,-1.045433846E0,9.535636340E0
7.062791292E0,6.113848101E0,4.963686749E0,-2.144145328E0,8.161781910E0
7.072825542E0,5.245572245E0,4.214587673E0,-3.542487071E0,7.604471848E0
7.082859542E0,5.039147991E0,2.830210251E0,-2.733151733E0,6.393216791E0
7.092893542E0,4.286992283E0,-7.073435247E-1,-1.492829386E0,4.594254811E0
7.102928542E0,2.194442785E0,-8.101718990E0,-2.498293054E-1,8.397371280E0
7.112962542E0,-2.313157050E-1,-1.950413742E1,2.326197803E0,1.964372876E1
7.122996542E0,-5.949926673E0,-3.525000739E1,8.650820487E0,3.678044784E1
7.133030542E0,-1.490705531E1,-5.367149892E1,1.408969525E1,5.745754612E1
7.143064542E0,-2.433610219E1,-6.995671957E1,1.527726007E1,7.562792578E1
7.153099542E0,-2.501300862E1,-6.779826435E1,1.346528162E1,7.350897263E1
7.163133542E0,-1.334694683E1,-3.649455450E1,8.079107223E0,3.968961415E1
7.173167542E0,-7.409679968E0,-1.842758901E1,-3.925335270E-1,1.986538387E1
7.183201542E0,-4.923118182E0,-7.932235106E0,-3.265885704E0,9.890574091E0
7.193236542E0,-2.833729690E0,-2.637717572E0,-3.580291075E0,5.273145373E0
7.203270542E0,-1.644126383E0,2.287443042E0,-6.946619664E0,7.496070437E0
7.213304542E0,-1.863659071E0,8.801744725E0,-1.976573133E1,2.171699957E1
7.223338542E0,-2.391185220E0,9.679590719E0,-1.920684627E1,2.164059118E1
7.233372542E0,-1.930762741E0,9.768498802E0,-1.066495414E1,1.459084167E1
7.243407542E0,-1.972868688E0,1.060630072E1,-8.018237708E0,1.344165027E1
7.253441542E0,-2.089103879E0,1.151686774E1,-4.914661354E0,1.269474276E1
7.263475542E0,-2.040014750E0,1.218624763E1,-2.566499071E0,1.261955661E1
7.273509542E0,-1.826706569E0,1.194833846E1,-1.093229352E0,1.213650688E1
7.283544542E0,-1.276158178E0,1.153975140E1,-6.862206043E-1,1.163036288E1
7.293578542E0,-7.922922391E-1,1.114520351E1,-4.603555275E-1,1.118280892E1
7.303612542E0,-1.790000819E-1,1.095220446E1,-3.491588813E-1,1.095923061E1
7.313646542E0,3.458171976E-1,1.090336735E1,-1.569282315E-1,1.090997871E1
7.323681542E0,8.363678198E-1,1.093601703E1,3.051188225E-1,1.097219564E1
7.333715542E0,1.374927445E0,1.097002560E1,8.904501061E-1,1.109165401E1
7.343749542E0,1.894121603E0,1.122500865E1,1.568234348E0,1.149120858E1
7.353783542E0,2.974503745E0,1.255247746E1,2.774410272E0,1.319506405E1
7.363817542E0,3.723480615E0,1.365404611E1,4.358468354E0,1.480856271E1
7.373852542E0,3.575863563E0,1.305690740E1,6.030923474E0,1.482031271E1
7.383886542E0,3.869487929E0,1.297328753E1,6.779209203E0,1.514056814E1
7.393920542E0,4.619509111E0,1.326548576E1,6.325295699E0,1.540526996E1
7.403954542E0,5.082565906E0,1.319567469E1,5.347180481E0,1.511789158E1
7.413989542E0,4.820016568E0,1.249267214E1,4.213690710E0,1.403761398E1
7.424023542E0,3.502840318E0,1.025351599E1,2.968364754E0,1.123457474E1
7.434057542E0,2.304158916E0,8.191325816E0,2.266352720E0,8.805868588E0
7.444091542E0,2.037879493E0,7.313724235E0,1.980572979E0,7.846412196E0
7.454125542E0,2.293817531E0,6.796258514E0,1.726474037E0,7.377766685E0
7.464160542E0,2.774647084E0,6.590249997E0,7.406247798E-1,7.188781992E0
7.474194542E0,3.299361014E0,6.623124797E0,-2.179397607E0,7.713711111E0
7.484228542E0,3.502409670E0,6.994928775E0,-4.166764466E0,8.863285406E0
7.494262542E0,3.257766845E0,7.304098549E0,-2.842606933E0,8.487833328E0
7.504297542E0,2.957672535E0,7.269104717E0,-1.804027558E0,8.052467054E0
7.514331542E0,2.605080754E0,5.187660837E0,-1.414952513E0,5.974977933E0
7.524365542E0,2.085858382E0,-5.914850396E-1,-2.199356493E0,3.088337534E0
7.534399542E0,6.391363388E-1,-1.203648874E1,-1.584373394E0,1.215712941E1
7.544434542E0,-5.418984874E0,-3.058018240E1,3.626536118E0,3.126763050E1
7.554468542E0,-1.315950147E1,-5.247370849E1,1.294911748E1,5.562681193E1
7.564502542E0,-2.255306160E1,-7.255397791E1,1.735957870E1,7.793635398E1
7.574536542E0,-2.449026988E1,-7.555774405E1,1.878752138E1,8.161934185E1
7.584570542E0,-1.197204073E1,-4.510926667E1,1.353275381E1,4.859332387E1
7.594605542E0,-8.587459474E0,-2.267279855E1,2.381462762E0,2.436127294E1
7.604639542E0,-5.171130758E0,-1.118104343E1,-4.615709006E0,1.315526872E1
7.614673542E0,-6.801920373E0,3.148187100E0,-4.868194350E1,4.925554614E1
7.624707542E0,-3.188175039E0,6.466980751E0,-2.054670884E1,2.177506703E1
7.634742542E0,-1.035339578E0,5.727687455E0,1.583192987E0,6.031984056E0
7.644776542E0,-1.413845927E0,6.734134187E0,-7.196666779E-1,6.918485649E0
7.654810542E0,-1.583541481E0,6.648329220E0,1.810516506E0,7.070067543E0
7.664844542E0,-6.466266221E-1,7.048938337E0,2.430369897E0,7.484140265E0
7.674878542E0,8.122317562E-1,7.682572446E0,1.983451855E0,7.975946406E0
7.684913542E0,2.472650675E0,8.476717887E0,1.171939745E0,8.907423323E0
7.694947542E0,4.177298225E0,9.399619601E0,1.403239371E0,1.038131735E1
7.704981542E0,5.802787923E0,1.020002800E1,1.914007106E0,1.189017838E1
7.715015542E0,7.134977192E0,1.093447804E1,2.291241394E0,1.325596080E1
7.725050542E0,8.028139383E0,1.212439695E1,1.881139761E0,1.466256152E1
7.735084542E0,8.655662566E0,1.455101133E1,7.438609944E-1,1.694714591E1
7.745118542E0,8.478627588E0,1.378128854E1,-3.787263505E-1,1.618500767E1
7.755152542E0,8.738283724E0,1.363244649E1,-8.792189205E-1,1.621648007E1
7.765186542E0,9.156951381E0,1.398933013E1,-7.015028872E-1,1.673449200E1
7.775221542E0,1.003683338E1,1.420784526E1,-2.938331115E-1,1.739790875E1
7.785255542E0,1.148404732E1,1.383674587E1,-1.163616380E-1,1.798200264E1
7.795289542E0,1.182854070E1,1.205816554E1,-5.201916933E-2,1.689131248E1
7.805323542E0,1.118117558E1,1.031266174E1,-2.194050729E-2,1.521085668E1
7.815358542E0,1.035938918E1,8.999775301E0,-2.220522536E-1,1.372451117E1
7.825392542E0,9.439023403E0,8.128190505E0,-7.484139289E-1,1.247889286E1
7.835426542E0,8.187973607E0,7.255702314E0,-1.299858405E0,1.101715752E1
7.845460542E0,6.749229943E0,6.443852089E0,-1.756219992E0,9.495243190E0
7.855495542E0,5.611804996E0,6.034352866E0,-2.013189332E0,8.482847465E0
7.865529542E0,4.734395497E0,5.879421532E0,-2.192278146E0,7.860545893E0
7.875563542E0,3.958356251E0,5.454143597E0,-2.339597867E0,7.133721663E0
7.885597542E0,2.182026515E0,3.939053423E0,-2.777205825E0,5.290581610E0
7.895631542E0,-7.180933383E-1,1.392105687E0,-3.185474795E0,3.549769845E0
7.905666542E0,-1.688297566E0,-1.275950164E0,-1.346948225E0,2.508518888E0
7.915700542E0,-3.613113542E0,-5.098329999E0,7.451486975E-2,6.249248812E0
7.925734542E0,-6.489774367E0,-1.052983786E1,1.492625172E0,1.245883568E1
7.935768542E0,-9.583316313E0,-1.699150816E1,2.576153116E0,1.967708988E1
7.945803542E0,-1.228053749E1,-2.391725210E1,2.623039307E0,2.701345747E1
7.955837542E0,-1.327622710E1,-2.935124034E1,2.066089677E0,3.228036930E1
7.965871542E0,-1.240211748E1,-3.115291951E1,2.380940021E0,3.361526123E1
7.975905542E0,-1.290310691E1,-3.187687498E1,3.590229587E0,3.457622124E1
7.985939542E0,-1.433258625E1,-2.884730391E1,3.444685373E0,3.239530566E1
7.995974542E0,-1.230652252E1,-2.104415954E1,2.076757922E0,2.446671352E1
8.006008542E0,-9.996020980E0,-1.511961095E1,1.654774747E0,1.820058653E1
8.016042542E0,-8.604145088E0,-1.117793271E1,2.326633859E0,1.429652816E1
8.026076542E0,-6.825960031E0,-7.539386414E0,2.780288478E0,1.054353270E1
8.036111542E0,-5.197110522E0,-4.037162685E0,2.901124697E0,7.192020914E0
8.046145542E0,-4.169600950E0,-7.325415158E-1,2.908675792E0,5.136397961E0
8.056179542E0,-3.428514021E0,2.208084632E0,2.216596277E0,4.641513243E0
8.066213542E0,-2.175632000E0,4.917620630E0,1.404743713E0,5.557847799E0
8.076247167E0,-8.579145902E-1,7.502426164E0,1.005521556E0,7.617971474E0
8.086282167E0,3.092577741E-1,9.348117326E0,4.901620017E-1,9.366066234E0
8.096316167E0,1.381551171E0,1.061649944E1,-3.584999545E-1,1.071201504E1
8.106350167E0,2.936111220E0,1.262400528E1,-1.216285321E0,1.301789569E1
8.116384167E0,6.461322985E0,1.812106159E1,-3.304213618E0,1.952023042E1
8.126419167E0,8.445237647E0,2.081554042E1,-3.866102391E0,2.279376032E1
8.136453167E0,8.731217948E0,2.015373384E1,-3.165586660E0,2.219072089E1
8.146487167E0,7.612666644E0,1.734454667E1,-2.887835146E0,1.916052151E1
8.156521167E0,4.863618670E0,1.163690172E1,-1.744990414E0,1.273252763E1
8.166555167E0,4.102350368E0,9.557940567E0,-8.650047778E-1,1.043703692E1
8.176590167E0,3.531458638E0,8.015836841E0,-2.710352562E-1,8.763463954E0
8.186624167E0,3.325465908E0,7.099266492E0,1.506406474E-1,7.840982134E0
8.196658167E0,3.419659290E0,6.643007669E0,3.876259589E-1,7.481568982E0
8.206692167E0,3.661449551E0,6.315457174E0,4.035315549E-1,7.311227656E0
8.216727167E0,4.065393919E0,6.194689366E0,1.926401742E-1,7.412065454E0
8.226761167E0,4.649713488E0,6.291678302E0,-2.940791331E-1,7.828890976E0
8.236795167E0,5.334841686E0,6.366213929E0,-8.284428692E-1,8.347187143E0
8.246829167E0,5.955051173E0,6.134194658E0,-1.115313701E0,8.621769147E0
8.256864167E0,6.268474796E0,5.601420926E0,-1.040356489E0,8.470657252E0
8.266898167E0,6.124168437E0,4.994555955E0,-1.074621758E0,7.975326962E0
8.276932167E0,5.343342953E0,4.416323045E0,-1.155618559E0,7.027850127E0
8.286966167E0,4.831786428E0,3.758168052E0,-9.325605838E-1,6.191902490E0
8.297000167E0,4.463938676E0,2.974533566E0,-6.891407038E-1,5.408281922E0
8.307035167E0,4.007116182E0,2.119071883E0,-3.162368645E-1,4.543946688E0
8.317069167E0,3.017128193E0,9.404819530E-1,1.445127654E-1,3.163613880E0
8.327103167E0,1.401044911E0,-7.165780324E-1,6.355005401E-1,1.697136369E0
8.337137167E0,-3.073553824E-1,-3.650938888E0,1.395125189E0,3.920484204E0
8.347172167E0,-2.815923749E0,-8.150581248E0,2.317762610E0,8.929357466E0
8.357206167E0,-5.855684175E0,-1.303915642E1,3.156552127E0,1.463804832E1
8.367240167E0,-8.492460346E0,-1.744874523E1,3.385045527E0,1.969870874E1
8.377274167E0,-1.101663142E1,-2.127419134E1,3.273319854E0,2.417999189E1
8.387308167E0,-1.387183501E1,-2.484983856E1,2.817980214E0,2.859865898E1
8.397343167E0,-1.690002731E1,-2.861745688E1,3.152905803E0,3.338428637E1
8.407377167E0,-1.786029682E1,-2.964017934E1,4.528165662E0,3.490035412E1
8.417411167E0,-1.708587404E1,-2.717039731E1,5.571556272E0,3.257606208E1
8.427445167E0,-1.141968351E1,-1.859285120E1,4.034133242E0,2.218958130E1
8.437480167E0,-6.890046684E0,-1.067179773E1,1.972012070E0,1.285491508E1
8.447514167E0,-5.130937582E0,-5.694123852E0,8.494196092E-1,7.711749516E0
8.457548167E0,-3.943304349E0,-2.097462913E0,2.156217782E-1,4.471631985E0
8.467582167E0,-2.701919708E0,8.937814111E-1,-8.931578055E-2,2.847313230E0
8.477616167E0,-1.398651938E0,3.530162895E0,-1.750535037E-1,3.801173639E0
8.487651167E0,2.754740238E-2,5.794939790E0,-5.123675340E-1,5.817611754E0
8.497685167E0,1.348788929E0,7.845605097E0,-1.132556555E0,8.040860356E0
8.507719167E0,2.377696278E0,9.718195206E0,-1.825078558E0,1.016993950E1
8.517753167E0,3.301442330E0,1.168310525E1,-2.457717471E0,1.238688197E1
8.527788167E0,4.963977356E0,1.455381331E1,-3.602820981E0,1.579350728E1
8.537822167E0,7.656959302E0,1.861307906E1,-6.377029524E0,2.111260863E1
8.547856167E0,1.058102438E1,2.047687905E1,-1.158084446E1,2.579489506E1
8.557890167E0,1.024644319E1,1.785873562E1,-9.830652366E0,2.281591028E1
8.567925167E0,5.749117500E0,1.148204874E1,-5.301603774E0,1.389232874E1
8.577959167E0,3.550958810E0,9.360283628E0,-3.189937389E0,1.050713656E1
8.587993167E0,2.429563420E0,8.665087109E0,-1.709134996E0,9.160112196E0
8.598027167E0,1.800874009E0,8.077444859E0,-1.042982474E0,8.341227433E0
8.608061167E0,1.788576729E0,8.046700784E0,-8.603452778E-1,8.287858241E0
8.618096167E0,2.256868244E0,8.562224645E0,-9.275677925E-1,8.903118956E0
8.628130167E0,2.685744263E0,8.971825610E0,-1.213389634E0,9.443473483E0
8.638164167E0,2.820065916E0,8.925074782E0,-1.671838384E0,9.508142574E0
8.648198167E0,2.701827614E0,8.607758667E0,-2.036760774E0,9.248879726E0
8.658233167E0,2.419223788E0,8.047010686E0,-2.242825863E0,8.696970310E0
8.668267167E0,2.101571459E0,7.345370536E0,-2.221876459E0,7.956620256E0
8.678301167E0,1.736066101E0,6.519253104E0,-2.026775484E0,7.044317242E0
8.688335167E0,1.436165627E0,5.697914602E0,-1.893928206E0,6.173796771E0
8.698369167E0,1.056726939E0,4.731756940E0,-1.580487480E0,5.099425090E0
8.708404167E0,5.659560961E-1,3.433181561E0,-1.022387411E0,3.626612462E0
8.718438167E0,-1.443148372E-1,1.981971048E0,-3.239298999E-1,2.013446445E0
8.728472167E0,-9.488051721E-1,5.915955520E-1,5.015149556E-1,1.225452489E0
8.738506167E0,-2.234494458E0,-1.477214835E0,1.540999771E0,3.090276597E0
8.748541167E0,-4.467612482E0,-5.231277557E0,3.166518706E0,7.573154355E0
8.758575167E0,-7.368675783E0,-1.021423439E1,5.129555300E0,1.359927588E1
8.768609167E0,-1.005354589E1,-1.532509614E1,6.165588359E0,1.933770505E1
8.778643167E0,-1.175744207E1,-1.949238101E1,6.222305181E0,2.359888648E1
8.788677167E0,-1.234621693E1,-2.244062433E1,5.570730060E0,2.621151895E1
8.798712167E0,-1.353646094E1,-2.569281994E1,5.116304340E0,2.948785074E1
8.808746167E0,-1.595934129E1,-2.901937577E1,5.405296542E0,3.355654892E1
8.818780167E0,-1.659144752E1,-2.990072893E1,4.859965914E0,3.453909364E1
8.828814167E0,-1.305480474E1,-2.543064015E1,3.823183243E0,2.884028632E1
8.838849167E0,-7.551825196E0,-1.781617607E1,2.249893393E0,1.948097056E1
8.848883167E0,-3.959827995E0,-1.107593388E1,1.207761250E0,1.182434930E1
8.858917167E0,-1.577695727E0,-5.543222419E0,5.542463158E-1,5.789959203E0
8.868951167E0,5.003725559E-2,-1.024864292E0,-3.019812065E-1,1.069599548E0
8.878986167E0,1.387761206E0,2.587177749E0,-9.313386619E-1,3.080058696E0
8.889020167E0,2.518090264E0,5.588911393E0,-1.400331258E0,6.287896053E0
8.899054167E0,3.380870031E0,7.922093695E0,-1.674805408E0,8.774669443E0
8.909088167E0,4.077996423E0,9.624987080E0,-1.963568691E0,1.063607226E1
8.919122167E0,5.253906282E0,1.139497902E1,-2.468908457E0,1.278845522E1
8.929157167E0,7.101705950E0,1.387209346E1,-3.447844623E0,1.596110387E1
8.939191167E0,9.886821889E0,1.695695112E1,-5.989351525E0,2.052217752E1
8.949225167E0,1.489856749E1,2.022391680E1,-1.253541762E1,2.807331151E1
8.959259167E0,1.420364228E1,1.777358729E1,-1.070125717E1,2.514280740E1
8.969294167E0,8.717629604E0,1.141556823E1,-6.451040656E0,1.574573560E1
8.979328167E0,5.630314357E0,9.207544999E0,-4.354234970E0,1.163781280E1
8.989362167E0,3.861726919E0,8.143015535E0,-3.192383572E0,9.561011959E0
8.999396167E0,2.772076063E0,7.231545712E0,-2.488136441E0,8.134524082E0
9.009430167E0,2.360854543E0,6.651837550E0,-2.031324179E0,7.344852271E0
9.019465167E0,2.305842184E0,6.167492797E0,-1.767099614E0,6.817442088E0
9.029499167E0,2.386924354E0,5.670644358E0,-1.606127813E0,6.358715425E0
9.039533167E0,2.650727043E0,5.306121917E0,-1.671799647E0,6.162483080E0
9.049567167E0,3.067065754E0,5.211045606E0,-1.940819221E0,6.350485643E0
9.059602167E0,3.515779621E0,5.309030907E0,-2.216668344E0,6.742413074E0
9.069636167E0,3.782053928E0,5.236014971E0,-2.295381076E0,6.854820127E0
9.079670167E0,3.824816955E0,4.851986219E0,-2.166899183E0,6.547247291E0
9.089704167E0,3.625356443E0,4.249707220E0,-1.886143954E0,5.895825625E0
9.099738167E0,3.163146909E0,3.736487746E0,-1.495417363E0,5.118897551E0
9.109773167E0,2.476380906E0,3.106792907E0,-9.689112617E-1,4.089427049E0
9.119807167E0,1.785010805E0,2.314026824E0,-4.800471957E-1,2.961659843E0
9.129841167E0,1.134330893E0,1.290992711E0,1.854583316E-1,1.728514838E0
9.139875167E0,2.998256305E-1,4.955456793E-2,1.081226042E0,1.123121016E0
9.149910167E0,-9.533019733E-1,-1.865326697E0,2.091402712E0,2.960100276E0
9.159944167E0,-3.118799872E0,-5.048964881E0,2.939595283E0,6.622701823E0
9.169978167E0,-5.336299982E0,-9.273886923E0,3.640233806E0,1.130187499E1
9.180012167E0,-7.472056310E0,-1.396145178E1,4.054823030E0,1.634611119E1
9.190047167E0,-9.620696393E0,-1.834118821E1,4.439002640E0,2.118163659E1
9.200081167E0,-1.266678351E1,-2.268214942E1,5.007209914E0,2.645750286E1
9.210115167E0,-1.577859332E1,-2.684972197E1,4.838038856E0,3.151631636E1
9.220149167E0,-1.720036954E1,-2.930719210E1,4.559347109E0,3.428632187E1
9.230183167E0,-1.533574509E1,-2.675850774E1,4.542390184E0,3.117428624E1
9.240218167E0,-1.038308561E1,-1.978660355E1,3.920595517E0,2.268676301E1
9.250252167E0,-6.126842954E0,-1.215716592E1,2.389168223E0,1.382183101E1
9.260286167E0,-3.656334406E0,-5.954147778E0,8.455010245E-1,7.038148126E0
9.270320167E0,-2.299522513E0,-1.745133086E0,-1.438676713E-1,2.890327176E0
9.280355167E0,-1.605872290E0,1.105772215E0,-5.034300649E-1,2.013703015E0
9.290389167E0,-1.083185590E0,3.274667053E0,-6.105617268E-1,3.502787597E0
9.300423167E0,-3.625460815E-1,5.128772943E0,-8.138973355E-1,5.205591267E0
9.310457167E0,4.196102285E-1,6.721987181E0,-1.133633028E0,6.829810264E0
9.320491167E0,1.097887537E0,8.205309432E0,-1.500136651E0,8.413255606E0
9.330526167E0,1.821419078E0,9.960823081E0,-2.585965621E0,1.045097039E1
9.340560167E0,4.037455923E0,1.325874042E1,-9.044132279E0,1.654966998E1
9.350594167E0,5.710655100E0,1.499549210E1,-9.966396646E0,1.888929398E1
9.360628167E0,7.115752716E0,1.634829105E1,-8.703326730E0,1.984057593E1
9.370663167E0,8.520499499E0,1.795385929E1,-7.953258185E0,2.140547338E1
9.380697167E0,7.312929599E0,1.612001108E1,-4.321800465E0,1.822118700E1
9.390731167E0,4.275142023E0,1.169605917E1,-2.518139089E0,1.270494643E1
9.400765167E0,2.724634679E0,9.426344885E0,-1.732730996E0,9.964033758E0
9.410800167E0,2.139403237E0,8.370064673E0,-9.849020809E-1,8.695117075E0
9.420834167E0,1.868350292E0,7.646133183E0,-4.403877246E-1,7.883401982E0
9.430868167E0,2.034562367E0,7.352790068E0,-1.726934212E-1,7.631041136E0
9.440902167E0,2.486446888E0,7.357230443E0,-2.946394426E-1,7.771619543E0
9.450936167E0,2.985057970E0,7.535864051E0,-6.104376197E-1,8.128496304E0
9.460971167E0,3.443001667E0,7.860221967E0,-1.063284591E0,8.646844741E0
9.471005167E0,3.774740523E0,8.232762110E0,-1.686107783E0,9.212491380E0
9.481039167E0,3.918141733E0,8.394079188E0,-2.114913928E0,9.501855660E0
9.491073167E0,3.821006325E0,7.996220602E0,-2.041821978E0,9.094430726E0
9.501108167E0,3.397611194E0,7.161445198E0,-1.718125967E0,8.110611320E0
9.511142167E0,2.881222237E0,6.280017784E0,-1.443681053E0,7.058631591E0
9.521176167E0,2.427004970E0,5.517031571E0,-1.196048620E0,6.144796398E0
9.531210167E0,1.643122855E0,4.421646935E0,-8.544635636E-1,4.793842124E0
9.541244167E0,3.407546782E-1,2.518319768E0,-4.161972819E-1,2.575124925E0
9.551279167E0,-1.305420423E0,-2.121644658E-1,4.537610377E-1,1.398225776E0
9.561313167E0,-3.134886439E0,-3.525917816E0,1.340350227E0,4.904706736E0
9.571347167E0,-5.465319965E0,-8.155308137E0,2.677955772E0,1.017596287E1
9.581381167E0,-7.846769863E0,-1.459445380E1,3.740688971E0,1.698713140E1
9.591416167E0,-9.842419302E0,-2.157375823E1,4.124024827E0,2.406881474E1
9.601450167E0,-1.146667641E1,-2.769548663E1,5.228621752E0,3.042799916E1
9.611484167E0,-1.293256519E1,-3.216671912E1,5.808540999E0,3.515235710E1
9.621518167E0,-1.422318017E1,-3.336556439E1,5.356934221E0,3.666410350E1
9.631552167E0,-1.436234039E1,-2.936953277E1,5.221186432E0,3.310750768E1
9.641587167E0,-1.192605823E1,-2.266734426E1,4.657247626E0,2.603323484E1
9.651621167E0,-8.058729091E0,-1.623873996E1,3.553895574E0,1.847349355E1
9.661655167E0,-4.515904928E0,-1.032814517E1,1.999509771E0,1.144823215E1
9.671689167E0,-3.632114947E0,-3.630292954E0,1.690949716E0,5.406532795E0
9.681724167E0,-3.816082092E0,4.003652877E-1,-3.877721393E-1,3.856571292E0
9.691758167E0,-2.709819881E0,1.442833791E0,-2.961149874E0,4.265360678E0
9.701792167E0,-1.215594911E0,2.708585241E0,-4.799137330E0,5.643210444E0
9.711826167E0,8.010302451E-1,3.941373013E0,-5.833466510E0,7.085577055E0
9.721861167E0,2.820657654E0,5.288395498E0,-6.202264434E0,8.625040328E0
9.731895167E0,4.489248349E0,6.835016783E0,-6.641373957E0,1.053464063E1
9.741929167E0,5.731976388E0,8.504243070E0,-6.780805492E0,1.229459339E1
9.751963167E0,7.229085789E0,1.058585652E1,-6.671446187E0,1.445089042E1
9.761997167E0,8.778479823E0,1.313467653E1,-6.378170316E0,1.703709166E1
9.772032167E0,1.003432726E1,1.481833901E1,-5.453469413E0,1.870858689E1
9.782066167E0,1.082343240E1,1.554868665E1,-4.460171315E0,1.946282286E1
9.792100167E0,1.068355297E1,1.490023979E1,-3.541736873E0,1.867349324E1
9.802134167E0,9.055737247E0,1.245543473E1,-2.357683305E0,1.557892493E1
9.812169167E0,7.489427218E0,1.028164343E1,-1.496204837E0,1.280790149E1
9.822203167E0,6.473857076E0,8.471116254E0,-8.042978154E-1,1.069193766E1
9.832237167E0,5.728569800E0,7.009723985E0,-1.314413148E-1,9.053729569E0
9.842271167E0,5.304701044E0,6.129734986E0,3.688844633E-1,8.114775408E0
9.852305167E0,5.166181090E0,5.595440394E0,5.941836758E-1,7.638811065E0
9.862340167E0,5.148925956E0,5.251839876E0,6.252812152E-1,7.381343860E0
9.872374167E0,5.207794554E0,5.022089909E0,5.145807052E-1,7.253089305E0
9.882408167E0,5.183650231E0,4.679796828E0,5.600720429E-1,7.006026603E0
9.892442167E0,5.127099470E0,4.272250575E0,5.969049700E-1,6.700415621E0
9.902477167E0,5.175813793E0,4.178233194E0,2.463594215E-1,6.656378446E0
9.912511167E0,5.307494259E0,4.768396763E0,-7.230310196E-1,7.171462672E0
9.922545167E0,4.825566452E0,5.732438318E0,-2.004810565E0,7.756687827E0
9.932579167E0,3.955783184E0,6.336960309E0,-2.935330324E0,8.026297445E0
9.942613167E0,1.886323172E0,4.601413733E0,-3.016791978E0,5.816550291E0
9.952648167E0,-6.053444025E-1,1.196390024E0,-2.165218109E0,2.546754875E0
9.962682167E0,-2.541903343E0,-2.338426670E0,-1.066049155E0,3.614688464E0
9.972716167E0,-4.690387013E0,-6.073201767E0,6.127765059E-2,7.673803814E0
9.982750167E0,-6.852395293E0,-9.661650876E0,1.210700207E0,1.190666258E1
9.992785167E0,-8.451416985E0,-1.302674512E1,2.158689400E0,1.567745124E1
1.000281917E1,-9.695505670E0,-1.638230548E1,2.756316648E0,1.923486533E1
1.001285317E1,-1.123761641E1,-1.960480426E1,2.972882313E0,2.279189334E1
1.002288717E1,-1.268641378E1,-2.279562048E1,3.195958852E0,2.628306604E1
1.003292217E1,-1.375437380E1,-2.566284945E1,3.104507815E0,2.928143797E1
1.004295617E1,-1.345277910E1,-2.616782903E1,3.293717866E0,2.960711264E1
1.005299017E1,-9.819338003E0,-2.129114125E1,4.266463585E0,2.383138280E1
1.006302417E1,-5.231568748E0,-1.494667838E1,4.898468660E0,1.657611237E1
1.007305817E1,-2.254711206E0,-1.098862560E1,5.689372990E0,1.257786072E1
1.008309329E1,-9.414008430E-1,-8.131505291E0,5.958151367E0,1.012458303E1
1.009312729E1,3.393045688E-1,-5.441157516E0,6.559571410E0,8.529320007E0
1.010316129E1,1.905517534E0,-2.938141081E0,7.028969511E0,7.853030146E0
1.011319529E1,3.098875484E0,-7.526483363E-1,7.148102437E0,7.827188335E0
1.012323029E1,3.539233388E0,1.053295208E0,6.352418008E0,7.347708372E0
1.013326429E1,3.154931864E0,2.339768606E0,4.368769394E0,5.874883676E0
1.014329829E1,2.969622782E0,3.311012176E0,2.420004684E0,5.063386591E0
1.015333229E1,3.216521463E0,4.338419421E0,9.674200024E-1,5.486692525E0
1.016336629E1,3.626260715E0,5.256721716E0,-1.317219081E-1,6.387506605E0
1.017340129E1,4.212749016E0,6.126811379E0,-1.079811162E0,7.513392315E0
1.018343529E1,5.039915730E0,7.125612291E0,-1.766704634E0,8.904849598E0
1.019346929E1,6.044175019E0,8.188593997E0,-2.347039180E0,1.044479374E1
1.020350329E1,7.174885608E0,9.121898493E0,-2.893992264E0,1.196090326E1
1.021353829E1,9.048354553E0,9.515846461E0,-3.649865047E0,1.362885061E1
1.022357229E1,1.382756340E1,7.642803193E0,-6.382697230E0,1.703974103E1
1.023360629E1,1.409240251E1,6.390499170E0,-8.492525834E0,1.765098533E1
1.024364029E1,1.310942358E1,6.118144051E0,-8.437476053E0,1.674752744E1
1.025367529E1,1.214670174E1,5.593975666E0,-7.659525645E0,1.541114078E1
1.026370929E1,1.081607193E1,5.084059285E0,-7.044401482E0,1.387294716E1
1.027374329E1,9.735677796E0,4.926313101E0,-7.097270837E0,1.301626814E1
1.028377729E1,9.013856565E0,5.187199491E0,-7.311288285E0,1.271265453E1
1.029381129E1,8.279128191E0,5.695722481E0,-7.125285432E0,1.231888431E1
1.030384629E1,7.112481784E0,6.105680126E0,-6.040311179E0,1.115132665E1
1.031388029E1,5.621010268E0,6.265965171E0,-4.862018872E0,9.720972352E0
1.032391429E1,4.315175570E0,6.254044452E0,-4.241713491E0,8.702065591E0
1.033394829E1,3.333620727E0,5.872520063E0,-3.499094299E0,7.605470397E0
1.034398329E1,2.597691627E0,4.966605095E0,-2.307670316E0,6.061395074E0
1.035401729E1,1.851203333E0,3.885038014E0,-1.308505121E0,4.498072899E0
1.036405129E1,8.195381445E-1,2.675382997E0,-4.522201502E-1,2.834399410E0
1.037408529E1,-6.360221118E-1,1.063578122E0,4.504104370E-1,1.318556828E0
1.038412029E1,-2.215617015E0,-8.034612250E-1,1.219046742E0,2.653409817E0
1.039415429E1,-3.483973399E0,-2.844118438E0,1.665587565E0,4.795963122E0
1.040418829E1,-4.906634881E0,-5.692324079E0,1.783224188E0,7.723827276E0
1.041422229E1,-6.779655930E0,-9.446350549E0,1.916356518E0,1.178429869E1
1.042425629E1,-8.958793920E0,-1.426698517E1,2.045910351E0,1.697034482E1
1.043429129E1,-1.127079001E1,-1.984374722E1,2.781456167E0,2.299003065E1
1.044432529E1,-1.321216501E1,-2.505290066E1,4.425842897E0,2.866700579E1
1.045435929E1,-1.463995333E1,-2.880087000E1,5.868183768E0,3.283677705E1
1.046439329E1,-1.409354973E1,-2.896952475E1,6.629362607E0,3.289087954E1
1.047442829E1,-1.029675498E1,-2.406436337E1,6.024898503E0,2.685919115E1
1.048446229E1,-6.138012305E0,-1.712254894E1,4.463544574E0,1.872912458E1
1.049449629E1,-3.385705678E0,-1.111828176E1,3.064566654E0,1.201959903E1
1.050453029E1,-1.907373148E0,-6.346892390E0,2.471262546E0,7.073065382E0
1.051456429E1,-8.925996888E-1,-1.991663393E0,2.787462426E0,3.540254801E0
1.052459929E1,-4.378029630E-1,2.210049296E0,2.876223160E0,3.653580298E0
1.053463329E1,6.144429624E-1,3.571279930E0,1.540635490E0,3.937656436E0
1.054466729E1,8.318593973E-1,3.897038839E0,9.200851107E-1,4.089677051E0
1.055470129E1,9.494515818E-1,4.379329466E0,1.946637493E-1,4.485295849E0
1.056473629E1,1.716934012E0,5.217448892E0,-3.499425544E-1,5.503825500E0
1.057477029E1,2.452418431E0,6.234352199E0,-8.548138118E-1,6.753681230E0
1.058480429E1,2.969402635E0,7.337184434E0,-1.481554638E0,8.052740625E0
1.059483829E1,3.550218260E0,8.638399832E0,-2.389591122E0,9.640339573E0
1.060487229E1,4.474220420E0,9.928099723E0,-3.168188671E0,1.134121827E1
1.061490729E1,5.439716177E0,1.088817979E1,-3.701887432E0,1.272190794E1
1.062494129E1,6.326832932E0,1.176561063E1,-3.716988451E0,1.386630490E1
1.063497529E1,7.033572439E0,1.245756896E1,-3.718077788E0,1.478128100E1
1.064500929E1,7.387029608E0,1.265789340E1,-3.774261929E0,1.513391968E1
1.065504429E1,7.156162239E0,1.202859032E1,-3.817671365E0,1.450766204E1
1.066507829E1,6.514995162E0,1.089576597E1,-3.558358753E0,1.318426316E1
1.067511229E1,5.736373494E0,9.593272367E0,-3.252252629E0,1.164104818E1
1.068514629E1,5.089696001E0,8.439450073E0,-3.259105858E0,1.038032244E1
1.069518129E1,4.888517284E0,7.292770153E0,-4.274564318E0,9.764937166E0
1.070521529E1,4.778573257E0,6.447451635E0,-5.590630474E0,9.780569721E0
1.071524929E1,4.148053960E0,5.949284649E0,-6.126424293E0,9.493861917E0
1.072528329E1,3.234205197E0,5.830597866E0,-6.001129571E0,8.970479968E0
1.073531729E1,2.633199721E0,6.208631467E0,-5.959911379E0,9.000077172E0
1.074535229E1,2.518801871E0,7.044610228E0,-6.096868957E0,9.651046949E0
1.075538629E1,2.723326657E0,7.221659240E0,-5.571721748E0,9.519083648E0
1.076542029E1,1.694281314E0,5.765468654E0,-4.459353290E0,7.483117648E0
1.077545429E1,-3.415320656E-1,3.560979475E0,-3.254050940E0,4.835914236E0
1.078548929E1,-1.665548681E0,1.676061682E0,-2.168913111E0,3.207400700E0
1.079552329E1,-2.880736333E0,-7.864200997E-1,-7.931771421E-1,3.089697133E0
1.080555729E1,-4.490111983E0,-4.188635391E0,7.724879390E-1,6.188902138E0
1.081559129E1,-5.914773797E0,-7.632941864E0,1.757122656E0,9.814979908E0
1.082562529E1,-6.622315543E0,-1.022460969E1,2.177497993E0,1.237494258E1
1.083566029E1,-6.866423932E0,-1.219167969E1,2.014056621E0,1.413652204E1
1.084569429E1,-7.365718846E0,-1.443023124E1,1.818670156E0,1.630315764E1
1.085572829E1,-8.398987926E0,-1.748971667E1,2.300226810E0,1.953776422E1
1.086576229E1,-9.584219123E0,-2.087030077E1,2.622722388E0,2.311504668E1
1.087579729E1,-1.023808051E1,-2.246107321E1,2.904688575E0,2.485468402E1
1.088583129E1,-9.294523501E0,-2.039052269E1,3.396020166E0,2.266483037E1
1.089586529E1,-8.044475918E0,-1.749109193E1,4.006717402E0,1.966483344E1
1.090589929E1,-5.824188148E0,-1.461312045E1,4.838037686E0,1.645816106E1
1.091593329E1,-2.435587513E0,-1.127056196E1,5.347950559E0,1.271055580E1
1.092596829E1,9.220757952E-1,-8.065925844E0,6.282719198E0,1.026557081E1
1.093600229E1,2.849849586E0,-5.442163237E0,6.898728045E0,9.237490568E0
1.094603629E1,3.867675292E0,-3.229072804E0,7.096721199E0,8.703405949E0
1.095607029E1,4.285798281E0,-1.274576653E0,6.658156051E0,8.020202900E0
1.096610529E1,3.655431889E0,3.022946173E-1,5.760741765E0,6.829327200E0
1.097613929E1,2.669915265E0,1.603301269E0,4.391215686E0,5.383474499E0
1.098617329E1,2.220966340E0,2.787450147E0,3.232068332E0,4.811323676E0
1.099620729E1,2.198292884E0,3.829660204E0,2.104919867E0,4.891776419E0
1.100624229E1,2.357772768E0,4.719866043E0,1.103359069E0,5.390141846E0
1.101627629E1,2.682627112E0,5.476264198E0,1.590371760E-1,6.100102509E0
1.102631029E1,3.102154310E0,6.172573442E0,-6.349164033E-1,6.937372925E0
1.103634429E1,3.598300499E0,6.918452457E0,-1.244734218E0,7.896968669E0
1.104637829E1,4.214564284E0,7.766322116E0,-1.576040381E0,8.975645636E0
1.105641329E1,4.756062647E0,8.319160568E0,-1.884826577E0,9.766326622E0
1.106644729E1,4.900604063E0,8.299703373E0,-2.288814214E0,9.906546663E0
1.107648092E1,6.889984118E0,6.874568519E0,-4.582661712E0,1.075789765E1
1.108651492E1,1.096799662E1,4.234667011E0,-9.718668246E0,1.525391317E1
1.109654992E1,1.122612313E1,3.572107896E0,-1.102294408E1,1.613353933E1
1.110658392E1,1.204352060E1,3.927230937E0,-1.175161240E1,1.727917606E1
1.111661792E1,1.232920504E1,4.754765734E0,-1.169011138E1,1.764300989E1
1.112665192E1,1.114261085E1,5.115137821E0,-1.151108952E1,1.681747881E1
1.113668692E1,8.473535832E0,4.691426355E0,-1.117892908E1,1.479117122E1
1.114672092E1,5.466164888E0,4.721652367E0,-1.082925155E1,1.301712905E1
1.115675492E1,3.734632425E0,5.211083028E0,-9.539121303E0,1.149337639E1
1.116678892E1,2.857646848E0,5.052351004E0,-6.508657365E0,8.720952750E0
1.117682292E1,1.683279485E0,4.787494939E0,-3.479257620E0,6.152948172E0
1.118685792E1,8.015781292E-1,4.464591225E0,-1.729341511E0,4.854454075E0
1.119689192E1,3.326013207E-2,3.843185983E0,-3.158046091E-1,3.856282833E0
1.120692592E1,-8.532005650E-1,2.863237079E0,8.810976309E-1,3.114869308E0
1.121695992E1,-1.709165109E0,1.569793800E0,1.633934832E0,2.838175643E0
1.122699492E1,-2.764698339E0,-2.478611326E-1,1.822367789E0,3.320544594E0
1.123702892E1,-4.130070264E0,-2.797049521E0,2.119185319E0,5.419586038E0
1.124706292E1,-5.671346608E0,-5.974781433E0,2.910852710E0,8.737004579E0
1.125709692E1,-7.417422266E0,-9.731581821E0,3.658087109E0,1.277119568E1
1.126713092E1,-8.841788796E0,-1.340950503E1,3.793658313E0,1.650405700E1
1.127716592E1,-9.528580527E0,-1.647437807E1,4.220051311E0,1.949378908E1
1.128719992E1,-9.766070454E0,-1.846110642E1,5.223980817E0,2.152855215E1
1.129723392E1,-9.107344773E0,-1.800507037E1,6.013413402E0,2.105439215E1
1.130726792E1,-7.187343686E0,-1.590473297E1,5.576130549E0,1.832243630E1
1.131730292E1,-4.232689191E0,-1.615926928E1,3.287439126E0,1.702483179E1
1.132733692E1,-2.058564018E0,-1.590389097E1,-1.011239767E-1,1.603688436E1
1.133737092E1,-3.831897349E0,-1.160852635E1,-1.775240400E0,1.235284582E1
1.134740492E1,-4.780887293E0,-9.139889790E0,-2.256274459E0,1.055865726E1
1.135743892E1,-4.299632501E0,-7.417983014E0,-1.353228135E0,8.680123157E0
1.136747392E1,-3.269880230E0,-5.454316674E0,-5.707537365E-1,6.384939070E0
1.137750792E1,-2.290567794E0,-3.022034007E0,-1.387368858E-1,3.794553766E0
1.138754192E1,-1.338641086E0,-6.400911891E-1,-1.713117242E-1,1.493661406E0
1.139757592E1,-4.938856548E-1,1.715231595E0,-4.197008604E-1,1.833600632E0
1.140761092E1,3.966607842E-1,3.851150476E0,-4.673066244E-1,3.899625013E0
1.141764492E1,1.160876082E0,5.684316317E0,-7.193788487E-1,5.846074854E0
1.142767892E1,1.677396894E0,7.270410401E0,-9.234203625E-1,7.518326469E0
1.143771292E1,2.007846439E0,8.491385043E0,-9.306580460E-1,8.775032289E0
1.144774792E1,2.358152252E0,9.683947479E0,-1.000196058E0,1.001699121E1
1.145778192E1,2.918860764E0,1.095430010E1,-1.242232195E0,1.140436670E1
1.146781592E1,3.680733960E0,1.226684448E1,-1.603184910E0,1.290710959E1
1.147784992E1,4.483503167E0,1.338708563E1,-1.904499534E0,1.424580573E1
1.148788392E1,5.213064650E0,1.420820077E1,-2.148522554E0,1.528611008E1
1.149791892E1,5.518006886E0,1.455033773E1,-2.055854711E0,1.569672790E1
1.150795292E1,4.834239043E0,1.359851627E1,-1.554803878E0,1.451574755E1
1.151798692E1,3.276639026E0,1.167228907E1,-8.068080982E-1,1.215029361E1
1.152802092E1,2.054344960E0,1.019146533E1,-2.115569401E-1,1.039860833E1
1.153805592E1,1.190865721E0,9.075668067E0,2.268965987E-1,9.156276213E0
1.154808992E1,5.188601361E-1,7.962479244E0,4.906316793E-1,7.994436252E0
1.155812392E1,-9.193796441E-2,6.947321330E0,6.647056282E-1,6.979653274E0
1.156815792E1,-4.959377351E-1,5.984229949E0,6.348941108E-1,6.038216032E0
1.157819292E1,-7.553909728E-1,5.089298390E0,4.103564250E-1,5.161391869E0
1.158822692E1,-8.073971321E-1,4.514823486E0,-3.169126564E-1,4.597385656E0
1.159826092E1,-8.752600631E-1,3.454429758E0,-8.091181723E0,8.841175646E0
1.160829492E1,-4.281752300E-1,2.655358037E0,-1.479902683E1,1.504145789E1
1.161832892E1,-2.284527621E-1,3.527571993E0,-1.020085362E1,1.079598858E1
1.162836392E1,-7.663211730E-1,4.046732238E0,-4.223949650E0,5.899579696E0
1.163839792E1,-1.663202778E0,3.007120684E0,-1.752456286E0,3.857476030E0
1.164843192E1,-2.110862977E0,6.476586556E-1,-1.094623913E0,2.464428078E0
1.165846592E1,-2.748949741E0,-2.356594554E0,2.452227958E-1,3.629104130E0
1.166850092E1,-3.763543690E0,-6.399862316E0,1.613543691E0,7.597764278E0
1.167853492E1,-4.650376270E0,-1.085298423E1,2.671020389E0,1.210568528E1
1.168856892E1,-5.246722977E0,-1.516610099E1,4.218739781E0,1.659326631E1
1.169860292E1,-6.110246801E0,-1.888323329E1,6.357892756E0,2.084069134E1
1.170863692E1,-6.764974156E0,-2.070535549E1,7.583210710E0,2.306472861E1
1.171867192E1,-6.553793777E0,-1.915176666E1,7.176624570E0,2.147664591E1
1.172870592E1,-5.319161208E0,-1.594490334E1,6.426606896E0,1.799540760E1
1.173873992E1,-4.938254285E0,-1.409288432E1,6.033959933E0,1.610603664E1
1.174877392E1,-4.619976304E0,-1.267223545E1,5.729617036E0,1.465463216E1
1.175880892E1,-3.632375733E0,-1.130650363E1,5.154683125E0,1.294611663E1
1.176884292E1,-2.806754437E0,-1.022209656E1,4.679784549E0,1.158747220E1
1.177887692E1,-1.982362519E0,-8.426817164E0,3.946623228E0,9.514034033E0
1.178891092E1,-1.089521925E0,-5.958949512E0,3.207180244E0,6.854352079E0
1.179894492E1,-1.713935852E-1,-3.431792262E0,2.423755088E0,4.204897456E0
1.180897992E1,6.725981998E-1,-1.146749502E0,1.701281893E0,2.159116217E0
1.181901392E1,1.562484781E0,9.372086817E-1,1.106179692E0,2.131514090E0
1.182904792E1,2.346419229E0,2.809464914E0,5.991629454E-1,3.709147144E0
1.183908192E1,2.846883878E0,4.243398074E0,1.444490308E-1,5.111950758E0
1.184911692E1,3.152626891E0,5.188143232E0,-3.433542041E-1,6.080606764E0
1.185915092E1,3.411848287E0,5.860274824E0,-9.355590360E-1,6.845348819E0
1.186918492E1,3.689394856E0,6.379097684E0,-1.502232732E0,7.520719703E0
1.187921892E1,3.974326459E0,6.722026357E0,-2.015172123E0,8.064851383E0
1.188925392E1,4.190254777E0,6.739292015E0,-2.424254732E0,8.297789041E0
1.189928792E1,5.019147590E0,5.483931068E0,-5.387618070E0,9.181055002E0
1.190932192E1,7.465611509E0,3.522155133E0,-1.015672118E1,1.308815942E1
1.191935592E1,9.095163268E0,3.055032184E0,-1.073692869E1,1.439919631E1
1.192938992E1,1.092207727E1,2.290629775E0,-1.103550156E1,1.569461854E1
1.193942492E1,1.098493951E1,1.793287246E0,-1.001746038E1,1.497445451E1
1.194945892E1,9.871394595E0,1.280474739E0,-8.968878028E0,1.339868725E1
1.195949292E1,8.941407225E0,9.103880882E-1,-8.812118855E0,1.258693800E1
1.196952692E1,8.481352975E0,1.274838608E0,-7.724194096E0,1.154217207E1
1.197956192E1,8.324442358E0,2.384788073E0,-6.307542967E0,1.071301326E1
1.198959592E1,8.832447284E0,3.747982203E0,-6.215706013E0,1.143216939E1
1.199962992E1,9.081474352E0,5.290487632E0,-6.299979009E0,1.225365951E1
1.200966392E1,7.998993351E0,6.314207039E0,-5.379873433E0,1.152372090E1
1.201969892E1,6.105358529E0,6.075066444E0,-3.740688386E0,9.390132303E0
1.202973292E1,4.360237137E0,5.223274473E0,-2.421593957E0,7.222075976E0
1.203976692E1,2.803159569E0,4.259597200E0,-1.591962934E0,5.341930162E0
1.204980092E1,1.404613466E0,3.035830513E0,-6.832354546E-1,3.414090886E0
1.205983492E1,9.909217894E-2,1.542039406E0,5.884204773E-1,1.653464075E0
1.206986992E1,-1.328943771E0,-1.854695874E-1,2.059647800E0,2.458178101E0
1.207990479E1,-2.952427583E0,-2.347946522E0,2.891912409E0,4.753192494E0
1.208993879E1,-4.525218666E0,-5.107715950E0,3.396031276E0,7.622295889E0
1.209997279E1,-6.284742919E0,-8.124714920E0,4.147824165E0,1.107760946E1
1.211000779E1,-7.949145838E0,-1.120216357E1,4.602190243E0,1.448646069E1
1.212004179E1,-9.405910621E0,-1.415909117E1,5.318904516E0,1.781128189E1
1.213007579E1,-1.071268146E1,-1.671027697E1,6.555884156E0,2.090393546E1
1.214010979E1,-1.169845068E1,-1.828642553E1,7.664461280E0,2.302153500E1
1.215014379E1,-1.152514506E1,-1.829182835E1,8.089543333E0,2.308377492E1
1.216017879E1,-9.018078840E0,-1.562216159E1,7.474453669E0,1.952549965E1
1.217021279E1,-5.903827225E0,-1.243428886E1,6.773415781E0,1.534098682E1
1.218024679E1,-3.633717669E0,-1.029000963E1,6.788043176E0,1.285168208E1
1.219028079E1,-2.415858715E0,-8.698703921E0,6.790861534E0,1.129688557E1
1.220031579E1,-2.288255221E0,-7.216437092E0,6.006112568E0,9.663667236E0
1.221034979E1,-2.680644614E0,-5.907010449E0,5.027004493E0,8.206668153E0
1.222038379E1,-3.002578274E0,-4.674129707E0,4.088227004E0,6.897576737E0
1.223041779E1,-3.009998976E0,-3.344448309E0,3.061997387E0,5.442541348E0
1.224045279E1,-2.801031475E0,-2.114574205E0,2.093280984E0,4.086444258E0
1.225048679E1,-2.500079378E0,-7.224597466E-1,9.429155642E-1,2.767929686E0
1.226052079E1,-2.030978317E0,1.010401788E0,-6.863010766E-1,2.369977608E0
1.227055479E1,-1.751322364E0,3.065191721E0,-3.358182834E0,4.872363108E0
1.228058879E1,-1.458831481E0,4.681006617E0,-5.970360938E0,7.725621138E0
1.229062379E1,-8.337150112E-1,6.202402428E0,-8.374255373E0,1.045433067E1
1.230065779E1,7.881520450E-2,7.589479510E0,-9.965459923E0,1.252664371E1
1.231069179E1,1.074898916E0,8.768126158E0,-1.081356464E1,1.396311657E1
1.232072579E1,1.860478771E0,9.821963403E0,-1.107828096E1,1.492181810E1
1.233076079E1,2.463176723E0,1.061224617E1,-1.070187346E1,1.527144735E1
1.234079479E1,3.187420748E0,1.123582249E1,-9.959099321E0,1.534884417E1
1.235082879E1,4.150037336E0,1.179564778E1,-8.753149685E0,1.526360854E1
1.236086279E1,5.358573781E0,1.233287007E1,-7.186645528E0,1.524670033E1
1.237089779E1,6.220077977E0,1.242773296E1,-5.677202010E0,1.501227961E1
1.238093179E1,6.869995412E0,1.213057161E1,-4.537441100E0,1.466069495E1
1.239096579E1,6.740770776E0,1.056962348E1,-3.944459174E0,1.314205803E1
1.240099979E1,5.937833462E0,8.122530985E0,-4.128558174E0,1.087558589E1
1.241103379E1,5.452163145E0,6.388938548E0,-4.579468548E0,9.566407419E0
1.242106879E1,4.924303998E0,5.071604716E0,-4.720102855E0,8.499959718E0
1.243110279E1,4.257598914E0,3.988762357E0,-4.929127366E0,7.637648214E0
1.244113679E1,4.190453290E0,2.796835513E0,-6.008782407E0,7.841406359E0
1.245117079E1,4.682901407E0,1.828736576E0,-5.782822605E0,7.662563562E0
1.246120579E1,3.478362119E0,1.612874331E0,-1.443756482E0,4.096925605E0
1.247123979E1,1.424918507E0,2.050627885E0,2.019767450E0,3.211686166E0
1.248127379E1,-8.395373762E-2,1.413450363E0,2.133892236E0,2.560934641E0
1.249130779E1,-1.747977757E0,-8.532777482E-1,2.698104107E0,3.326150166E0
1.250134279E1,-3.484639982E0,-4.360959268E0,3.552205728E0,6.616558553E0
1.251137679E1,-5.261171447E0,-8.661040251E0,4.350410306E0,1.102812827E1
1.252141079E1,-7.183419034E0,-1.270819349E1,5.860442054E0,1.573036782E1
1.253144479E1,-9.176564696E0,-1.590554573E1,7.303240178E0,1.976190886E1
1.254147879E1,-1.002437764E1,-1.705740628E1,7.683816733E0,2.122461533E1
1.255151379E1,-9.228942885E0,-1.543565880E1,7.256433216E0,1.939300834E1
1.256154779E1,-8.627249776E0,-1.332841116E1,6.562386260E0,1.717966519E1
1.257158179E1,-8.409593605E0,-1.242752363E1,6.214030201E0,1.624126779E1
1.258161579E1,-7.810134133E0,-1.191639980E1,5.890103810E0,1.541726637E1
1.259165079E1,-7.130437413E0,-1.167919814E1,5.835521221E0,1.487615928E1
1.260168479E1,-6.842408248E0,-1.122063610E1,5.558854365E0,1.426962112E1
1.261171879E1,-5.927372793E0,-9.859214845E0,5.140004275E0,1.259990117E1
1.262175279E1,-4.516723538E0,-7.731737005E0,5.053934430E0,1.028215940E1
1.263178679E1,-2.993125373E0,-4.905375391E0,4.125603576E0,7.074044960E0
1.264182179E1,-1.800058322E0,-1.968614253E0,2.779948754E0,3.852760973E0
1.265185579E1,-6.775139540E-1,5.684037405E-1,1.519361565E0,1.758001006E0
1.266188979E1,4.028953779E-1,2.531874198E0,5.881626517E-1,2.630332098E0
1.267192379E1,1.158680161E0,3.834286521E0,-1.237224054E-1,4.007443084E0
1.268195879E1,1.527118481E0,4.483270741E0,-6.461184990E-1,4.780091684E0
1.269199279E1,1.709687265E0,4.835466081E0,-1.050680918E0,5.235331236E0
1.270202679E1,2.013936314E0,5.215340971E0,-1.480861743E0,5.783482724E0
1.271206079E1,2.542271717E0,5.661513931E0,-2.171709688E0,6.575120412E0
1.272209579E1,3.524896892E0,5.936083975E0,-4.190812894E0,8.076193644E0
1.273212979E1,1.126927090E1,5.136808187E0,-2.228822717E1,2.549800650E1
1.274216379E1,1.441255745E1,5.288708324E0,-2.056723958E1,2.566522145E1
1.275219779E1,1.187301346E1,5.330862072E0,-1.308220128E1,1.845346930E1
1.276223179E1,1.040586285E1,5.165833181E0,-9.396248682E0,1.494179719E1
1.277226679E1,8.791631380E0,5.398607912E0,-6.324085325E0,1.210090100E1
1.278230079E1,7.302285912E0,5.919863799E0,-4.954383245E0,1.062610372E1
1.279233479E1,5.848966309E0,6.181717903E0,-3.825059615E0,9.330333551E0
1.280236879E1,4.891822715E0,6.271362736E0,-3.294116646E0,8.608781825E0
1.281240379E1,4.248906443E0,5.865830263E0,-3.125150825E0,7.888456016E0
1.282243779E1,3.629208296E0,4.886925672E0,-3.686232682E0,7.116284618E0
1.283247179E1,3.210820135E0,4.640743275E0,-5.038193725E0,7.565002320E0
1.284250579E1,2.963071562E0,4.640371392E0,-5.101168238E0,7.505648348E0
1.285254079E1,2.533575446E0,4.031810728E0,-3.821865281E0,6.105829715E0
1.286257479E1,2.219815023E0,3.173059986E0,-2.269919522E0,4.488699483E0
1.287260879E1,1.772325270E0,2.043079714E0,-6.210222495E-1,2.775064002E0
1.288264279E1,9.436295092E-1,4.655091172E-1,5.305143678E-1,1.178380619E0
1.289267679E1,-1.388792655E-1,-1.415599800E0,1.342440022E0,1.955851594E0
1.290271179E1,-1.089828027E0,-3.395018538E0,2.238476851E0,4.210065868E0
1.291274579E1,-2.019317799E0,-5.474318245E0,3.088830260E0,6.602020675E0
1.292277979E1,-3.132653680E0,-7.589800522E0,3.897758632E0,9.089065595E0
1.293281379E1,-4.342765364E0,-9.637053979E0,4.761328064E0,1.159321635E1
1.294284879E1,-5.483180870E0,-1.150288588E1,5.545384719E0,1.389722805E1
1.295288279E1,-6.359160433E0,-1.279922060E1,6.229200218E0,1.559044274E1
1.296291679E1,-7.140142037E0,-1.358439174E1,6.724631292E0,1.675523778E1
1.297295079E1,-8.150126919E0,-1.434286215E1,7.149652534E0,1.797942698E1
1.298298479E1,-9.011335831E0,-1.500147381E1,7.302109326E0,1.896230973E1
1.299301979E1,-8.940726024E0,-1.483571343E1,7.495296654E0,1.887364423E1
1.300305379E1,-8.128174717E0,-1.357447486E1,7.779616345E0,1.763110951E1
1.301308779E1,-7.142314863E0,-1.171341721E1,7.837555236E0,1.580012900E1
1.302312179E1,-6.150970904E0,-9.473488061E0,7.436853733E0,1.352361684E1
1.303315679E1,-5.056185608E0,-7.130554358E0,6.638953210E0,1.097658955E1
1.304319079E1,-3.958044887E0,-5.024021244E0,5.436718894E0,8.394332679E0
1.305322479E1,-2.916005861E0,-3.144421493E0,4.012519594E0,5.872886020E0
1.306325879E1,-2.184289972E0,-1.484287627E0,2.778186696E0,3.833086714E0
1.307329379E1,-1.594184875E0,-1.673531592E-2,1.905394742E0,2.484398240E0
1.308332771E1,-9.499105883E-1,1.459317092E0,1.190534110E0,2.109338278E0
1.309336171E1,-1.900982434E-1,2.977151365E0,5.658444142E-1,3.036403710E0
1.310339571E1,6.500042662E-1,4.538574876E0,-1.366260409E-1,4.586919895E0
1.311343071E1,1.544021320E0,6.104525301E0,-8.174144357E-1,6.349598203E0
1.312346471E1,2.493438696E0,7.733761311E0,-1.426528831E0,8.250047578E0
1.313349871E1,3.685125219E0,9.531600029E0,-2.429185982E0,1.050392743E1
1.314353271E1,5.346015716E0,1.169811739E1,-4.019733889E0,1.347531428E1
1.315356671E1,7.371670142E0,1.383507357E1,-6.951050684E0,1.714840771E1
1.316360171E1,1.064078877E1,1.495913412E1,-1.288662712E1,2.242916043E1
1.317363571E1,1.078073135E1,1.260036615E1,-1.362544621E1,2.146266945E1
1.318366971E1,7.861771479E0,8.731527851E0,-1.120338681E1,1.623462058E1
1.319370371E1,6.196527146E0,7.037331029E0,-8.990338479E0,1.299027185E1
1.320373871E1,4.732546899E0,6.091486595E0,-6.459891586E0,1.006148142E1
1.321377271E1,3.867049640E0,5.475178370E0,-4.800160008E0,8.244585327E0
1.322380671E1,3.702455197E0,5.142101086E0,-4.128669856E0,7.562756961E0
1.323384071E1,4.070707576E0,4.716937757E0,-4.372542310E0,7.611786139E0
1.324387571E1,4.752303472E0,4.090682834E0,-5.195028913E0,8.142874170E0
1.325390971E1,5.226827241E0,3.294292063E0,-5.987959303E0,8.603937460E0
1.326394371E1,5.365767025E0,2.726792302E0,-6.456883779E0,8.827128647E0
1.327397771E1,5.581622254E0,2.371533605E0,-7.203794827E0,9.416652193E0
1.328401171E1,6.172195712E0,2.053572543E0,-8.536179977E0,1.073217260E1
1.329404671E1,5.577784726E0,2.359400048E0,-7.073410689E0,9.311905809E0
1.330408071E1,3.382998125E0,3.164741737E0,-3.976390234E0,6.105075418E0
1.331411471E1,1.477224483E0,2.161662417E0,-3.432189288E0,4.316815943E0
1.332414871E1,-3.207107154E-1,-3.001662308E-1,-2.912533200E0,2.945471909E0
1.333418371E1,-2.904609930E0,-4.208632869E0,-1.655095906E0,5.374820176E0
1.334421771E1,-5.925627984E0,-9.442228847E0,5.505801847E-1,1.116117786E1
1.335425171E1,-9.038541756E0,-1.468910619E1,2.042611937E0,1.736770973E1
1.336428571E1,-1.083875211E1,-1.788132107E1,2.896702448E0,2.110950202E1
1.337431971E1,-1.109792526E1,-1.806869860E1,3.883991947E0,2.155753251E1
1.338435471E1,-1.010545630E1,-1.554939066E1,5.291305658E0,1.928475337E1
1.339438871E1,-8.983870289E0,-1.327195279E1,6.740681899E0,1.738653067E1
1.340442271E1,-7.987442762E0,-1.204482921E1,7.806077335E0,1.642595495E1
1.341445671E1,-7.595959395E0,-1.172461580E1,8.133243084E0,1.616523609E1
1.342449171E1,-7.741695397E0,-1.176542469E1,7.937305226E0,1.616662859E1
1.343452571E1,-7.968353941E0,-1.159512102E1,7.629107845E0,1.600452382E1
1.344455971E1,-7.807454939E0,-1.066580433E1,7.128919476E0,1.501789691E1
1.345459371E1,-7.425904237E0,-9.107662277E0,6.599636532E0,1.347771376E1
1.346462871E1,-6.545142821E0,-6.911715295E0,5.584634739E0,1.103625154E1
1.347466271E1,-5.386230526E0,-4.824004369E0,4.081494520E0,8.303077438E0
1.348469671E1,-4.109207691E0,-3.008624588E0,2.802675712E0,5.813123162E0
1.349473071E1,-2.894998862E0,-1.489853591E0,1.809611503E0,3.724966567E0
1.350476471E1,-1.793033477E0,-1.626362103E-1,1.089597062E0,2.104433735E0
1.351479971E1,-6.636861661E-1,1.162515934E0,5.476911485E-1,1.446336136E0
1.352483371E1,4.066130376E-1,2.479856783E0,1.667917351E-2,2.513026467E0
1.353486771E1,1.371150436E0,3.668049011E0,-5.491687399E-1,3.954266476E0
1.354490171E1,2.167421632E0,4.603950840E0,-1.059296790E0,5.197710030E0
1.355493671E1,3.067801334E0,5.302074475E0,-1.586166004E0,6.327663182E0
1.356497071E1,4.081780741E0,5.626930574E0,-2.241345348E0,7.303896951E0
1.357500471E1,6.616215143E0,4.865392131E0,-5.587626175E0,9.933172185E0
1.358503871E1,1.112547266E1,4.634509558E0,-9.158453531E0,1.513710976E1
1.359507371E1,1.217142845E1,5.549063203E0,-9.381121350E0,1.633833561E1
1.360510771E1,1.249911343E1,5.632163247E0,-8.760825325E0,1.626963920E1
1.361514171E1,1.294430873E1,5.760542375E0,-7.972255204E0,1.625717780E1
1.362517571E1,1.211788432E1,5.936524270E0,-7.435880756E0,1.540706862E1
1.363521071E1,1.073968975E1,5.839088607E0,-6.770341315E0,1.397402638E1
1.364524471E1,9.483834125E0,5.639973373E0,-5.747376199E0,1.244125165E1
1.365527871E1,9.105332161E0,5.363838614E0,-4.458177415E0,1.146966365E1
1.366531271E1,8.687908207E0,4.899866145E0,-3.961597363E0,1.073231992E1
1.367534671E1,8.095446097E0,4.191399955E0,-3.592882469E0,9.798616511E0
1.368538171E1,6.953373783E0,3.733398077E0,-2.965224214E0,8.430908778E0
1.369541571E1,5.460762645E0,4.395042104E0,-2.543507234E0,7.456926499E0
1.370544971E1,4.293983506E0,5.112194917E0,-1.870978031E0,6.933497675E0
1.371548371E1,3.162711292E0,5.061188486E0,-1.250876133E0,6.097791625E0
1.372551871E1,1.944732471E0,4.445955564E0,-8.546711397E-1,4.927369280E0
1.373555271E1,6.963504669E-1,3.483117367E0,-6.379207027E-1,3.608871484E0
1.374558671E1,-5.305286935E-1,2.187557981E0,-2.877309573E-1,2.269286169E0
1.375562071E1,-1.691218835E0,3.388192499E-1,3.792468989E-1,1.766026002E0
1.376565471E1,-2.829201314E0,-2.002436888E0,1.169156617E0,3.658013225E0
1.377568971E1,-4.210367737E0,-4.955518189E0,1.931689817E0,6.783493389E0
1.378572371E1,-5.681768686E0,-8.491231846E0,2.690479338E0,1.056514045E1
1.379575771E1,-7.361327587E0,-1.234920719E1,3.687221446E0,1.484209096E1
1.380579171E1,-9.298127725E0,-1.588210424E1,4.998032709E0,1.907031057E1
1.381582671E1,-1.101835635E1,-1.804259196E1,6.438751563E0,2.209970187E1
1.382586071E1,-1.199260539E1,-1.849611954E1,7.307114543E0,2.322332761E1
1.383589471E1,-1.146546019E1,-1.698463184E1,7.664662424E0,2.187879215E1
1.384592871E1,-9.813839282E0,-1.457806873E1,7.704602416E0,1.918834094E1
1.385596371E1,-7.875356900E0,-1.228234779E1,7.451057789E0,1.638278290E1
1.386599771E1,-6.727978238E0,-1.022101482E1,6.457169123E0,1.383581831E1
1.387603171E1,-6.268343818E0,-8.252894658E0,5.226868172E0,1.160700458E1
1.388606571E1,-5.758305815E0,-6.097959462E0,3.936299969E0,9.264861192E0
1.389609971E1,-5.214294904E0,-3.893287851E0,2.575197973E0,6.998443129E0
1.390613471E1,-4.662883757E0,-1.541590340E0,9.530248153E-1,5.002723459E0
1.391616871E1,-4.010795543E0,3.611620456E-1,-5.999138010E-1,4.071463555E0
1.392620271E1,-3.450502768E0,1.622626317E0,-1.778166347E0,4.207227243E0
1.393623671E1,-3.018513106E0,2.690441916E0,-2.933262749E0,4.995390819E0
1.394627171E1,-2.601758950E0,3.764827446E0,-3.945687089E0,6.042476474E0
1.395630571E1,-1.971087333E0,4.759335918E0,-4.609950083E0,6.912893998E0
1.396633971E1,-1.174707086E0,5.747574420E0,-5.044477728E0,7.737008724E0
1.397637371E1,-1.614158964E-1,6.699197073E0,-5.001787791E0,8.362007990E0
1.398640871E1,9.233250529E-1,7.597012478E0,-4.630895102E0,8.944960435E0
1.399644271E1,1.994640503E0,8.482321274E0,-4.266665899E0,9.702206080E0
1.400647671E1,2.890381023E0,9.259341390E0,-3.970660547E0,1.048121418E1
1.401651071E1,3.668729042E0,9.955153620E0,-3.815862529E0,1.127499283E1
1.402654571E1,4.733700847E0,1.084052264E1,-3.669857554E0,1.238518104E1
1.403657971E1,6.060178263E0,1.175004417E1,-3.443259237E0,1.366182026E1
1.404661371E1,7.212753931E0,1.244517286E1,-3.243498470E0,1.474538671E1
1.405664771E1,7.832778060E0,1.236862696E1,-3.052936542E0,1.495512510E1
1.406668171E1,7.146100935E0,1.057736402E1,-2.754148500E0,1.305881780E1
1.407671671E1,6.229024801E0,8.721672369E0,-2.484067363E0,1.100176847E1
1.408674979E1,5.992226601E0,7.603132174E0,-2.391986727E0,9.971760075E0
1.409678379E1,6.668265887E0,6.628756835E0,-3.168138970E0,9.921859284E0
1.410681779E1,7.907938170E0,6.072955599E0,-4.648548723E0,1.100114908E1
1.411685279E1,8.754089917E0,5.460201312E0,-6.303815952E0,1.209073961E1
1.412688679E1,7.816267862E0,4.710466644E0,-7.383222486E0,1.173859078E1
1.413692079E1,5.054763565E0,4.533443944E0,-6.999301323E0,9.751562321E0
1.414695479E1,3.231956066E0,4.478388315E0,-5.317450313E0,7.666601577E0
1.415698979E1,2.643506316E0,4.164080009E0,-2.405711165E0,5.487725774E0
1.416702379E1,1.562751414E0,2.979216601E0,-8.287001467E-1,3.464775241E0
1.417705779E1,-4.973144621E-2,2.105909801E-1,2.150547445E-2,2.174494494E-1
1.418709179E1,-2.498103897E0,-4.439539415E0,8.522697613E-1,5.164919848E0
1.419712579E1,-5.504537240E0,-9.929236422E0,1.334304206E0,1.143109942E1
1.420716079E1,-8.209356290E0,-1.430672401E1,1.730965868E0,1.658529848E1
1.421719479E1,-9.718497507E0,-1.710207901E1,2.187280823E0,1.979177854E1
1.422722879E1,-9.129503381E0,-1.751815284E1,2.953850795E0,1.997395168E1
1.423726279E1,-7.650308679E0,-1.598237815E1,4.220080547E0,1.821462912E1
1.424729779E1,-7.385421624E0,-1.484176880E1,5.194514358E0,1.737255114E1
1.425733179E1,-8.032059356E0,-1.511971035E1,5.415498179E0,1.795681595E1
1.426736579E1,-8.746272190E0,-1.579045499E1,5.208909034E0,1.878745537E1
1.427739979E1,-8.833088139E0,-1.571087204E1,5.013552389E0,1.870803715E1
1.428743479E1,-8.450420619E0,-1.490994500E1,5.131752684E0,1.788996798E1
1.429746879E1,-7.570662585E0,-1.314206858E1,5.088610758E0,1.599758913E1
1.430750279E1,-6.047900280E0,-1.033770186E1,4.489793894E0,1.279075552E1
1.431753679E1,-3.917992629E0,-6.776670926E0,3.526318935E0,8.585386440E0
1.432757079E1,-1.848785217E0,-3.097489402E0,2.384990387E0,4.324422102E0
1.433760579E1,-3.146035910E-1,-5.614437997E-2,1.373951837E0,1.410627967E0
1.434763979E1,6.713135666E-1,1.264535814E0,4.022796295E-1,1.487125291E0
1.435767379E1,1.271149307E0,1.183296354E0,-4.329471427E-1,1.789819558E0
1.436770779E1,1.754701470E0,9.773498172E-1,-1.030326249E0,2.257379475E0
1.437774279E1,2.726808674E0,1.189718935E0,-1.292775380E0,3.243791743E0
1.438777679E1,4.390999923E0,1.176258645E0,-7.917189927E-1,4.614247901E0
1.439781079E1,6.607236743E0,1.002180603E0,-1.063102304E0,6.766840463E0
1.440784479E1,9.109953216E0,1.295938870E0,-2.448374789E0,9.521829880E0
1.441787979E1,1.138162281E1,1.907975703E0,-4.112222223E0,1.225120731E1
1.442791379E1,1.311125844E1,2.744301789E0,-5.361221985E0,1.442840917E1
1.443794779E1,1.424558085E1,3.389350247E0,-6.330596784E0,1.595307884E1
1.444798179E1,1.494186027E1,3.785186282E0,-7.084370710E0,1.696393622E1
1.445801579E1,1.616640990E1,4.345933093E0,-7.337907735E0,1.827798768E1
1.446805079E1,1.686733669E1,4.259478502E0,-7.030050661E0,1.876357686E1
1.447808479E1,1.577253912E1,3.664398009E0,-6.680565505E0,1.751658524E1
1.448811879E1,1.416293163E1,3.789002175E0,-6.074281747E0,1.586953271E1
1.449815279E1,1.247259280E1,4.215094042E0,-5.437361503E0,1.424420896E1
1.450818779E1,1.089736693E1,4.526351271E0,-5.451448030E0,1.299841327E1
1.451822179E1,9.211050990E0,5.001373224E0,-5.581546825E0,1.187479934E1
1.452825579E1,7.136545415E0,5.497507718E0,-5.479938589E0,1.054431593E1
1.453828979E1,5.076026380E0,5.496908378E0,-5.040046708E0,9.021314558E0
1.454832479E1,3.643964329E0,5.142062495E0,-4.666607848E0,7.841971152E0
1.455835879E1,3.020614011E0,4.944192717E0,-4.083998297E0,7.088595963E0
1.456839279E1,2.547329266E0,4.389343407E0,-3.175183695E0,5.986402378E0
1.457842679E1,2.369647878E0,3.614024831E0,-2.218511387E0,4.857797785E0
1.458846179E1,2.545710465E0,3.003472021E0,-1.441984776E0,4.192947179E0
1.459849579E1,2.846380726E0,2.398718480E0,-8.575701892E-1,3.819837720E0
1.460852979E1,3.119532820E0,1.462507918E0,-3.890912712E-1,3.467247675E0
1.461856379E1,3.241907150E0,-3.331866270E-1,6.374170382E-2,3.259607078E0
1.462859779E1,3.063893932E0,-3.499520561E0,9.448819828E-1,4.746250325E0
1.463863279E1,1.706488546E0,-9.398446065E0,3.779109271E0,1.027251471E1
1.464866679E1,-1.717319343E0,-1.849612188E1,9.540829275E0,2.088260361E1
1.465870079E1,-7.124918811E0,-2.647553759E1,1.170805181E1,2.981269924E1
1.466873479E1,-1.205162952E1,-3.197063859E1,1.182354601E1,3.615466424E1
1.467876979E1,-1.599296394E1,-3.426612448E1,1.068939317E1,3.929637781E1
1.468880379E1,-1.703092191E1,-3.181783447E1,9.429288958E0,3.730064854E1
1.469883779E1,-1.257462203E1,-2.237207859E1,7.080703336E0,2.662268542E1
1.470887179E1,-7.764131164E0,-1.274933216E1,4.867953211E0,1.570108823E1
1.471890679E1,-6.009551901E0,-6.954431545E0,3.176034465E0,9.724506521E0
1.472894079E1,-5.036330802E0,-3.524747788E0,1.624411472E0,6.358237771E0
1.473897479E1,-4.551617967E0,-1.662738801E0,5.817348806E-1,4.880608764E0
1.474900879E1,-4.558301919E0,-7.930449951E-1,1.012784529E-1,4.627882245E0
1.475904279E1,-4.442907703E0,-1.570942193E-1,-2.160289272E-1,4.450929785E0
1.476907779E1,-4.302299416E0,3.716642296E-1,-6.001459354E-1,4.359826798E0
1.477911179E1,-4.021022031E0,1.158899431E0,-9.147553736E-1,4.283508312E0
1.478914579E1,-3.721213065E0,2.122311240E0,-1.621588436E0,4.580521884E0
1.479917979E1,-3.484576247E0,3.345732942E0,-3.829681254E0,6.164629677E0
1.480921479E1,-3.200514418E0,5.274976138E0,-1.377945719E1,1.509775170E1
1.481924879E1,-1.852669230E0,6.912471340E0,-1.940286949E1,2.068057030E1
1.482928279E1,-1.299077217E0,6.783902763E0,-1.160435963E1,1.350444744E1
1.483931679E1,-1.323197859E0,6.455751173E0,-8.272061246E0,1.057613223E1
1.484935179E1,-7.559525979E-1,6.828594201E0,-5.832601706E0,9.012236446E0
1.485938579E1,-1.653852788E-1,7.187434317E0,-3.991146852E0,8.222883773E0
1.486941979E1,5.325303416E-1,7.641056630E0,-2.981916261E0,8.219559573E0
1.487945379E1,1.271554958E0,8.119155972E0,-2.050850664E0,8.470155498E0
1.488948779E1,2.179572439E0,8.707096429E0,-1.245946200E0,9.061812522E0
1.489952279E1,3.285683499E0,9.183841556E0,-7.521770507E-1,9.782864208E0
1.490955679E1,4.438269692E0,9.387605912E0,-3.304838978E-1,1.038915792E1
1.491959079E1,5.531674168E0,9.591001309E0,-7.949114263E-2,1.107217431E1
1.492962479E1,7.409677044E0,9.919225988E0,-3.316295135E-1,1.238565042E1
1.493965979E1,9.965858703E0,1.025896676E1,-8.676624835E-1,1.432890704E1
1.494969379E1,1.295957698E1,1.039814569E1,-1.639780148E0,1.669613573E1
1.495972779E1,1.542653364E1,1.002693638E1,-2.457558426E0,1.856224627E1
1.496976179E1,1.445376629E1,8.731358281E0,-2.224060979E0,1.703215854E1
1.497979679E1,9.222250746E0,6.818179725E0,-1.605817765E0,1.158085205E1
1.498983079E1,5.330186133E0,5.424480672E0,-9.804178512E-1,7.667926313E0
1.499986479E1,3.064286865E0,3.472531568E0,-3.933493598E-1,4.647908476E0
1.500989879E1,1.267689802E0,9.661114687E-1,2.460150205E-1,1.612740585E0
1.501993379E1,-2.531668961E-1,-2.044175482E0,7.716960798E-1,2.199604901E0
1.502996779E1,-1.811220364E0,-5.439380547E0,1.279805379E0,5.874119657E0
1.504000179E1,-3.395593904E0,-9.072766678E0,1.617400953E0,9.821463180E0
1.505003579E1,-4.996386718E0,-1.300308845E1,2.085432705E0,1.408521278E1
1.506006979E1,-6.553976794E0,-1.673699290E1,2.838423834E0,1.819720289E1
1.507010479E1,-7.847910655E0,-1.970876541E1,3.373142935E0,2.148029862E1
1.508014017E1,-9.149952264E0,-2.135679379E1,3.613285743E0,2.351361523E1
1.509017417E1,-9.698458514E0,-2.066864433E1,3.408004035E0,2.308392184E1
1.510020817E1,-9.602695155E0,-1.773678725E1,3.253796001E0,2.043018759E1
1.511024317E1,-8.503140285E0,-1.379061602E1,3.133289564E0,1.650157533E1
1.512027717E1,-7.126285890E0,-1.060943834E1,2.926603940E0,1.311141270E1
1.513031117E1,-6.035785434E0,-8.480428530E0,2.831501316E0,1.078729686E1
1.514034517E1,-5.022993304E0,-7.012946970E0,2.879872407E0,9.094259289E0
1.515038017E1,-4.166969995E0,-5.603126559E0,3.157169593E0,7.663314297E0
1.516041417E1,-3.614143530E0,-4.258804318E0,3.659453604E0,6.677652907E0
1.517044817E1,-2.879312244E0,-2.761216030E0,4.161105530E0,5.764507975E0
1.518048217E1,-2.219651886E0,-1.202589827E0,4.307615120E0,4.992857379E0
1.519051617E1,-1.564171118E0,2.861299896E-1,4.286331255E0,4.571776163E0
1.520055117E1,-7.074131066E-1,1.612209502E0,3.916625842E0,4.294136790E0
1.521058517E1,1.571105915E-1,2.762231691E0,3.146737576E0,4.190055491E0
1.522061917E1,8.668394879E-1,3.897170987E0,2.263955947E0,4.589645839E0
1.523065317E1,1.884996146E0,6.011577961E0,1.245673281E0,6.422147769E0
1.524068817E1,2.858130705E0,7.471842887E0,1.584075040E-1,8.001402389E0
1.525072217E1,3.414451175E0,7.167223417E0,-9.460005552E-1,7.995153868E0
1.526075617E1,4.114500883E0,6.213160720E0,-2.435207591E0,7.839816303E0
1.527079017E1,6.250380002E0,3.534443057E0,-5.736506810E0,9.190595643E0
1.528082517E1,1.088582921E1,3.330124969E0,-8.426206130E0,1.416304909E1
1.529085917E1,1.310899556E1,5.018513752E0,-7.981348794E0,1.614723424E1
1.530089317E1,1.402372112E1,6.021470865E0,-7.278530429E0,1.690857388E1
1.531092717E1,1.371874555E1,6.369517606E0,-6.376365280E0,1.641440734E1
1.532096217E1,1.254730618E1,5.849094948E0,-5.508651926E0,1.489939764E1
1.533099617E1,1.101463869E1,5.313839657E0,-4.568162956E0,1.305477959E1
1.534103017E1,9.798945839E0,5.119667074E0,-4.113511534E0,1.179624125E1
1.535106417E1,9.035740939E0,4.674516208E0,-3.896202688E0,1.089385659E1
1.536109817E1,9.096858376E0,4.106963822E0,-3.849457122E0,1.069758404E1
1.537113317E1,8.918234124E0,3.691573529E0,-4.674437270E0,1.072441042E1
1.538116717E1,6.571921899E0,3.882756431E0,-5.303891789E0,9.295010654E0
1.539120117E1,4.326111617E0,4.380697129E0,-4.823591555E0,7.821303252E0
1.540123517E1,2.831230590E0,4.474460741E0,-3.951972846E0,6.607174506E0
1.541127017E1,1.678602590E0,4.042355597E0,-2.842912742E0,5.219243076E0
1.542130417E1,7.374932304E-1,2.838595743E0,-1.319814221E0,3.216120588E0
1.543133817E1,-4.223414630E-2,1.117184810E0,3.341180885E-1,1.166842114E0
1.544137217E1,-7.696394679E-1,-5.364978236E-1,1.447144943E0,1.724645851E0
1.545140717E1,-1.661500946E0,-2.041025587E0,1.923447436E0,3.259757795E0
1.546144117E1,-2.544169431E0,-3.504575479E0,2.356705066E0,4.930406287E0
1.547147517E1,-3.266419263E0,-5.283710124E0,2.557920620E0,6.717889950E0
1.548150917E1,-3.882198314E0,-7.549708503E0,2.302061666E0,8.795967835E0
1.549154417E1,-4.663675177E0,-1.025621272E1,2.510746454E0,1.154311974E1
1.550157817E1,-6.103346502E0,-1.326838014E1,3.367229061E0,1.498796122E1
1.551161217E1,-7.892626652E0,-1.583373842E1,4.785413915E0,1.832760252E1
1.552164617E1,-9.723697436E0,-1.767131715E1,6.254774770E0,2.111747970E1
1.553168017E1,-1.081437155E1,-1.852578013E1,7.242170688E0,2.264076407E1
1.554171517E1,-1.051972334E1,-1.790678920E1,7.650031521E0,2.213234423E1
1.555174917E1,-8.866052987E0,-1.544517573E1,7.645708090E0,1.938084624E1
1.556178317E1,-6.783571225E0,-1.188599778E1,7.399451433E0,1.555781679E1
1.557181717E1,-5.168463843E0,-8.589244629E0,6.952166333E0,1.219921139E1
1.558185217E1,-4.128847611E0,-5.948003524E0,6.299494275E0,9.597382801E0
1.559188617E1,-3.575268316E0,-3.850663403E0,5.250417248E0,7.428124491E0
1.560192017E1,-3.116681718E0,-2.049285949E0,4.104409758E0,5.546120923E0
1.561195417E1,-2.606502796E0,-4.613406372E-1,3.222151455E0,4.170006236E0
1.562198917E1,-2.116361406E0,9.736146158E-1,2.546032062E0,3.450969470E0
1.563202317E1,-1.724002711E0,2.363646880E0,1.991993176E0,3.539357108E0
1.564205717E1,-1.483062050E0,3.783876505E0,1.397231941E0,4.297609981E0
1.565209117E1,-1.913434956E0,5.618065025E0,-6.105282515E-1,5.966291369E0
1.566212517E1,-2.389697688E0,6.739109582E0,-4.443655270E0,8.418570256E0
1.567216017E1,-1.556483198E0,6.942061175E0,-7.332789082E0,1.021688059E1
1.568219417E1,3.439504740E-1,7.534927912E0,-9.299706473E0,1.197405450E1
1.569222817E1,2.454066761E0,8.492863219E0,-1.083991687E1,1.398767197E1
1.570226217E1,3.857507569E0,9.537487006E0,-1.158695013E1,1.549520688E1
1.571229717E1,4.495825882E0,1.011683030E1,-1.113526207E1,1.570212620E1
1.572233117E1,4.820082641E0,1.017405934E1,-9.364102444E0,1.464346594E1
1.573236517E1,4.864287884E0,9.832385480E0,-6.590499088E0,1.279733484E1
1.574239917E1,5.215699990E0,9.497803123E0,-4.086820748E0,1.158075535E1
1.575243417E1,6.140342420E0,9.297401501E0,-1.854418278E0,1.129532411E1
1.576246817E1,7.712744079E0,9.359959107E0,-9.314135063E-1,1.216399551E1
1.577250217E1,9.303642819E0,9.247599596E0,-9.172867794E-1,1.314980163E1
1.578253617E1,1.030411194E1,8.983941625E0,-1.358975363E0,1.373800364E1
1.579257117E1,1.029866935E1,8.170030841E0,-1.429870953E0,1.322333261E1
1.580260517E1,9.519467642E0,6.983125001E0,-1.451640137E0,1.189502241E1
1.581263917E1,8.816370365E0,5.427878489E0,-2.122380968E0,1.056857381E1
1.582267317E1,8.301137111E0,3.866345050E0,-3.407476616E0,9.770793124E0
1.583270717E1,7.215338400E0,2.793976809E0,-4.292352718E0,8.848260083E0
1.584274217E1,3.472552033E0,2.441204349E0,-3.643569642E0,5.594076871E0
1.585277617E1,1.269270597E0,2.535102446E0,-2.082205188E0,3.517580234E0
1.586281017E1,-5.507638603E-1,1.314273400E0,-1.736394861E0,2.246268575E0
1.587284417E1,-2.668506964E0,-1.062836695E0,-7.960544108E-1,2.980646554E0
1.588287917E1,-4.683029461E0,-4.156792624E0,6.767520618E-1,6.298228577E0
1.589291317E1,-7.114945216E0,-7.544743048E0,1.471192787E0,1.047425421E1
1.590294717E1,-9.947680879E0,-1.138442363E1,2.513591709E0,1.532578218E1
1.591298117E1,-1.272854180E1,-1.557115399E1,3.829171962E0,2.047288868E1
1.592301617E1,-1.452929126E1,-1.949608230E1,5.027954081E0,2.482897202E1
1.593305017E1,-1.491020579E1,-2.235093505E1,5.976434441E0,2.752446735E1
1.594308417E1,-1.343331723E1,-2.294249786E1,6.933024888E0,2.747506240E1
1.595311817E1,-1.134109693E1,-2.077541917E1,7.502805063E0,2.483003433E1
1.596315217E1,-9.226436183E0,-1.683302055E1,7.154213362E0,2.048561628E1
1.597318717E1,-7.450207604E0,-1.389397608E1,6.487489859E0,1.704804063E1
1.598322117E1,-5.568632079E0,-1.200652059E1,5.688324584E0,1.440566682E1
1.599325517E1,-3.312928601E0,-1.052938645E1,4.662832301E0,1.198271589E1
1.600328917E1,-1.346987987E0,-9.026647350E0,3.980793187E0,9.956980135E0
1.601332417E1,1.281279901E-1,-7.324849148E0,3.302679309E0,8.036014089E0
1.602335817E1,1.315121246E0,-5.427714767E0,2.617968017E0,6.167932232E0
1.603339217E1,2.296131420E0,-3.477606366E0,1.774462574E0,4.529313741E0
1.604342617E1,3.010450088E0,-1.646456060E0,9.437414834E-1,3.558690107E0
1.605346117E1,3.539842668E0,2.198903918E-2,1.780553180E-1,3.544386171E0
1.606349517E1,4.002059510E0,1.398627672E0,-6.151956452E-1,4.283819017E0
1.607352917E1,4.912244115E0,2.576872031E0,-2.071791590E0,5.921379240E0
1.608356242E1,7.684932382E0,3.492310944E0,-5.494331510E0,1.007184691E1
1.609359742E1,9.995934441E0,4.783393702E0,-6.654519668E0,1.292602772E1
1.610363142E1,1.138866637E1,6.147431585E0,-6.605401302E0,1.453010540E1
1.611366542E1,1.204220030E1,7.117995708E0,-6.126573982E0,1.527139024E1
1.612369942E1,1.254751902E1,8.157562823E0,-5.562494257E0,1.596644629E1
1.613373442E1,1.318478600E1,8.916198124E0,-4.818844201E0,1.663004601E1
1.614376842E1,1.349834645E1,8.726981056E0,-4.130236325E0,1.659591538E1
1.615380242E1,1.237380526E1,7.346610146E0,-3.488865180E0,1.480729271E1
1.616383642E1,1.027142835E1,5.802868030E0,-2.854093788E0,1.213760145E1
1.617387042E1,8.595460219E0,4.657075717E0,-2.374600616E0,1.006026932E1
1.618390542E1,7.259864362E0,4.084395908E0,-2.120166482E0,8.595523626E0
1.619393942E1,6.198121682E0,4.020058994E0,-2.140247574E0,7.691439812E0
1.620397342E1,5.447783580E0,4.572063049E0,-2.303119866E0,7.475725221E0
1.621400742E1,5.333157688E0,5.608937522E0,-2.409146258E0,8.105969204E0
1.622404242E1,5.648572873E0,6.508815824E0,-2.280358556E0,8.914656139E0
1.623407642E1,5.694893931E0,6.917551986E0,-1.935173296E0,9.166746317E0
1.624411042E1,5.409085538E0,6.878828800E0,-1.635499547E0,8.902322775E0
1.625414442E1,4.847720675E0,6.565812728E0,-1.427737450E0,8.285452719E0
1.626417942E1,4.114220801E0,6.039478535E0,-1.333831751E0,7.428406351E0
1.627421342E1,3.205964023E0,5.238510563E0,-1.389519318E0,6.296900997E0
1.628424742E1,2.047794324E0,4.233174802E0,-2.291712679E0,5.231173626E0
1.629428142E1,1.512094061E0,1.869546048E0,-3.017826351E0,3.858614617E0
1.630431642E1,1.241000771E0,-7.591323137E-1,-2.358305595E-1,1.473764172E0
1.631435042E1,-4.272364596E-1,-2.232906062E0,1.742308881E0,2.864269665E0
1.632438442E1,-1.687897031E0,-4.302692934E0,2.178467315E0,5.109587333E0
1.633441842E1,-2.930467780E0,-6.891137774E0,2.863384429E0,8.017131134E0
1.634445242E1,-4.778855678E0,-1.032204769E1,3.985048206E0,1.205249930E1
1.635448742E1,-6.802147830E0,-1.400156485E1,5.460456251E0,1.649635159E1
1.636452142E1,-8.827421018E0,-1.740418243E1,6.867838959E0,2.068806757E1
1.637455542E1,-1.122287909E1,-2.088875224E1,7.626028701E0,2.490881970E1
1.638458942E1,-1.401093092E1,-2.436850512E1,8.301849886E0,2.930957077E1
1.639462442E1,-1.635496857E1,-2.679023707E1,8.870131420E0,3.261718919E1
1.640465842E1,-1.778608630E1,-2.690002673E1,7.857170305E0,3.319173736E1
1.641469242E1,-1.567964440E1,-2.193905718E1,5.154411814E0,2.745435193E1
1.642472642E1,-1.084096118E1,-1.416283105E1,3.333758429E0,1.814459060E1
1.643476142E1,-7.069070300E0,-8.286212093E0,2.271887695E0,1.112629945E1
1.644479542E1,-4.691431618E0,-4.030533112E0,1.331855392E0,6.326813303E0
1.645482942E1,-3.046315740E0,-8.691418290E-1,4.647244209E-1,3.201783236E0
1.646486342E1,-1.740371699E0,1.736080427E0,-8.294362380E-1,2.594384970E0
1.647489842E1,-2.659056401E-1,5.600328081E0,-8.195476170E0,9.929763848E0
1.648493242E1,1.999757693E0,9.070916035E0,-1.574132083E1,1.827757451E1
1.649496642E1,3.660368401E0,8.989996417E0,-1.176546328E1,1.525268693E1
1.650500042E1,4.120213320E0,8.701686586E0,-7.819143523E0,1.240300418E1
1.651503442E1,4.140102916E0,8.856225572E0,-4.863706378E0,1.091919517E1
1.652506942E1,4.166735814E0,9.253394771E0,-2.898301662E0,1.055401131E1
1.653510342E1,4.332074608E0,9.760262999E0,-1.716879925E0,1.081560358E1
1.654513742E1,4.766054369E0,1.030573162E1,-1.178702781E0,1.141545964E1
1.655517142E1,5.391076698E0,1.088965563E1,-3.348840737E-1,1.215567583E1
1.656520642E1,6.349933527E0,1.155625575E1,7.299090993E-1,1.320611487E1
1.657524042E1,7.711923714E0,1.228300619E1,1.722106751E0,1.460519291E1
1.658527442E1,8.810182257E0,1.232008572E1,2.625330831E0,1.537192849E1
1.659530842E1,9.565227367E0,1.193761700E1,3.342142167E0,1.565791137E1
1.660534342E1,1.017870437E1,1.144774195E1,4.086967514E0,1.585434079E1
1.661537742E1,1.019973680E1,1.072023489E1,4.248990351E0,1.539519360E1
1.662541142E1,9.364011812E0,9.776795416E0,3.932433790E0,1.409732178E1
1.663544542E1,7.760331059E0,8.718949320E0,3.311630226E0,1.213300087E1
1.664548042E1,6.245127448E0,7.829341067E0,2.740405204E0,1.038316036E1
1.665551442E1,5.131639248E0,7.076863469E0,2.233996568E0,9.022552776E0
1.666554842E1,4.311003581E0,6.502324246E0,1.720034498E0,7.988960580E0
1.667558242E1,3.745098941E0,6.087563113E0,1.235799673E0,7.253371048E0
1.668561742E1,3.243974433E0,5.660299464E0,7.596666761E-1,6.568063154E0
1.669565142E1,2.730538320E0,5.126897741E0,3.771583100E-1,5.820925043E0
1.670568542E1,1.890926392E0,4.099076512E0,4.623265143E-1,4.537816290E0
1.671571942E1,5.161126757E-1,2.206377245E0,9.750547850E-1,2.466820762E0
1.672575342E1,-1.480622007E0,-7.043474114E-1,1.538175566E0,2.248183906E0
1.673578842E1,-4.542377905E0,-5.196169705E0,2.023865179E0,7.192315823E0
