"Time (s)","Linear Acceleration x (m/s^2)","Linear Acceleration y (m/s^2)","Linear Acceleration z (m/s^2)","Absolute acceleration (m/s^2)"
7.309250068E-3,-4.470213908E-1,9.903902775E-1,-1.456497565E0,1.817164324E0
1.735725021E-2,-4.897583976E-1,1.051314172E0,-1.233492069E0,1.693111768E0
2.740525012E-2,-2.366151828E-1,7.206231362E-1,-2.758173431E0,2.860560281E0
3.745325003E-2,2.255937660E-1,9.218006837E-1,-2.634188778E0,2.799921350E0
4.750125017E-2,1.538714972E0,2.144581531E0,-9.244026947E-1,2.796675535E0
5.754925008E-2,5.598280971E0,4.323897277E0,-1.452785168E0,7.221317209E0
6.759724999E-2,3.606558229E0,6.267928081E0,-1.239472016E0,7.336925485E0
7.764525013E-2,2.816821296E0,7.060783042E0,-1.228673232E0,7.700569933E0
8.769425005E-2,2.790561158E0,6.910983224E0,-1.228790177E0,7.553730601E0
9.774225019E-2,2.544766432E0,6.816746573E0,-1.157115446E0,7.367685266E0
1.077906252E-1,2.140196119E0,6.606134543E0,-1.182577292E0,7.044142395E0
1.178386251E-1,1.814149235E0,6.318104208E0,-1.260058016E0,6.693080340E0
1.278866250E-1,1.692982647E0,6.028231416E0,-1.204104109E0,6.376176829E0
1.379346251E-1,1.665206034E0,5.778581035E0,-1.099456637E0,6.113404519E0
1.479826251E-1,1.801622745E0,5.461800526E0,-1.022143582E0,5.841394268E0
1.580306252E-1,2.399211400E0,5.431812496E0,-8.751872653E-1,6.002229176E0
1.680786251E-1,3.082751495E0,5.913916011E0,-9.011974347E-1,6.729778316E0
1.781266250E-1,3.310739988E0,6.720749910E0,-5.556848405E-1,7.512540466E0
1.881746252E-1,3.129387425E0,7.137275732E0,-4.551320636E-1,7.806466277E0
1.982226251E-1,2.627522952E0,7.530508001E0,-1.629519600E-1,7.977404400E0
2.082716250E-1,2.027282292E0,8.009111958E0,9.244214058E-2,8.262220851E0
2.183196251E-1,1.005367043E0,6.526612995E0,-2.036807589E-1,6.606733378E0
2.283676250E-1,-6.028756350E-1,-6.047757608E-1,-6.625152612E-1,1.080804896E0
2.384156252E-1,2.495040248E0,-8.456237429E0,-4.328763914E-1,8.827262275E0
2.484636251E-1,5.367031193E0,-1.928832956E1,-1.246138719E0,2.005984902E1
2.585116250E-1,8.591695781E0,-2.826705196E1,-1.823562959E0,2.960014940E1
2.685596251E-1,8.630106726E0,-3.062557551E1,-2.080451024E0,3.188624929E1
2.786076250E-1,4.915287591E0,-2.864828340E1,-3.723412641E-1,2.906927643E1
2.886556252E-1,-2.693744716E0,-2.518704748E1,7.189163339E-1,2.534088519E1
2.987036251E-1,-7.703619499E0,-1.903148710E1,3.930674144E-1,2.053528078E1
3.087516250E-1,-5.463388045E0,-9.141984263E0,-1.632671249E0,1.077451162E1
3.188006252E-1,-9.303917053E-1,-2.940711517E0,-2.711460317E0,4.106754193E0
3.288486251E-1,1.505340527E0,-7.109927720E-1,-1.297969608E0,2.110991693E0
3.388966252E-1,2.349834295E0,1.670464143E0,-1.041608378E-2,2.883102524E0
3.489446251E-1,2.311637944E0,4.529688277E0,1.515109324E0,5.306345459E0
3.589926250E-1,2.323615234E0,6.671338599E0,3.494824662E0,7.881608077E0
3.690406252E-1,2.268423512E0,7.765734470E0,5.191846858E0,9.612889831E0
3.790886251E-1,2.414719970E0,7.509778453E0,5.494892843E0,9.613609743E0
3.891366250E-1,2.134572559E0,6.161922739E0,4.418302327E0,7.876997354E0
3.991846251E-1,1.461081636E0,4.458924104E0,3.105985991E0,5.627069636E0
4.092326250E-1,1.097189379E0,2.957222300E0,2.107525971E0,3.793501546E0
4.192806252E-1,1.045294317E0,1.661983341E0,1.258381766E0,2.332027766E0
4.293296251E-1,1.046626751E0,5.828697520E-1,6.041050851E-1,1.341680908E0
4.393776250E-1,9.633214697E-1,-3.650042510E-1,-1.711596966E-2,1.030295741E0
4.494256251E-1,8.377940288E-1,-1.208765071E0,-5.810740721E-1,1.581347182E0
4.594736251E-1,7.924602735E-1,-1.932532255E0,-1.160810301E0,2.389593011E0
4.695216252E-1,7.000941467E-1,-2.595300116E0,-2.127148057E0,3.427896347E0
4.795696251E-1,4.786904955E-1,-2.765298555E0,-3.012859726E0,4.117443918E0
4.896176250E-1,-2.779251766E-1,-2.256031215E0,-2.245554759E0,3.195220716E0
4.996656252E-1,-1.156113233E0,-1.481762214E0,-1.287610096E0,2.278191570E0
5.097136251E-1,-1.466778432E0,-9.724328935E-1,-9.951896721E-1,2.021748546E0
5.197616252E-1,-1.319668333E0,-4.931652778E-1,-1.020786443E0,1.739753277E0
5.298096251E-1,-1.146999470E0,-5.518017411E-2,-1.067305137E0,1.567734956E0
5.398576250E-1,-1.060847764E0,3.288497472E-1,-1.068328984E0,1.541060334E0
5.499066252E-1,-1.027760417E0,6.006844640E-1,-1.096648804E0,1.618564766E0
5.599546251E-1,-1.026251543E0,7.964118218E-1,-1.101613675E0,1.703237126E0
5.700026250E-1,-1.121272014E0,7.466373986E-1,-1.056424053E0,1.711943374E0
5.800506251E-1,-1.228526321E0,5.676161206E-1,-1.005194843E0,1.685788140E0
5.900986250E-1,-1.296325956E0,3.379386592E-1,-8.991298592E-1,1.613411921E0
6.001466252E-1,-1.253155378E0,1.740932447E-1,-7.616208887E-1,1.476744134E0
6.101946251E-1,-1.198352349E0,9.543240666E-3,-7.055074990E-1,1.390640233E0
6.202426250E-1,-1.163767238E0,-1.814934808E-1,-7.987588942E-1,1.423133809E0
6.302906252E-1,-1.205140090E0,-3.860992509E-1,-7.444137025E-1,1.468191754E0
6.403386251E-1,-1.331396094E0,-5.384320825E-1,-2.582480900E-1,1.459183587E0
6.503866252E-1,-1.520988845E0,-6.662054390E-1,3.849759277E-1,1.704536072E0
6.604346251E-1,-1.679982825E0,-7.733615130E-1,8.318903875E-1,2.027923060E0
6.704836250E-1,-1.706026031E0,-8.138423717E-1,1.111100709E0,2.192580446E0
6.805316252E-1,-1.687973922E0,-8.297193164E-1,1.222782601E0,2.243409770E0
6.905796251E-1,-1.693810028E0,-8.324815410E-1,1.234535358E0,2.255237344E0
7.006276250E-1,-1.929210159E0,-8.275283647E-1,1.397735825E0,2.521967579E0
7.106756251E-1,-2.242333235E0,-7.003677964E-1,1.769749864E0,2.941188190E0
7.207236250E-1,-2.308985354E0,-5.446558589E-1,2.203939394E0,3.238118624E0
7.307716252E-1,-1.865983047E0,-4.062984574E-1,2.518751585E0,3.160867083E0
7.408196251E-1,-1.096818666E0,-4.016177613E-1,2.650111331E0,2.896100495E0
7.508676250E-1,-3.561407492E-1,-3.496249044E-1,2.629532640E0,2.676474493E0
7.609156251E-1,1.790914446E-1,-2.257691824E-1,2.437683156E0,2.454657743E0
7.709636251E-1,4.000305346E-1,-7.054958045E-2,2.166726691E0,2.204474138E0
7.810126252E-1,3.276879054E-1,4.474464834E-2,1.827478255E0,1.857164026E0
7.910606251E-1,2.016558498E-1,1.477369201E-1,1.524370290E0,1.544731711E0
8.011086250E-1,1.848883742E-1,2.041268831E-1,1.277645856E0,1.306992896E0
8.111566252E-1,1.332998523E-1,1.094528604E-1,1.041041637E0,1.055232898E0
8.212046251E-1,-8.112719357E-3,6.433632910E-2,8.467119098E-1,8.491914022E-1
8.312526252E-1,-1.525456703E-1,1.128880996E-1,6.625468361E-1,6.891895346E-1
8.413006251E-1,-2.778760600E-1,1.164701039E-1,4.561963300E-1,5.467133447E-1
8.513486250E-1,-4.020291129E-1,1.001897013E-1,2.787601590E-1,4.993722160E-1
8.613966252E-1,-5.713372886E-1,4.413829207E-2,1.509213138E-1,5.925805676E-1
8.714446251E-1,-7.111608794E-1,-9.782391787E-4,3.970493317E-2,7.122690749E-1
8.814926250E-1,-8.129793227E-1,-3.865711212E-2,-4.648419499E-2,8.152242218E-1
8.915406251E-1,-8.986126730E-1,-5.059654176E-2,-1.357770252E-1,9.102198343E-1
9.015896250E-1,-9.534700808E-1,-4.401023805E-2,-1.848538025E-1,9.722206665E-1
9.116376252E-1,-9.743566275E-1,-2.972198188E-2,-2.177198323E-1,9.988273920E-1
9.216856251E-1,-9.985667315E-1,-4.376465499E-2,-2.225508019E-1,1.024001817E0
9.317336250E-1,-1.038404396E0,-8.563598156E-2,-2.054723275E-1,1.061996276E0
9.417816252E-1,-1.061605271E0,-1.264863843E-1,-1.501132286E-1,1.079601102E0
9.518296251E-1,-1.072967581E0,-1.857438219E-1,-4.995510221E-2,1.090071424E0
9.618776252E-1,-1.067139661E0,-2.736795133E-1,9.122021869E-2,1.105445005E0
9.719256251E-1,-1.033709375E0,-3.612889302E-1,2.373664038E-1,1.120458644E0
9.819736250E-1,-9.866717407E-1,-4.367776537E-1,4.216706412E-1,1.158491248E0
9.920216252E-1,-9.987956500E-1,-4.337476265E-1,6.056323779E-1,1.246001738E0
1.002069625E0,-1.043601986E0,-4.443100369E-1,7.752424161E-1,1.373869469E0
1.012118625E0,-1.089650272E0,-5.139252323E-1,9.746384633E-1,1.549637697E0
1.022166625E0,-1.175307888E0,-5.837573594E-1,1.247438117E0,1.810586408E0
1.032214625E0,-1.284690874E0,-6.718322146E-1,1.521748399E0,2.101786705E0
1.042262625E0,-1.415936599E0,-7.792385495E-1,1.760395343E0,2.389786796E0
1.052310625E0,-1.578122282E0,-8.790961289E-1,1.942385398E0,2.652572520E0
1.062358625E0,-1.791318781E0,-9.626627809E-1,2.095140253E0,2.919786856E0
1.072406625E0,-2.051824810E0,-1.058052503E0,2.227425467E0,3.207940829E0
1.082454625E0,-2.378985881E0,-1.180540561E0,2.322581008E0,3.528120233E0
1.092502625E0,-2.600607926E0,-1.256577753E0,2.350348996E0,3.723746721E0
1.102550625E0,-2.749459618E0,-1.322768819E0,2.273626803E0,3.805078761E0
1.112598625E0,-2.779355554E0,-1.472745808E0,2.090615823E0,3.776833599E0
1.122646625E0,-2.771192549E0,-1.779944485E0,1.872873698E0,3.788847635E0
1.132695625E0,-2.721330125E0,-2.176849390E0,1.592009711E0,3.831292972E0
1.142743625E0,-2.717084754E0,-2.585353417E0,1.344730815E0,3.984332167E0
1.152791625E0,-2.815634896E0,-2.924265638E0,1.131965840E0,4.214317982E0
1.162839625E0,-2.979351380E0,-3.174603651E0,9.908437291E-1,4.465021196E0
1.172887625E0,-3.195205731E0,-3.364193771E0,9.553346117E-1,4.737066984E0
1.182935625E0,-3.419052056E0,-3.480728779E0,1.084416283E0,4.998134499E0
1.192983625E0,-3.690345613E0,-3.434468533E0,1.410867648E0,5.234956769E0
1.203031625E0,-3.746262537E0,-2.974134201E0,2.044724682E0,5.202005024E0
1.213079625E0,-3.192340010E0,-2.253985274E0,2.973391020E0,4.910451967E0
1.223127625E0,-2.166443685E0,-1.657859300E0,4.093780689E0,4.919452818E0
1.233175625E0,-9.989450464E-1,-1.312108176E0,5.160761890E0,5.417839270E0
1.243223625E0,6.740874857E-2,-1.295669898E0,5.587751305E0,5.736398615E0
1.253272625E0,9.345809430E-1,-1.484110456E0,4.955240446E0,5.256465853E0
1.263320625E0,1.661595963E0,-1.631198920E0,3.409836552E0,4.129006705E0
1.273368625E0,2.266429319E0,-1.648723025E0,1.642363594E0,3.248437724E0
1.283416625E0,2.846007966E0,-1.611501989E0,2.546906805E-1,3.280482791E0
1.293464625E0,3.082261790E0,-1.580937424E0,-5.622776127E-1,3.509395531E0
1.303512625E0,3.165740442E0,-1.569997868E0,-1.330677763E0,3.775911699E0
1.313560625E0,3.347606098E0,-1.597818335E0,-2.229073212E0,4.327615672E0
1.323608625E0,3.375766581E0,-1.729828584E0,-2.779280418E0,4.702393707E0
1.333656625E0,3.340643233E0,-1.863270816E0,-3.004654328E0,4.864115848E0
1.343704625E0,3.404193404E0,-1.708214936E0,-3.316149539E0,5.050087006E0
1.353752625E0,2.994060343E0,-1.369300377E0,-3.429190836E0,4.753812223E0
1.363800625E0,1.946472748E0,-1.158869610E0,-3.256051272E0,3.966560830E0
1.373849625E0,1.297250693E0,-8.949929541E-1,-2.852740742E0,3.259141220E0
1.383897625E0,2.787692222E-1,-6.127589643E-1,-2.241042901E0,2.339969896E0
1.393945625E0,-1.410265239E0,-4.459197754E-1,-6.282915080E-1,1.606998043E0
1.403993625E0,-3.029092181E0,-6.376049531E-1,1.426121280E0,3.408190344E0
1.414041625E0,-3.542444386E0,-7.766002858E-1,1.569918931E0,3.951792718E0
1.424089625E0,-3.084319133E0,-8.712415642E-1,-6.297685146E-2,3.205628248E0
1.434137625E0,-1.795752140E0,-7.344722664E-1,-1.322607436E0,2.348077019E0
1.444185625E0,-4.400243202E-1,-4.144073761E-1,-1.421043558E0,1.544253758E0
1.454233625E0,-1.393583717E-1,-1.942462581E-1,-1.347352853E0,1.368397630E0
1.464281625E0,-1.103112316E-1,-1.955151039E-1,-1.996094559E0,2.008678225E0
1.474329625E0,3.314864029E-1,5.492114246E-2,-2.765337732E0,2.785676280E0
1.484377625E0,8.414849375E-1,5.498458475E-1,-2.747176280E0,2.925304235E0
1.494426625E0,1.248551865E0,1.022647612E0,-2.457697590E0,2.940232532E0
1.504474625E0,1.520371379E0,1.433701025E0,-2.263062638E0,3.080337687E0
1.514522625E0,1.680634059E0,1.468628199E0,-2.357713711E0,3.246569507E0
1.524570625E0,1.669976192E0,1.643607296E0,-2.340613528E0,3.311908380E0
1.534618625E0,1.888273803E0,1.999136134E0,-2.322072592E0,3.599186625E0
1.544666625E0,2.140394340E0,2.381734073E0,-2.444985451E0,4.028883093E0
1.554714625E0,2.345392604E0,2.731619178E0,-2.486771408E0,4.375687584E0
1.564762625E0,2.426839933E0,2.951334738E0,-2.538275145E0,4.587239857E0
1.574810625E0,2.374616403E0,3.107954164E0,-2.436545287E0,4.608137919E0
1.584858625E0,2.268633134E0,3.310126907E0,-2.265438216E0,4.608236837E0
1.594906625E0,2.254006617E0,3.479055306E0,-2.066966613E0,4.632140179E0
1.604955625E0,2.257262054E0,3.562877482E0,-1.973634088E0,4.656668277E0
1.615003625E0,2.235646652E0,3.707618288E0,-1.760300179E0,4.673671581E0
1.625051625E0,2.103656430E0,3.879453923E0,-1.456278441E0,4.647179791E0
1.635099625E0,2.042828722E0,3.820266067E0,-1.141171843E0,4.479939195E0
1.645147625E0,1.994608928E0,3.796478425E0,-8.311606550E-1,4.368356812E0
1.655195625E0,1.765570859E0,3.824293045E0,-4.596876293E-1,4.237188982E0
1.665243625E0,1.435366458E0,3.762026045E0,-1.837300408E-1,4.030741069E0
1.675291625E0,1.079370647E0,3.617654198E0,3.174731120E-2,3.775376906E0
1.685339625E0,7.128230967E-1,3.400230162E0,2.125730400E-1,3.480642069E0
1.695387625E0,3.671340993E-1,3.091448058E0,3.727195059E-1,3.135404021E0
1.705435625E0,-7.402998939E-2,2.633348533E0,5.497201324E-1,2.691133062E0
1.715483625E0,-3.720952425E-1,2.158047668E0,7.883385712E-1,2.327466930E0
1.725532625E0,-8.040390761E-1,1.477742254E0,1.085771082E0,2.002273669E0
1.735580625E0,-1.312498916E0,5.553609413E-1,1.532690293E0,2.092897206E0
1.745628625E0,-1.805046289E0,-6.490643263E-1,2.165455944E0,2.892866408E0
1.755676625E0,-2.401838847E0,-2.103322408E0,2.810867661E0,4.253677468E0
1.765724625E0,-3.094015571E0,-3.478577004E0,3.405982068E0,5.768374483E0
1.775772625E0,-3.986543047E0,-4.629396168E0,3.913170138E0,7.255117840E0
1.785820625E0,-4.743867694E0,-5.475073121E0,4.088124093E0,8.318260934E0
1.795868625E0,-5.087210934E0,-5.855964841E0,3.750003000E0,8.615948109E0
1.805916625E0,-5.184344296E0,-5.723551719E0,3.239953887E0,8.374590811E0
1.815964625E0,-4.412624681E0,-5.180690371E0,3.255066016E0,7.543624067E0
1.826012625E0,-2.856352567E0,-4.683544309E0,3.676834452E0,6.604047915E0
1.836060625E0,-1.610708668E0,-4.266897449E0,3.722352102E0,5.886994261E0
1.846109625E0,-6.287991194E-1,-3.269672946E0,2.898258392E0,4.414300761E0
1.856157625E0,-2.396510571E-2,-1.660212219E0,1.831776543E0,2.472303429E0
1.866205625E0,2.815194601E-1,2.014102668E-1,1.102626997E0,1.155684039E0
1.876253625E0,4.271316482E-1,1.982810708E0,7.800980902E-1,2.173138923E0
1.886301625E0,2.622295687E-1,3.615797707E0,4.471071987E-1,3.652760908E0
1.896349625E0,-3.225740768E-2,4.897668176E0,-2.745472401E-2,4.897851352E0
1.906397625E0,-1.672357763E-1,5.274323589E0,-3.615329053E-1,5.289344304E0
1.916445625E0,2.182482744E-1,4.392833610E0,-7.283578330E-1,4.458152596E0
1.926493625E0,1.141615354E0,3.023344368E0,-1.118340805E0,3.419734338E0
1.936541625E0,2.377578895E0,1.692818048E0,-1.344403956E0,3.213399499E0
1.946589625E0,3.484401416E0,4.214567792E-1,-1.036702564E0,3.659703711E0
1.956637625E0,4.030411197E0,-8.573789853E-1,-3.759065308E-1,4.137706957E0
1.966686625E0,3.656867380E0,-2.253242678E0,-2.001602782E-1,4.299982063E0
1.976734625E0,2.852519717E0,-3.679356941E0,-2.256658329E-1,4.661057960E0
1.986782625E0,1.925905167E0,-5.042956282E0,2.681971639E-1,5.404854161E0
1.996830625E0,1.375240417E0,-6.393629769E0,6.555477190E-1,6.572634985E0
2.006878625E0,1.904795695E0,-7.037007678E0,5.656216353E-1,7.312157789E0
2.016926625E0,2.587366029E0,-6.351271369E0,4.847970352E-2,6.858240391E0
2.026974625E0,2.614568153E0,-4.101263371E0,-1.240199118E0,5.019404518E0
2.037022625E0,2.476709227E0,-9.292629004E-1,-2.859507725E0,3.895433552E0
2.047070625E0,2.375649898E0,1.900473141E0,-3.532462605E0,4.661952665E0
2.057118625E0,2.117062049E0,3.923436679E0,-3.061311509E0,5.408043569E0
2.067166625E0,1.770432381E0,5.288263936E0,-2.369356540E0,6.059209246E0
2.077214625E0,1.421350975E0,6.058463275E0,-1.960788194E0,6.524561762E0
2.087263625E0,1.110678759E0,6.301940165E0,-1.882950205E0,6.670349213E0
2.097311625E0,7.849699903E-1,5.697424605E0,-2.132497090E0,6.133870626E0
2.107359500E0,1.103603921E0,4.299331369E0,-2.305577743E0,5.001787737E0
2.117407500E0,1.970687238E0,2.411817412E0,-2.412306240E0,3.939504133E0
2.127455500E0,2.720490757E0,4.883559430E-1,-2.637851474E0,3.820709605E0
2.137503500E0,3.253686951E0,-1.250185577E0,-2.957408826E0,4.571182529E0
2.147551500E0,3.516910473E0,-2.650649859E0,-3.301366024E0,5.503964169E0
2.157599500E0,3.385758888E0,-3.428519576E0,-3.631530225E0,6.033748545E0
2.167647500E0,2.615663922E0,-3.284587439E0,-3.734778020E0,5.619499911E0
2.177695500E0,1.559955860E0,-2.267288859E0,-3.496731439E0,4.449853010E0
2.187743500E0,8.618336865E-1,-8.942000717E-1,-3.141411932E0,3.377990526E0
2.197791500E0,2.735152066E-1,5.249332005E-1,-2.750337285E0,2.813311325E0
2.207840500E0,-5.529767391E-1,1.357596005E0,-2.072925218E0,2.538871629E0
2.217888500E0,-1.377621549E0,1.133435392E0,-1.187508103E0,2.143056793E0
2.227936500E0,-1.881198379E0,8.415985197E-1,-6.295854968E-1,2.154895197E0
2.237984500E0,-1.944899409E0,6.981037545E-1,-2.457526997E-1,2.080955778E0
2.248032500E0,-1.869891034E0,3.725904286E-1,2.376951635E-2,1.906798651E0
2.258080500E0,-1.944966359E0,-6.982452571E-2,2.909774045E-1,1.967850973E0
2.268128500E0,-2.130272809E0,-6.504249734E-1,5.444570170E-1,2.292934437E0
2.278176500E0,-2.350629224E0,-1.268993731E0,5.993085410E-1,2.737694937E0
2.288224500E0,-2.438536557E0,-1.255450410E0,5.411131040E-1,2.795607208E0
2.298272500E0,-2.360953068E0,-8.148738205E-1,4.971308595E-1,2.546616937E0
2.308320500E0,-2.157503293E0,-5.178218168E-1,4.689806092E-1,2.267796883E0
2.318369500E0,-1.909891836E0,-3.544108504E-1,4.548221612E-1,1.995033101E0
2.328417500E0,-1.692570418E0,-4.130958456E-1,4.247090006E-1,1.793270904E0
2.338465500E0,-1.506742981E0,-3.582799530E-1,4.375395459E-1,1.609372484E0
2.348513500E0,-1.338383224E0,-2.555999225E-1,4.775707537E-1,1.443840296E0
2.358561500E0,-1.337349729E0,-1.870003885E-1,5.589809525E-1,1.461483201E0
2.368609500E0,-1.434519928E0,-5.241093278E-2,6.385171187E-1,1.571081933E0
2.378657500E0,-1.565314541E0,6.964384675E-2,6.619843340E-1,1.700965354E0
2.388705500E0,-1.516485320E0,2.443422782E-1,6.564973068E-1,1.670454904E0
2.398753500E0,-1.372891444E0,3.186574656E-1,6.841710091E-1,1.566672738E0
2.408801500E0,-1.208678532E0,2.638561910E-1,6.860796133E-1,1.414648055E0
2.418849500E0,-1.045185705E0,1.778600210E-1,6.363279212E-1,1.236511451E0
2.428897500E0,-9.862981036E-1,8.871337116E-2,5.963178364E-1,1.155962358E0
2.438945500E0,-9.303782567E-1,-1.096627754E-1,5.115705585E-1,1.067395925E0
2.448994500E0,-8.946508920E-1,-2.813972533E-1,4.465623844E-1,1.038750497E0
2.459042500E0,-7.925342408E-1,-3.418808520E-1,3.677571932E-1,9.382102072E-1
2.469090500E0,-7.360632938E-1,-2.724966216E-1,2.783076576E-1,8.327657135E-1
2.479138500E0,-6.555453801E-1,-8.771525145E-2,2.734637511E-1,7.156927650E-1
2.489186500E0,-6.469733620E-1,1.457465279E-1,3.406459931E-1,7.455576934E-1
2.499234500E0,-6.654958794E-1,2.831362152E-1,4.347638726E-1,8.438427026E-1
2.509282500E0,-6.603889212E-1,3.668046087E-1,5.535021114E-1,9.364954541E-1
2.519330500E0,-6.959087098E-1,3.821617359E-1,7.280345551E-1,1.077205105E0
2.529378500E0,-7.058662257E-1,2.877917683E-1,9.017505813E-1,1.180773196E0
2.539426500E0,-7.275605652E-1,1.667848098E-1,1.014597239E0,1.259590848E0
2.549474500E0,-7.177357811E-1,9.699419796E-2,1.120998072E0,1.334612005E0
2.559523500E0,-7.200121021E-1,1.774688423E-2,1.309082973E0,1.494132058E0
2.569571500E0,-8.609539729E-1,-4.282793105E-2,1.633789383E0,1.847253021E0
2.579619500E0,-1.147848778E0,-1.294327962E-1,2.028549968E0,2.334378855E0
2.589667500E0,-1.606747326E0,-3.496909779E-1,2.339664964E0,2.859712030E0
2.599715500E0,-2.131102529E0,-6.855813575E-1,2.486916711E0,3.346098402E0
2.609763500E0,-2.520061361E0,-1.084978346E0,2.453623835E0,3.680782145E0
2.619811500E0,-2.635512587E0,-1.504930637E0,2.259548900E0,3.783689212E0
2.629859500E0,-2.613454259E0,-1.885671499E0,1.989819035E0,3.787516331E0
2.639907500E0,-2.698581825E0,-2.042977973E0,1.801852248E0,3.834419693E0
2.649955500E0,-2.883429269E0,-2.055246016E0,1.649879751E0,3.906443872E0
2.660003500E0,-3.004079839E0,-1.947392369E0,1.496221940E0,3.880143401E0
2.670051500E0,-3.166571623E0,-1.963816028E0,1.338034730E0,3.959051171E0
2.680100500E0,-3.300236927E0,-2.120005099E0,1.196257584E0,4.100855715E0
2.690148500E0,-3.418675203E0,-2.565047207E0,1.132305271E0,4.421416351E0
2.700196500E0,-3.500390919E0,-3.404798591E0,1.063912582E0,4.997729486E0
2.710244500E0,-3.541719624E0,-4.357868430E0,9.719791496E-1,5.699082261E0
2.720292500E0,-3.714470056E0,-5.182655620E0,8.626749547E-1,6.434393145E0
2.730340500E0,-4.142038052E0,-5.833469433E0,7.590796888E-1,7.194584549E0
2.740388500E0,-4.748125051E0,-6.341001905E0,7.123276913E-1,7.953641141E0
2.750436500E0,-5.377712302E0,-6.529309146E0,1.068091149E0,8.525988871E0
2.760484500E0,-5.774662231E0,-5.984483718E0,2.207793148E0,8.604366324E0
2.770532500E0,-5.282597984E0,-4.369084559E0,4.148379650E0,8.012727068E0
2.780580500E0,-3.842915842E0,-2.848383982E0,5.902509263E0,7.597427793E0
2.790628500E0,-2.314603944E0,-1.790952453E0,6.211786040E0,6.866672259E0
2.800677500E0,-9.968119821E-1,-1.210524498E0,4.962174075E0,5.204053731E0
2.810725500E0,1.849711123E-1,-1.152310204E0,2.854318321E0,3.083693596E0
2.820773500E0,1.203995205E0,-1.702888708E0,1.077723706E0,2.347535471E0
2.830821500E0,2.305968483E0,-2.457349096E0,-7.209850788E-2,3.370645846E0
2.840869500E0,3.414647056E0,-3.157516918E0,-9.184122223E-1,4.740591589E0
2.850917500E0,4.430316894E0,-3.844157206E0,-1.614298128E0,6.083683987E0
2.860965500E0,4.983791231E0,-4.055368575E0,-2.134231959E0,6.770460499E0
2.871013500E0,5.461380111E0,-3.960351906E0,-2.740102319E0,7.281429849E0
2.881061500E0,5.807075686E0,-3.744255188E0,-3.447247623E0,7.721728505E0
2.891109500E0,5.790042747E0,-3.147581913E0,-3.922422772E0,7.669241639E0
2.901157500E0,5.229394754E0,-2.488632869E0,-4.690554243E0,7.452594324E0
2.911205500E0,3.298856399E0,-1.875104411E0,-5.176602582E0,6.418386432E0
2.921254500E0,1.468343293E0,-1.146302775E0,-3.963958468E0,4.379841186E0
2.931302500E0,-2.417851447E-1,-4.778303701E-1,-1.797383806E0,1.875465399E0
2.941350500E0,-1.563060293E0,-2.533499140E-1,-1.187703985E-1,1.587907449E0
2.951398500E0,-2.084859970E0,-6.574445558E-1,-4.552074927E-1,2.232955060E0
2.961446500E0,-1.840733454E0,-1.187163702E0,-9.473625179E-1,2.386451979E0
2.971494500E0,-8.501943652E-1,-1.301607746E0,-5.672354668E-1,1.654922735E0
2.981542500E0,4.252212167E-1,-9.941061831E-1,-9.838940209E-1,1.461884958E0
2.991590500E0,1.154554292E0,-5.289525765E-1,-1.774454534E0,2.182080506E0
3.001638500E0,9.850035301E-1,-7.767265856E-2,-2.523757678E0,2.710280025E0
3.011686500E0,1.373373840E0,4.287576127E-1,-3.346117104E0,3.642319106E0
3.021734500E0,1.960805443E0,1.034090028E0,-3.970045420E0,4.547016693E0
3.031782500E0,2.483225072E0,1.522848260E0,-3.972653278E0,4.926200123E0
3.041831500E0,2.739053328E0,1.824943487E0,-3.915455230E0,5.115038761E0
3.051879500E0,2.897132218E0,1.988907015E0,-3.871359038E0,5.228436383E0
3.061927500E0,2.845209236E0,2.530436953E0,-3.786363619E0,5.369811563E0
3.071975500E0,2.738487610E0,3.118975580E0,-3.831696789E0,5.648824953E0
3.082023500E0,2.923496729E0,3.453225816E0,-3.772142898E0,5.890726925E0
3.092071500E0,2.912209849E0,3.628418337E0,-3.652419988E0,5.914943584E0
3.102119500E0,2.918094779E0,3.771336567E0,-3.513083763E0,5.922838353E0
3.112167000E0,3.146897789E0,3.846228874E0,-3.479870993E0,6.066790286E0
3.122215000E0,3.309811450E0,3.842925782E0,-3.385576454E0,6.097955258E0
3.132263000E0,3.397310939E0,3.812872848E0,-3.312093618E0,6.086845251E0
3.142311000E0,3.423537748E0,3.669572210E0,-3.254341546E0,5.981396979E0
3.152359000E0,3.383978118E0,3.447070452E0,-2.996565290E0,5.684453020E0
3.162408000E0,3.436601889E0,3.268581855E0,-2.494884127E0,5.358946417E0
3.172456000E0,3.455106280E0,3.157940256E0,-1.959592146E0,5.074480017E0
3.182504000E0,3.401183550E0,3.183644031E0,-1.384069420E0,4.859967800E0
3.192552000E0,3.311454810E0,3.253537554E0,-8.324289161E-1,4.716373339E0
3.202600000E0,3.320120091E0,3.254556139E0,-3.918068643E-1,4.665709560E0
3.212648000E0,3.234585851E0,3.290419452E0,-1.661910251E-2,4.614074337E0
3.222696000E0,3.001177574E0,3.388221150E0,1.443969905E-1,4.528571506E0
3.232744000E0,2.596337412E0,3.521239459E0,3.052255341E-1,4.385573841E0
3.242792000E0,2.131751132E0,3.589277076E0,5.828378847E-1,4.215088707E0
3.252840000E0,1.444012590E0,3.343761846E0,9.591217071E-1,3.766408115E0
3.262888000E0,8.378595176E-1,2.670119333E0,1.367639768E0,3.114800854E0
3.272936000E0,1.799079717E-1,1.836568336E0,1.540977552E0,2.404155142E0
3.282985000E0,-5.340001854E-1,9.890810859E-1,1.280714329E0,1.704014901E0
3.293033000E0,-1.243957416E0,3.698305428E-2,8.458685951E-1,1.504756285E0
3.303081000E0,-1.838997270E0,-1.151065332E0,1.122247037E0,2.442601230E0
3.313129000E0,-2.523387550E0,-2.373344488E0,2.057892466E0,4.029289042E0
3.323177000E0,-3.378893672E0,-3.500154399E0,2.610219871E0,5.520982797E0
3.333225000E0,-3.993972811E0,-4.302825081E0,2.545731515E0,6.398974249E0
3.343273000E0,-4.269053610E0,-4.718970249E0,2.300974669E0,6.766681858E0
3.353321000E0,-4.226432378E0,-4.776957087E0,2.213919714E0,6.751554647E0
3.363369000E0,-4.065530452E0,-4.479206341E0,2.361842283E0,6.493852960E0
3.373417000E0,-3.749018914E0,-3.946167145E0,2.756772730E0,6.101407530E0
3.383465000E0,-3.776246474E0,-3.502230161E0,3.082483692E0,6.002279504E0
3.393513000E0,-2.877907743E0,-2.890248876E0,2.904321370E0,5.007092386E0
3.403562000E0,-1.822998703E0,-1.970405256E0,2.344142908E0,3.563821981E0
3.413610000E0,-9.722501680E-1,-7.765950233E-1,2.036912656E0,2.386919225E0
3.423658000E0,-1.754975266E-1,4.456794548E-1,1.964947026E0,2.022485197E0
3.433706000E0,6.270850081E-1,1.459452748E0,1.806181526E0,2.405312794E0
3.443754000E0,1.686451307E0,1.644039990E0,1.358131464E0,2.718732531E0
3.453802000E0,2.873437254E0,7.172984093E-1,6.513639631E-1,3.032397348E0
3.463850000E0,3.957516299E0,-5.677470982E-2,1.756813484E-1,3.961820611E0
3.473898000E0,4.891533278E0,-9.035591251E-1,-4.863670126E-2,4.974523337E0
3.483946000E0,5.373628607E0,-2.076331660E0,-5.711286892E-1,5.789060852E0
3.493994000E0,5.190610757E0,-3.707770901E0,-1.034749594E0,6.462252843E0
3.504042000E0,4.394212968E0,-5.879226819E0,-3.063777280E-1,7.346310837E0
3.514090000E0,1.992012910E0,-7.386927867E0,1.336795120E0,7.766713587E0
3.524139000E0,2.126976588E-1,-5.570571016E0,-1.288708788E-1,5.576119569E0
3.534187000E0,1.008937865E0,-1.870562294E0,-2.331677229E0,3.154944946E0
3.544235000E0,1.985189502E0,1.013414859E0,-2.967647300E0,3.711457602E0
3.554283000E0,2.005885283E0,2.774155918E0,-2.961762663E0,4.526759867E0
3.564331000E0,2.004959376E0,4.007851177E0,-2.478195004E0,5.120955345E0
3.574379000E0,1.782594151E0,4.849762523E0,-1.989236214E0,5.536686658E0
3.584427000E0,1.397887414E0,5.255044150E0,-1.718541119E0,5.702890654E0
3.594475000E0,1.042295718E0,5.056176837E0,-1.592903166E0,5.402651670E0
3.604523000E0,9.926943728E-1,4.385761988E0,-1.486103772E0,4.735911185E0
3.614571000E0,1.449790370E0,3.304256887E0,-1.395236287E0,3.868680652E0
3.624619000E0,2.132984602E0,1.988838018E0,-1.379307886E0,3.226079698E0
3.634667000E0,2.703102307E0,6.510962337E-1,-1.487345136E0,3.153233886E0
3.644716000E0,3.047424372E0,-6.007452750E-1,-1.661251854E0,3.522420746E0
3.654764000E0,3.162055819E0,-1.686009550E0,-1.881440454E0,4.047350168E0
3.664812000E0,2.973795063E0,-2.374013409E0,-2.076851478E0,4.335055802E0
3.674860000E0,2.393277500E0,-2.480028691E0,-2.145666189E0,4.059827939E0
3.684908000E0,1.654615995E0,-1.971863551E0,-2.114944333E0,3.331514594E0
3.694956000E0,1.100932036E0,-1.029731514E0,-2.184793417E0,2.654377632E0
3.705004000E0,7.718219411E-1,7.440581918E-3,-2.195546008E0,2.327270235E0
3.715052000E0,5.000323941E-1,7.362767172E-1,-2.198825566E0,2.372123451E0
3.725100000E0,1.127541983E-1,1.150973530E0,-2.426471850E0,2.687976789E0
3.735148000E0,-5.582997519E-1,1.067030318E0,-2.300625590E0,2.596753823E0
3.745196000E0,-1.296601945E0,6.546846700E-1,-1.684624345E0,2.224353345E0
3.755244000E0,-1.721573193E0,4.146167064E-1,-1.072094591E0,2.070050261E0
3.765293000E0,-1.789105902E0,2.909135967E-1,-6.764216942E-1,1.934703326E0
3.775341000E0,-1.618102619E0,1.760438758E-1,-4.601028182E-1,1.691431977E0
3.785389000E0,-1.384251415E0,5.104794681E-2,-3.791177120E-1,1.436136523E0
3.795437000E0,-1.226504062E0,-3.149251878E-2,-2.987780653E-1,1.262763764E0
3.805485000E0,-1.177446507E0,-3.309804726E-1,-3.390051913E-1,1.269193787E0
3.815533000E0,-1.264139665E0,-7.194069153E-1,-2.996084064E-1,1.485045656E0
3.825581000E0,-1.351644709E0,-9.735263228E-1,-2.190589178E-1,1.680084441E0
3.835629000E0,-1.393545272E0,-1.021082312E0,-4.853188992E-3,1.727599799E0
3.845677000E0,-1.467682119E0,-9.408538359E-1,1.660047913E-1,1.751243653E0
3.855725000E0,-1.650711371E0,-7.328063947E-1,2.145904573E-1,1.818763950E0
3.865773000E0,-1.846822599E0,-4.521581697E-1,1.447969401E-1,1.906873587E0
3.875821000E0,-2.106113576E0,-2.597479373E-1,-1.090108109E-1,2.124868641E0
3.885869000E0,-2.314182360E0,-2.070136535E-1,-5.656035089E-1,2.391276223E0
3.895918000E0,-2.359647677E0,-2.711885995E-1,-7.956645477E-1,2.504907681E0
3.905966000E0,-2.157955867E0,-2.403737730E-1,-5.948687502E-1,2.251315594E0
3.916014000E0,-1.774836942E0,-6.968185365E-2,-9.114288926E-2,1.778541188E0
3.926062000E0,-1.336108072E0,2.256808895E-1,4.910305325E-1,1.441259043E0
3.936110000E0,-7.704259184E-1,4.424652404E-1,1.110461097E0,1.422130596E0
3.946158000E0,-7.197542399E-2,6.036045635E-1,1.974384871E0,2.065844754E0
3.956206000E0,6.606438598E-1,6.834675890E-1,2.825788586E0,2.981385481E0
3.966254000E0,1.415101617E0,7.916720688E-1,3.453583081E0,3.815297282E0
3.976302000E0,1.962664419E0,8.684857714E-1,3.787542125E0,4.353365882E0
3.986350000E0,2.143098384E0,9.780742872E-1,3.608080552E0,4.309030664E0
3.996398000E0,1.961370430E0,1.202282848E0,3.186285803E0,3.929996849E0
4.006447000E0,1.581961856E0,1.330594148E0,2.666327999E0,3.373779646E0
4.016495000E0,1.182230991E0,1.419017497E0,2.146554820E0,2.831780071E0
4.026543000E0,8.667520720E-1,1.338980809E0,1.733203451E0,2.355445386E0
4.036591000E0,7.414491642E-1,9.982237923E-1,1.463921775E0,1.920745836E0
4.046639000E0,6.592785349E-1,4.417910564E-1,1.344327503E0,1.561103443E0
4.056687000E0,5.250937065E-1,-9.098033667E-2,1.202177159E0,1.315002184E0
4.066735000E0,3.121881062E-1,-4.854130393E-1,1.138257737E0,1.276212329E0
4.076783000E0,3.873663425E-2,-7.393909442E-1,1.115411788E0,1.338784132E0
4.086831000E0,-2.982688093E-1,-8.535712785E-1,9.869983077E-1,1.338549166E0
4.096879000E0,-7.867624542E-1,-8.566422361E-1,8.768179075E-1,1.456585295E0
4.106927250E0,-1.446410533E0,-7.830760771E-1,8.257661600E-1,1.840435091E0
4.116975250E0,-1.953766126E0,-6.524223822E-1,7.752777918E-1,2.200889069E0
4.127023250E0,-2.358634355E0,-4.458367449E-1,6.540673502E-1,2.487916904E0
4.137072250E0,-2.678508918E0,-3.366312218E-1,4.155816431E-1,2.731380367E0
4.147120250E0,-2.998750102E0,-3.875008285E-1,1.534999359E-1,3.027576803E0
4.157168250E0,-3.287119575E0,-6.111001092E-1,-1.633619960E-1,3.347429699E0
4.167216250E0,-3.540870901E0,-9.197296000E-1,-4.941531649E-1,3.691592695E0
4.177264250E0,-3.769724489E0,-1.237607047E0,-6.291253209E-1,4.017249382E0
4.187312250E0,-3.780494476E0,-1.666451783E0,-6.110537700E-1,4.176432298E0
4.197360250E0,-3.573757688E0,-2.090202425E0,-5.154143719E-1,4.172090863E0
4.207408250E0,-3.419427155E0,-2.412379915E0,-4.044646244E-1,4.204241971E0
4.217456250E0,-3.212060330E0,-2.596515167E0,-2.842473324E-1,4.140050618E0
4.227504250E0,-3.007616235E0,-2.562479110E0,-1.154999046E-1,3.952897018E0
4.237552250E0,-3.114876097E0,-2.336891191E0,2.362614262E-1,3.901196355E0
4.247600250E0,-3.292956558E0,-2.092164166E0,7.120458555E-1,3.965819347E0
4.257649250E0,-3.515130288E0,-2.066017172E0,1.333030975E0,4.289701560E0
4.267697250E0,-3.818115169E0,-2.558184330E0,2.006329379E0,5.014745067E0
4.277745250E0,-4.062930195E0,-3.449017575E0,2.463324366E0,5.871208643E0
4.287793250E0,-4.195809340E0,-4.236272657E0,2.688123203E0,6.540399712E0
4.297841250E0,-4.391580844E0,-4.789029833E0,2.854993089E0,7.097307560E0
4.307889250E0,-4.420509067E0,-5.343288574E0,3.080890034E0,7.588380367E0
4.317937250E0,-4.128938535E0,-6.009312165E0,3.332066245E0,8.016397669E0
4.327985250E0,-3.410171013E0,-6.175689424E0,3.833542463E0,8.028975900E0
4.338033250E0,-2.211952272E0,-5.416637802E0,4.683111030E0,7.494279608E0
4.348081250E0,-4.630398381E-1,-4.282190257E0,5.708454208E0,7.151084445E0
4.358129250E0,1.317191160E0,-3.370914561E0,6.201623579E0,7.180403370E0
4.368177250E0,2.531411684E0,-3.085496762E0,5.210581337E0,6.563420850E0
4.378226250E0,3.324300558E0,-3.705336120E0,3.117551783E0,5.873637636E0
4.388274250E0,3.990575871E0,-4.616926396E0,9.855658130E-1,6.181589205E0
4.398322250E0,4.854060519E0,-5.102413110E0,-4.096348786E-1,7.054383304E0
4.408370250E0,5.744031592E0,-5.161600966E0,-1.151653562E0,7.807837690E0
4.418418250E0,6.234585503E0,-4.556121785E0,-1.310944580E0,7.832424772E0
4.428466250E0,5.701380247E0,-3.407785349E0,-9.612027311E-1,6.711382003E0
4.438514250E0,4.540077610E0,-1.879543617E0,-4.681532282E-1,4.936006114E0
4.448562250E0,3.824652356E0,-5.483244020E-1,-1.632185565E-1,3.867203847E0
4.458610250E0,3.771880943E0,4.427552623E-1,-3.381772256E-1,3.812804991E0
4.468658250E0,3.303781801E0,8.163180828E-1,-1.245006114E0,3.623725931E0
4.478706250E0,2.386139950E0,7.043041420E-1,-1.817408180E0,3.081019422E0
4.488754250E0,1.142248315E0,4.143225914E-1,-6.816086861E-1,1.393192314E0
4.498803250E0,-7.213728954E-1,-1.623105204E-1,2.079851684E0,2.207375497E0
4.508851250E0,-1.570621766E0,-1.324994854E0,2.887195460E0,3.543777888E0
4.518899250E0,-1.629991616E0,-3.065489345E0,1.596222045E0,3.821259270E0
4.528947250E0,-5.643395602E-1,-4.164894526E0,1.217662194E0,4.375788703E0
4.538995250E0,1.642171366E0,-3.932541963E0,-1.707053679E-1,4.265061947E0
4.549043250E0,2.053136048E0,-2.954628475E0,-1.845832665E0,4.043797137E0
4.559091250E0,1.567623460E0,-2.045858311E0,-1.634165797E0,3.051799042E0
4.569139250E0,1.889342381E0,-1.577793961E0,-1.664492381E0,2.971461476E0
4.579187250E0,2.244688494E0,-1.364429646E0,-2.234351640E0,3.448568101E0
4.589235250E0,2.620426186E0,-1.482551588E0,-1.871822369E0,3.545181461E0
4.599283250E0,2.421393397E0,-2.161720304E0,-1.920923193E0,3.771753780E0
4.609331250E0,2.253128950E0,-2.707419307E0,-1.695906840E0,3.909323391E0
4.619380250E0,2.647113463E0,-3.018398793E0,-1.507621526E0,4.288457022E0
4.629428250E0,3.022055057E0,-2.715894846E0,-1.228063222E0,4.244648496E0
4.639476250E0,3.184051875E0,-2.269479811E0,-1.566620809E0,4.212247109E0
4.649524250E0,3.621871210E0,-1.577820858E0,-2.000232780E0,4.428137407E0
4.659572250E0,4.092230885E0,-3.691698074E-1,-2.300351063E0,4.708954765E0
4.669620250E0,4.774807650E0,9.622862202E-1,-2.241963691E0,5.362013061E0
4.679668250E0,4.899639273E0,1.683673587E0,-2.551824606E0,5.775208271E0
4.689716250E0,4.272899616E0,2.462030962E0,-2.510962216E0,5.533913519E0
4.699764250E0,4.211647693E0,2.878393646E0,-2.744312021E0,5.792613809E0
4.709812250E0,3.870544228E0,3.288589858E0,-2.722748660E0,5.762750744E0
4.719860250E0,4.429528397E0,3.888279126E0,-2.716160894E0,6.489758576E0
4.729908250E0,4.591408562E0,4.266006918E0,-2.876300343E0,6.895864795E0
4.739956250E0,4.734368599E0,4.427870711E0,-2.983175166E0,7.135798424E0
4.750005250E0,4.864144920E0,4.791439471E0,-3.136597627E0,7.513723622E0
4.760053250E0,4.932066761E0,4.948861719E0,-3.284520488E0,7.720400876E0
4.770101250E0,4.898018425E0,5.470552638E0,-3.361631229E0,8.075772110E0
4.780149250E0,4.622833253E0,5.600039814E0,-3.775386933E0,8.184410773E0
4.790197250E0,4.754220481E0,6.159016673E0,-3.847813470E0,8.679963552E0
4.800245250E0,4.922720572E0,6.617717877E0,-4.038898138E0,9.183684767E0
4.810293250E0,4.942495855E0,7.096410127E0,-4.031892882E0,9.541669779E0
4.820341250E0,4.744677533E0,7.216607246E0,-3.699664613E0,9.395685355E0
4.830389250E0,4.419600994E0,6.979481016E0,-3.527392484E0,8.982679218E0
4.840437250E0,4.014696805E0,6.673880383E0,-3.323434001E0,8.467802747E0
4.850485250E0,3.514490603E0,6.212599388E0,-3.187930040E0,7.817348226E0
4.860533250E0,2.854000817E0,5.790586538E0,-3.046508406E0,7.138447071E0
4.870582250E0,2.183842075E0,5.337364175E0,-3.016601067E0,6.508187501E0
4.880630250E0,1.502600960E0,5.170725546E0,-3.230305397E0,6.279258338E0
4.890678250E0,2.327267843E-1,4.656189280E0,-3.263714341E0,5.690877934E0
4.900726250E0,-4.105771574E-1,4.228255540E0,-3.148233293E0,5.287541147E0
4.910774250E0,-7.572239287E-1,3.857885883E0,-3.031329911E0,4.964436785E0
4.920822250E0,-1.124266665E0,3.447935255E0,-2.804057409E0,4.584208875E0
4.930870250E0,-1.405632782E0,3.122780364E0,-2.278743847E0,4.113421233E0
4.940918250E0,-1.575316934E0,2.596144454E0,-1.606257329E0,3.435353268E0
4.950966250E0,-1.544199514E0,1.700260384E0,-7.159403935E-1,2.405827957E0
4.961014250E0,-1.350646589E0,2.981138581E-1,2.783748275E-1,1.410890012E0
4.971062250E0,-8.977002150E-1,-1.518053543E0,1.297996798E0,2.189782620E0
4.981110250E0,-7.728589448E-1,-3.447596117E0,2.360578262E0,4.249183411E0
4.991159250E0,-1.483727463E0,-5.472685118E0,3.308986408E0,6.565144372E0
5.001207250E0,-2.429174872E0,-6.937493915E0,3.777592503E0,8.264376413E0
5.011255250E0,-3.309415886E0,-7.818966937E0,4.610138363E0,9.661358766E0
5.021303250E0,-3.571693913E0,-8.346133774E0,6.074658308E0,1.092320557E1
5.031351250E0,-3.592862881E0,-8.890074518E0,7.139444464E0,1.195465415E1
5.041399250E0,-2.938572313E0,-8.809299327E0,7.455784678E0,1.190914300E1
5.051447250E0,-2.005470131E0,-7.679547681E0,6.878427681E0,1.050286296E1
5.061495250E0,-1.235232639E0,-5.375883293E0,6.012952641E0,8.159750016E0
5.071543250E0,-9.914559326E-1,-2.747639380E0,5.923414813E0,6.604494687E0
5.081591250E0,-9.963961720E-1,-7.988483566E-1,4.650654890E0,4.822816079E0
5.091639250E0,-7.367995314E-1,6.840482175E-1,3.154340125E0,3.310688318E0
5.101687250E0,2.652451240E-1,2.004302734E0,1.200603089E0,2.351389420E0
5.111735625E0,1.696614645E0,2.901864370E0,-1.400191802E0,3.641408403E0
5.121784625E0,2.764042574E0,3.158586958E0,-2.528069123E0,4.899769016E0
5.131832625E0,3.786955065E0,2.837496466E0,-2.297918329E0,5.260498408E0
5.141880625E0,4.801696364E0,1.978284963E0,-1.447443736E0,5.391195854E0
5.151928625E0,5.940082886E0,6.584023297E-2,-8.701533973E-2,5.941085027E0
5.161976625E0,6.849229610E0,-3.091457414E0,1.378333740E0,7.639951511E0
5.172024625E0,6.725029487E0,-7.001174771E0,2.742363437E0,1.008776620E1
5.182072625E0,5.017161875E0,-9.713066613E0,2.591632158E0,1.123530745E1
5.192120625E0,2.559397042E0,-1.002364557E1,4.321184461E-1,1.035426048E1
5.202168625E0,5.846994920E-1,-9.454501567E0,-1.416509042E0,9.577889708E0
5.212216625E0,-1.276429928E0,-7.466664593E0,-1.447367138E0,7.712018227E0
5.222264625E0,-1.811613297E0,-3.756971127E0,-1.577143165E0,4.459165320E0
5.232312625E0,-5.898731084E-1,-2.492200255E-1,-2.054057862E0,2.151560969E0
5.242361625E0,5.028880280E-1,1.683023962E0,-2.401469010E0,2.975318375E0
5.252409625E0,8.358109456E-1,2.759437891E0,-2.265834657E0,3.667026603E0
5.262457625E0,5.853941412E-1,3.528416331E0,-2.196565763E0,4.197297852E0
5.272505625E0,1.216549762E-1,4.068327760E0,-2.046010777E0,4.555463839E0
5.282553625E0,-4.347005765E-1,4.233757769E0,-1.860026781E0,4.644714100E0
5.292601625E0,-9.613313699E-1,3.700544912E0,-1.753222563E0,4.206183543E0
5.302649625E0,-7.934961078E-1,2.601899284E0,-1.634364018E0,3.173430588E0
5.312697625E0,-1.650221667E-1,1.119428971E0,-1.695777909E0,2.038630975E0
5.322745625E0,4.552156788E-1,-3.747375262E-1,-1.931009055E0,2.019020926E0
5.332793625E0,1.052945545E0,-1.569499100E0,-2.259120299E0,2.945445004E0
5.342841625E0,1.370128343E0,-2.313604070E0,-2.527669466E0,3.690410329E0
5.352889625E0,1.440985487E0,-2.332102906E0,-2.733597291E0,3.871394747E0
5.362938625E0,1.141519752E0,-1.425571057E0,-2.933303095E0,3.455370780E0
5.372986625E0,6.725496680E-1,-1.198725986E-1,-2.906760244E0,2.985958407E0
5.383034625E0,3.123556289E-1,7.487160838E-1,-2.497065139E0,2.625543014E0
5.393082625E0,1.052159679E-1,9.580516666E-1,-1.930524321E0,2.157743625E0
5.403130625E0,-3.398811042E-2,1.094487673E0,-1.512691061E0,1.867429438E0
5.413178625E0,-1.888709128E-1,1.138834711E0,-1.219545509E0,1.679258161E0
5.423226625E0,-2.842024550E-1,1.310811263E0,-1.002767079E0,1.674675795E0
5.433274625E0,-3.293134314E-1,1.425826580E0,-8.645219439E-1,1.699654954E0
5.443322625E0,-3.428529516E-1,1.286955208E0,-7.901284770E-1,1.548581565E0
5.453370625E0,-3.849800938E-1,9.300025731E-1,-7.693169940E-1,1.266871381E0
5.463418625E0,-4.581463033E-1,4.013072741E-1,-7.916802549E-1,9.988509346E-1
5.473466625E0,-5.238076115E-1,-2.109938532E-1,-8.652721417E-1,1.033241840E0
5.483514625E0,-6.128946197E-1,-6.210392064E-1,-9.009220308E-1,1.254188987E0
5.493563625E0,-7.176144513E-1,-8.524872047E-1,-1.002536699E0,1.498927872E0
5.503611625E0,-8.992047036E-1,-9.726527488E-1,-1.072764682E0,1.704537043E0
5.513659625E0,-1.082251205E0,-9.794501370E-1,-7.892472285E-1,1.659367780E0
5.523707625E0,-1.227765891E0,-1.034647853E0,-2.637655592E-1,1.627107105E0
5.533755625E0,-1.265154157E0,-1.045209094E0,2.191454566E-1,1.655627320E0
5.543803625E0,-1.187003489E0,-8.936662209E-1,5.583120310E-1,1.587239402E0
5.553851625E0,-1.036897569E0,-5.511632252E-1,7.976923621E-1,1.419595215E0
5.563899625E0,-8.360196912E-1,-1.903350556E-1,9.606061690E-1,1.287602644E0
5.573947625E0,-7.350879782E-1,1.025806278E-1,1.021873441E0,1.262973654E0
5.583995625E0,-7.055721107E-1,3.350185597E-1,9.716142833E-1,1.246636978E0
5.594043625E0,-6.422985131E-1,4.449123001E-1,8.981546167E-1,1.190452036E0
5.604091625E0,-4.630231735E-1,3.630232143E-1,8.420434197E-1,1.027235822E0
5.614140625E0,-2.230785862E-1,2.220123464E-1,8.373961989E-1,8.945870173E-1
5.624188625E0,-1.481275141E-2,6.833407044E-2,8.925599277E-1,8.952944696E-1
5.634236625E0,4.376494735E-2,1.733757913E-2,9.982718857E-1,9.993811685E-1
5.644284625E0,-7.214587033E-3,6.941755950E-2,1.055311401E0,1.057616661E0
5.654332625E0,-7.368076444E-2,1.610498607E-1,1.046607163E0,1.061485971E0
5.664380625E0,-7.430875540E-2,3.253262150E-1,1.018959262E0,1.072211226E0
5.674428625E0,-4.963467479E-2,3.999232382E-1,9.986109511E-1,1.076859336E0
5.684476625E0,4.841903865E-2,3.742106920E-1,9.330543812E-1,1.006463374E0
5.694524625E0,3.035596624E-1,3.445401657E-1,8.653037167E-1,9.795952820E-1
5.704572625E0,5.153803119E-1,3.447483265E-1,8.963571095E-1,1.089919420E0
5.714620625E0,6.869405428E-1,3.255115718E-1,1.047905245E0,1.294585067E0
5.724668625E0,5.691980848E-1,3.026436961E-1,1.330333801E0,1.478298917E0
5.734717625E0,2.066332921E-1,3.871014637E-1,1.587404298E0,1.646935720E0
5.744765625E0,-1.165130809E-1,4.896908623E-1,1.711153893E0,1.783653577E0
5.754813625E0,-3.160589629E-1,4.885652733E-1,1.696320530E0,1.793346769E0
5.764861625E0,-5.213166976E-1,3.429193175E-1,1.577314489E0,1.696256394E0
5.774909625E0,-7.883862260E-1,1.687067896E-1,1.490995406E0,1.695016851E0
5.784957625E0,-1.058096942E0,-4.525452554E-2,1.552770070E0,1.879551011E0
5.795005625E0,-1.292235829E0,-2.591328102E-1,1.680700424E0,2.135831727E0
5.805053625E0,-1.464454456E0,-4.046442801E-1,1.740063550E0,2.310018400E0
5.815101625E0,-1.592040702E0,-4.789699924E-1,1.655596135E0,2.346274581E0
5.825149625E0,-1.755962715E0,-5.023787355E-1,1.503512102E0,2.365658067E0
5.835197625E0,-1.994369777E0,-4.695033503E-1,1.288313516E0,2.420267737E0
5.845245625E0,-2.204649977E0,-5.147116828E-1,1.080217982E0,2.508441852E0
5.855294625E0,-2.497117179E0,-6.131173986E-1,9.033014090E-1,2.725336784E0
5.865342625E0,-2.783192497E0,-8.004610187E-1,8.627379584E-1,3.021790050E0
5.875390625E0,-3.001478413E0,-1.104690480E0,9.236696000E-1,3.329020764E0
5.885438625E0,-3.051059586E0,-1.576724505E0,9.768968041E-1,3.570623493E0
5.895486625E0,-3.028337891E0,-2.129033200E0,9.626752062E-1,3.824964875E0
5.905534625E0,-2.989857949E0,-2.566123095E0,8.757445049E-1,4.036231749E0
5.915582625E0,-3.053421861E0,-2.880634300E0,8.029747367E-1,4.273898391E0
5.925630625E0,-3.144498969E0,-3.121326746E0,6.708557296E-1,4.481138452E0
5.935678625E0,-3.311019192E0,-3.334457756E0,4.637099290E-1,4.721915238E0
5.945726625E0,-3.508872305E0,-3.441866430E0,1.967050123E-1,4.919077377E0
5.955774625E0,-3.665587333E0,-3.358010341E0,7.328563884E-2,4.971733574E0
5.965822625E0,-3.444751154E0,-3.021543426E0,2.667991678E-1,4.589903810E0
5.975871625E0,-2.743201343E0,-2.820303898E0,5.680863098E-1,3.975171662E0
5.985919625E0,-1.674230042E0,-2.682724176E0,7.209828130E-1,3.243435132E0
5.995967625E0,-5.248975325E-1,-2.497874978E0,7.212529544E-1,2.652376793E0
6.006015625E0,5.161825499E-1,-2.346716852E0,7.203817192E-1,2.508480462E0
6.016063625E0,1.526127671E0,-1.989830291E0,9.055759028E-1,2.666187910E0
6.026111625E0,2.394376045E0,-1.618816271E0,1.230572262E0,3.141323106E0
6.036159625E0,2.983235100E0,-1.247305824E0,1.332572261E0,3.497315015E0
6.046207625E0,3.355417393E0,-1.073732981E0,1.124451145E0,3.698123683E0
6.056255625E0,3.716125987E0,-8.278663337E-1,8.519896066E-1,3.901389664E0
6.066303625E0,4.129004024E0,-3.800584924E-1,6.816643077E-1,4.202116719E0
6.076351625E0,4.580803759E0,1.355665255E-1,5.210699451E-1,4.612337287E0
6.086399625E0,4.792981674E0,5.566841662E-1,3.312190755E-1,4.836556281E0
6.096447625E0,4.656117944E0,8.333217859E-1,4.967388768E-2,4.730362248E0
6.106496625E0,4.458209867E0,9.094899559E-1,-2.247085341E-1,4.555579120E0
6.116543875E0,4.288288610E0,8.394110763E-1,-5.144883192E-1,4.399855497E0
6.126591875E0,3.853219221E0,7.796496087E-1,-8.532702199E-1,4.022837549E0
6.136639875E0,3.420676413E0,9.438557965E-1,-1.106908329E0,3.717140962E0
6.146687875E0,2.979029490E0,1.065569683E0,-1.442960676E0,3.477382775E0
6.156735875E0,2.497143492E0,1.289822098E0,-1.997298355E0,3.447980188E0
6.166783875E0,1.912962063E0,1.494812615E0,-2.576896589E0,3.540379166E0
6.176831875E0,1.248776106E0,1.648106144E0,-2.670260836E0,3.377275315E0
6.186879875E0,3.837610956E-1,1.595622706E0,-2.554487135E0,3.036229392E0
6.196927875E0,-7.446019828E-1,1.201399333E0,-2.201493650E0,2.616174070E0
6.206975875E0,-2.038837852E0,4.873408663E-1,-1.928799393E0,2.848618613E0
6.217023875E0,-2.825343613E0,-1.681337625E-1,-1.913767371E0,3.416627144E0
6.227072875E0,-2.575486826E0,-3.367095745E-1,-2.335012481E0,3.492676483E0
6.237120875E0,-1.738818094E0,-2.214241165E-1,-2.525977281E0,3.074585863E0
6.247168875E0,-1.242714590E0,-1.217659271E-1,-2.447064428E0,2.747233301E0
6.257216875E0,-1.118909885E0,-7.500048101E-2,-2.159378348E0,2.433207606E0
6.267264875E0,-1.303871934E0,-2.033199674E-1,-1.472692013E0,1.977433386E0
6.277312875E0,-1.872767133E0,-4.726631856E-1,-9.016125870E-1,2.131565734E0
6.287360875E0,-2.253171927E0,-6.379628026E-1,-6.836833513E-1,2.439508802E0
6.297408875E0,-2.243979519E0,-6.270787954E-1,-8.559750688E-1,2.482209745E0
6.307456875E0,-2.278042474E0,-4.534410489E-1,-1.000261035E0,2.528954020E0
6.317504875E0,-1.945813328E0,-2.202891719E-1,-9.919632516E-1,2.195155557E0
6.327552875E0,1.000324112E-1,3.631442517E-1,-6.860954739E-1,7.826922960E-1
6.337600875E0,5.850659662E-1,7.648994225E-1,-7.424217754E-1,1.215961925E0
6.347649875E0,5.453565015E-1,9.523231494E-1,-1.315589608E0,1.713216014E0
6.357697875E0,7.897490658E-1,1.096351181E0,-1.824950504E0,2.270712188E0
6.367745875E0,8.719727585E-1,1.181574349E0,-2.285806407E0,2.716866828E0
6.377793875E0,8.858892779E-1,1.238257257E0,-2.457174264E0,2.890637683E0
6.387841875E0,7.900784102E-1,1.227397224E0,-2.317426395E0,2.738830578E0
6.397889875E0,6.085656336E-1,1.086149544E0,-2.048416614E0,2.397098994E0
6.407937875E0,4.313379890E-1,8.668006039E-1,-1.736849921E0,1.988477658E0
6.417985875E0,3.325848024E-1,6.139225602E-1,-1.377835557E0,1.544650247E0
6.428033875E0,2.472864975E-1,4.148856783E-1,-1.001419149E0,1.111809809E0
6.438081875E0,-9.132327586E-3,2.691403198E-1,-6.333971505E-1,6.882672892E-1
6.448129875E0,-2.879543209E-1,1.453974491E-1,-3.377667511E-1,4.670594044E-1
6.458177875E0,-5.856063952E-1,4.796763361E-2,-2.380816644E-1,6.339705221E-1
6.468226875E0,-9.041045241E-1,-2.580668628E-2,-3.038803822E-1,9.541563091E-1
6.478274875E0,-1.058968615E0,-9.383611679E-2,-4.802283132E-1,1.166550032E0
6.488322875E0,-8.781196439E-1,-9.705325484E-2,-6.617380200E-1,1.103816403E0
6.498370875E0,-6.022475709E-1,2.472144306E-2,-9.076233785E-1,1.089538197E0
6.508418875E0,-4.304910198E-1,2.356527311E-1,-1.232246320E0,1.326380684E0
6.518466875E0,-1.875238605E-1,4.778970283E-1,-1.438177654E0,1.527057868E0
6.528514875E0,2.095057368E-2,6.644629687E-1,-1.604456679E0,1.736730030E0
6.538562875E0,2.857196613E-1,8.501915878E-1,-1.553104677E0,1.793486994E0
6.548610875E0,6.099797827E-1,9.423349357E-1,-1.322577615E0,1.734728225E0
6.558658875E0,8.530141850E-1,8.762818640E-1,-1.055103606E0,1.615161516E0
6.568706875E0,9.399845012E-1,7.833286768E-1,-9.830536298E-1,1.569576095E0
6.578754875E0,9.968419491E-1,5.910418206E-1,-9.163200885E-1,1.477385126E0
6.588802875E0,1.077893567E0,4.328296137E-1,-7.320358779E-1,1.372979440E0
6.598851875E0,1.035843024E0,3.428269315E-1,-6.606469296E-1,1.275521635E0
6.608899875E0,9.258548507E-1,1.738236880E-1,-7.008466834E-1,1.174141368E0
6.618947875E0,8.778068179E-1,4.827519715E-2,-8.549145301E-1,1.226276542E0
6.628995875E0,8.270507933E-1,-9.562828839E-2,-1.064792588E0,1.351643829E0
6.639043875E0,7.531204990E-1,-2.326548636E-1,-1.222332512E0,1.454446816E0
6.649091875E0,7.064230268E-1,-3.262834042E-1,-1.321805783E0,1.533839914E0
6.659139875E0,6.088907388E-1,-2.385699069E-1,-1.407599055E0,1.552094917E0
6.669187875E0,4.429616690E-1,-6.679215968E-2,-1.509154227E0,1.574237185E0
6.679235875E0,3.323335183E-1,2.744115847E-1,-1.704259441E0,1.757909988E0
6.689283875E0,2.726483569E-1,8.824015599E-1,-1.961599349E0,2.168142441E0
6.699331875E0,1.979554394E-1,1.383077002E0,-2.029080749E0,2.463586214E0
6.709379875E0,1.595430332E-1,1.632259605E0,-2.019850627E0,2.601830500E0
6.719428875E0,2.162847063E-1,1.616059309E0,-2.007657866E0,2.586332708E0
6.729476875E0,3.226043361E-1,1.456451957E0,-2.050509333E0,2.535727584E0
6.739524875E0,5.728385612E-1,1.258723682E0,-2.226416822E0,2.620965698E0
6.749572875E0,8.370485088E-1,9.767311817E-1,-2.464657531E0,2.780142218E0
6.759620875E0,1.198533905E0,6.268466610E-1,-2.725540997E0,3.042695185E0
6.769668875E0,1.471193664E0,2.392856061E-1,-2.976719255E0,3.329042794E0
6.779716875E0,1.709654813E0,-1.032337618E-1,-3.191148933E0,3.621741059E0
6.789764875E0,2.098111077E0,-4.768918920E-1,-3.345782059E0,3.977908188E0
6.799812875E0,2.512889459E0,-7.687749571E-1,-3.429542254E0,4.320577327E0
6.809860875E0,2.865687355E0,-1.007737797E0,-3.454381810E0,4.600049258E0
6.819908875E0,3.253814420E0,-1.303950140E0,-3.361449088E0,4.856638160E0
6.829956875E0,3.656168346E0,-1.450538667E0,-3.187954599E0,5.063070602E0
6.840005875E0,4.108842532E0,-1.453716044E0,-3.117426653E0,5.358565687E0
6.850053875E0,5.186981975E0,-1.064218976E0,-2.993972050E0,6.082862211E0
6.860101875E0,7.704086691E0,-2.708161318E-1,8.274289620E-1,7.753124003E0
6.870149875E0,1.013449942E1,4.552566093E-1,7.589629199E0,1.266956228E1
6.880197875E0,7.933846014E0,6.371020925E-1,1.049056211E1,1.316828406E1
6.890245875E0,3.189443300E0,1.244112074E-1,5.972948331E0,6.772306732E0
6.900293875E0,5.512433320E-1,-3.943198514E-1,8.298976564E-1,1.071488440E0
6.910341875E0,-2.835171613E-1,-7.615454596E-1,-1.346887414E0,1.573035020E0
6.920389875E0,-9.303577915E-1,-9.537668270E-1,-2.072946707E0,2.464212822E0
6.930437875E0,-1.598278804E0,-1.157588485E0,-2.476261330E0,3.166445391E0
6.940485875E0,-2.430059848E0,-1.529234004E0,-2.964376368E0,4.126896504E0
6.950533875E0,-3.330001009E0,-2.162965761E0,-3.569339240E0,5.339242475E0
6.960582875E0,-4.339782407E0,-2.450001485E0,-3.089421414E0,5.863509469E0
6.970630875E0,-5.129266448E0,-2.385244156E0,-1.768564634E0,5.926768499E0
6.980678875E0,-5.544272579E0,-2.150891846E0,-5.996314535E-1,5.977027024E0
6.990726875E0,-5.942601281E0,-2.162700883E0,5.232696311E-1,6.345517804E0
7.000774875E0,-6.320810884E0,-2.127261493E0,1.450431079E0,6.825074506E0
7.010822875E0,-6.420105962E0,-1.867329953E0,1.850751927E0,6.937576263E0
7.020870875E0,-6.334171772E0,-1.492529277E0,1.730329691E0,6.733752039E0
7.030918875E0,-6.063238696E0,-1.138242388E0,1.232560900E0,6.291078253E0
7.040966875E0,-5.483230571E0,-8.286323190E-1,6.003553388E-1,5.577891676E0
7.051014875E0,-4.597025397E0,-4.866795462E-1,2.430694856E-2,4.622779501E0
7.061062875E0,-3.749474997E0,-3.881317431E-1,-5.362791377E-1,3.807466916E0
7.071110875E0,-3.056403941E0,-4.395556659E-1,-9.837881132E-1,3.240779734E0
7.081159875E0,-2.503586538E0,-5.884719694E-1,-1.219964828E0,2.846499428E0
7.091207875E0,-2.268353637E0,-6.575451279E-1,-1.379380392E0,2.735047364E0
7.101255875E0,-2.258126565E0,-7.948938847E-1,-1.550664634E0,2.852289024E0
7.111304250E0,-2.199620202E0,-8.806696147E-1,-1.584356291E0,2.850279435E0
7.121352250E0,-2.083807325E0,-8.565855181E-1,-1.550036643E0,2.734703881E0
7.131400250E0,-1.816936310E0,-8.419651401E-1,-1.641109366E0,2.589093046E0
7.141448250E0,-1.458969475E0,-8.041582131E-1,-1.885090286E0,2.515716150E0
7.151496250E0,-1.261421002E0,-6.995597112E-1,-2.083792707E0,2.534316235E0
7.161544250E0,-1.152079824E0,-5.762571359E-1,-2.227331327E0,2.573007004E0
7.171592250E0,-1.106216603E0,-4.180355734E-1,-2.353693750E0,2.634073496E0
7.181640250E0,-1.076897494E0,-3.810548580E-1,-2.504743118E0,2.752934635E0
7.191688250E0,-1.002334385E0,-3.536781943E-1,-2.675551397E0,2.878947335E0
7.201736250E0,-9.269538349E-1,-3.675378495E-1,-2.735952550E0,2.912003406E0
7.211785250E0,-8.149717614E-1,-3.906302583E-1,-2.797322586E0,2.939691246E0
7.221833250E0,-7.521048376E-1,-4.379201996E-1,-2.810326209E0,2.942000882E0
7.231881250E0,-6.760454258E-1,-4.033941454E-1,-2.906306500E0,3.011043295E0
7.241929250E0,-5.172248161E-1,-3.325469416E-1,-2.894824907E0,2.959412141E0
7.251977250E0,-3.248189691E-1,-1.687407035E-1,-2.846997607E0,2.870431354E0
7.262025250E0,-1.759070510E-1,4.424588084E-2,-2.759191723E0,2.765147366E0
7.272073250E0,7.882572949E-2,1.820150524E-1,-2.620819119E0,2.628314256E0
7.282121250E0,3.200236675E-1,2.389686871E-1,-2.512270823E0,2.543821116E0
7.292169250E0,4.166576770E-1,2.357837087E-1,-2.397109326E0,2.444448956E0
7.302217250E0,5.282798544E-1,2.456017685E-1,-2.278922480E0,2.352209068E0
7.312265250E0,6.141204885E-1,2.665938574E-1,-2.164607660E0,2.265776374E0
7.322313250E0,6.742243105E-1,3.808841193E-1,-2.011065624E0,2.155002570E0
7.332362250E0,7.513140017E-1,4.439445859E-1,-1.810197979E0,2.009571160E0
7.342410250E0,7.551187849E-1,4.860591567E-1,-1.577651873E0,1.815335593E0
7.352458250E0,7.143584293E-1,5.746813112E-1,-1.327657092E0,1.613455896E0
7.362506250E0,7.087278530E-1,6.744429964E-1,-1.025457784E0,1.417297496E0
7.372554250E0,7.174176925E-1,5.860939068E-1,-6.838201761E-1,1.151435733E0
7.382602250E0,7.374344659E-1,3.042429096E-1,-3.687031631E-1,8.788147484E-1
7.392650250E0,7.662574384E-1,-1.443583989E-1,-1.104316843E-1,7.875182322E-1
7.402698250E0,6.139365935E-1,-5.144368637E-1,1.931416460E-1,8.239339312E-1
7.412746250E0,3.205449468E-1,-7.124481440E-1,6.341644514E-1,1.006228588E0
7.422794250E0,2.565787464E-2,-7.330701041E-1,1.357639275E0,1.543124915E0
7.432842250E0,-2.950467011E-1,-6.257666802E-1,2.166228508E0,2.274023404E0
7.442891250E0,-4.933442026E-1,-4.543824506E-1,3.088074800E0,3.160072449E0
7.452939250E0,-4.407090291E-1,-2.584416693E-1,3.936712782E0,3.969725945E0
7.462987250E0,-2.302218372E-1,-1.264857996E-1,4.305677937E0,4.313683258E0
7.473035250E0,2.970999509E-2,-4.405350745E-2,4.057961816E0,4.058309684E0
7.483083250E0,4.987821132E-2,-3.094346523E-3,3.245490031E0,3.245874759E0
7.493131250E0,-7.043263614E-3,-1.537466884E-2,2.137308033E0,2.137374936E0
7.503179250E0,-9.354083240E-2,-9.649426103E-2,1.072367656E0,1.080755948E0
7.513227250E0,-2.968216234E-1,-1.363734412E-1,4.982412457E-2,3.304288653E-1
7.523275250E0,-6.082089534E-1,-2.041988039E-1,-7.120843741E-1,9.584776671E-1
7.533323250E0,-1.080071655E0,-2.255025494E-1,-1.182176027E0,1.617079571E0
7.543371250E0,-1.658858297E0,-2.346569502E-1,-1.490334817E0,2.242314117E0
7.553419250E0,-2.301012383E0,-2.327028108E-1,-1.664109389E0,2.849222463E0
7.563468250E0,-2.704117676E0,-3.295537519E-1,-1.736678013E0,3.230620467E0
7.573516250E0,-2.881898760E0,-5.719734657E-1,-1.561744523E0,3.327392382E0
7.583564250E0,-3.031066201E0,-9.037707943E-1,-1.180600860E0,3.376089803E0
7.593612250E0,-3.108761372E0,-1.248536662E0,-7.196589303E-1,3.426536158E0
7.603660250E0,-3.279605026E0,-1.441042204E0,-3.203549123E-1,3.596531528E0
7.613708250E0,-3.555454734E0,-1.430019618E0,9.770010307E-2,3.833504895E0
7.623756250E0,-3.876803965E0,-1.460806378E0,5.834504537E-1,4.183775650E0
7.633804250E0,-4.139820203E0,-1.820488493E0,1.156268257E0,4.667895238E0
7.643852250E0,-4.423609845E0,-2.546306881E0,1.776302254E0,5.404373460E0
7.653900250E0,-4.598572278E0,-3.390163010E0,2.277317565E0,6.150304670E0
7.663948250E0,-4.660018036E0,-4.221123106E0,2.573161973E0,6.793733209E0
7.673996250E0,-4.606323640E0,-5.088582106E0,2.805030971E0,7.414855634E0
7.684045250E0,-4.233382378E0,-5.806864602E0,3.105101892E0,7.828337028E0
7.694093250E0,-3.576973657E0,-6.373939855E0,3.567901994E0,8.133374113E0
7.704141250E0,-2.868795442E0,-6.359295503E0,4.296378525E0,8.193259121E0
7.714189250E0,-2.264820165E0,-5.202320391E0,5.117410634E0,7.640774792E0
7.724237250E0,-1.918990104E0,-3.461136514E0,5.539425237E0,6.807879328E0
7.734285250E0,-1.745525435E0,-2.248848495E0,4.885476147E0,5.654383767E0
7.744333250E0,-1.350055728E0,-1.627645567E0,3.363735934E0,3.973235457E0
7.754381250E0,-6.973187658E-1,-1.325987127E0,1.823857659E0,2.360286441E0
7.764429250E0,8.331054389E-2,-1.335255548E0,7.852436399E-1,1.551275475E0
7.774477250E0,7.751846749E-1,-1.357753295E0,3.620976001E-1,1.604842660E0
7.784525250E0,1.439900243E0,-1.566972519E0,2.370361457E-1,2.141238361E0
7.794573250E0,1.847210269E0,-1.880628861E0,2.972776697E-1,2.652795639E0
7.804622250E0,1.817272232E0,-1.945392036E0,4.151365238E-1,2.694321227E0
7.814670250E0,1.533958847E0,-2.034645690E0,5.550943083E-1,2.607861676E0
7.824718250E0,1.327023253E0,-2.137680647E0,3.451335850E-1,2.539642978E0
7.834766250E0,1.333965945E0,-2.148034896E0,-7.452399141E-1,2.636076931E0
7.844814250E0,2.012386802E0,-2.103028293E0,-2.580619512E0,3.889990450E0
7.854862250E0,2.810904499E0,-1.937356793E0,-4.583049967E0,5.714795048E0
7.864910250E0,2.435527872E0,-1.549330884E0,-6.306735467E0,6.935930684E0
7.874958250E0,1.425019079E0,-9.159657472E-1,-7.766622078E0,7.949219529E0
7.885006250E0,8.836616349E-1,-2.369397032E-1,-8.541027904E0,8.589886842E0
7.895054250E0,6.407282433E-1,5.196239287E-1,-8.101579242E0,8.143471491E0
7.905102250E0,5.558528383E-1,1.409153829E0,-7.377872284E0,7.531778431E0
7.915150250E0,1.847955497E-1,2.046288666E0,-5.247366171E0,5.635272703E0
7.925199250E0,-1.939450534E0,1.892069523E0,1.833263490E0,3.271429424E0
7.935247250E0,-4.159673547E0,7.590311569E-1,4.679263562E0,6.306704353E0
7.945295250E0,-3.505195284E0,-6.702680844E-1,3.971879107E-1,3.590739690E0
7.955343250E0,-2.480187736E0,-1.952265438E0,-1.397810231E0,3.452034905E0
7.965391250E0,-1.369587914E0,-2.200703107E0,-1.870336592E0,3.196408012E0
7.975439250E0,3.896745309E-2,-1.365477467E0,-1.486378006E0,2.018753762E0
7.985487250E0,9.160270699E-1,-5.270457995E-1,-1.599552619E0,1.917146695E0
7.995535250E0,1.104087339E0,-1.991444707E-2,-2.028850223E0,2.309900141E0
8.005583250E0,1.867967007E0,4.064013684E-1,-2.445555847E0,3.104062856E0
8.015631250E0,2.576108092E0,8.155684698E-1,-3.060430918E0,4.082612183E0
8.025679250E0,3.008766383E0,1.026883335E0,-3.484758680E0,4.717065570E0
8.035727250E0,3.361707535E0,1.062132105E0,-3.400889143E0,4.898494577E0
8.045776250E0,3.501849507E0,9.971993601E-1,-3.112629012E0,4.790179110E0
8.055824250E0,3.390525245E0,8.961249751E-1,-3.005870257E0,4.618869711E0
8.065872250E0,2.838656554E0,8.527158308E-1,-2.809961343E0,4.084235310E0
8.075920250E0,2.631550222E0,1.039933151E0,-2.553760911E0,3.811589212E0
8.085968250E0,2.591880957E0,1.581530916E0,-2.061908041E0,3.670225020E0
8.096016250E0,2.482356760E0,2.262504668E0,-1.758961751E0,3.791433621E0
8.106064250E0,2.258986252E0,2.969683301E0,-1.594339534E0,4.057580109E0
8.116112625E0,2.085848004E0,3.605902464E0,-1.374495920E0,4.386631225E0
8.126160625E0,2.034601398E0,4.171299566E0,-1.191282773E0,4.791502641E0
8.136208625E0,1.864903944E0,4.577384600E0,-1.079847999E0,5.059287321E0
8.146256625E0,2.020632399E0,4.614085234E0,-1.042590711E0,5.143902529E0
8.156305625E0,2.200559850E0,4.427659042E0,-8.841756052E-1,5.022787547E0
8.166353625E0,2.261858112E0,4.049599128E0,-5.445070472E-1,4.670304395E0
8.176401625E0,2.058247099E0,3.654172983E0,-2.093376294E-1,4.199188440E0
8.186449625E0,1.866791425E0,3.255292888E0,7.723908752E-2,3.753372868E0
8.196497625E0,1.520727913E0,2.781980077E0,3.013640329E-1,3.184783637E0
8.206545625E0,1.165289268E0,2.248305874E0,5.471494040E-1,2.590781900E0
8.216593625E0,7.732144555E-1,1.644694294E0,8.678966644E-1,2.013982258E0
8.226641625E0,3.918991041E-1,9.401586020E-1,1.134321537E0,1.524522369E0
8.236689625E0,-3.942046613E-2,2.190986788E-1,1.413268807E0,1.430694561E0
8.246737625E0,-4.203853501E-1,-3.105093706E-1,1.776914458E0,1.852178421E0
8.256785625E0,-8.914021059E-1,-7.134217054E-1,2.204830071E0,2.482910366E0
8.266833625E0,-1.226524819E0,-1.102005438E0,2.524957235E0,3.015657168E0
8.276882625E0,-1.603031420E0,-1.233494700E0,2.605295054E0,3.298299748E0
8.286930625E0,-1.938505917E0,-1.370962740E0,2.410587743E0,3.383530300E0
8.296978625E0,-2.208766855E0,-1.439545902E0,2.220658192E0,3.447066322E0
8.307026625E0,-2.524020803E0,-1.545315017E0,2.008871164E0,3.576904090E0
8.317074625E0,-2.472437251E0,-1.830489571E0,1.915635556E0,3.623989185E0
8.327122625E0,-2.173541328E0,-2.292711384E0,1.795984567E0,3.634056681E0
8.337170625E0,-1.810950954E0,-2.718954694E0,1.680709634E0,3.673832176E0
8.347218625E0,-1.618349517E0,-2.659265147E0,1.664183941E0,3.529908564E0
8.357266625E0,-1.523969610E0,-2.195131295E0,1.750022236E0,3.194317235E0
8.367314625E0,-1.307690458E0,-1.390192478E0,1.964372391E0,2.738877206E0
8.377362625E0,-1.047395733E0,-3.033593953E-1,2.048597732E0,2.320736394E0
8.387411625E0,-8.407533778E-1,8.366049975E-1,1.967888029E0,2.297685239E0
8.397459625E0,-7.633639437E-1,1.928691219E0,1.686899789E0,2.673612767E0
8.407507625E0,-6.833051826E-1,2.929244542E0,1.445184957E0,3.337055456E0
8.417555625E0,-5.144335015E-1,3.470043578E0,1.209400079E0,3.710591975E0
8.427603625E0,8.382188290E-2,3.232834902E0,1.293871587E0,3.483152494E0
8.437651625E0,1.283014916E0,2.026225115E0,1.136573592E0,2.653962136E0
8.447699625E0,2.639299244E0,5.334683812E-1,-1.356998420E-1,2.696090403E0
8.457747625E0,3.814905048E0,-1.420551807E-1,-4.251229835E-1,3.841146931E0
8.467795625E0,4.545997916E0,-1.020678855E0,7.488546628E-1,4.718968709E0
8.477843625E0,5.253073053E0,-2.886244118E0,1.234267117E0,6.119525875E0
8.487891625E0,5.320538228E0,-5.352030162E0,1.277980025E0,7.654122211E0
8.497939625E0,4.423559267E0,-8.074677957E0,2.024241009E0,9.426868640E0
8.507988625E0,2.581655638E0,-9.062217717E0,7.609594224E-1,9.453454132E0
8.518036625E0,2.384625521E0,-6.977313454E0,-1.977149434E0,7.634033127E0
8.528084625E0,2.188386385E0,-3.039683828E0,-3.044869723E0,4.827001593E0
8.538132625E0,1.952625627E0,3.337409431E-1,-4.290154749E0,4.725416133E0
8.548180625E0,2.000464037E0,2.479679613E0,-5.419395348E0,6.286534283E0
8.558228625E0,1.731127689E0,3.860017194E0,-5.310478678E0,6.789530146E0
8.568276625E0,1.472552119E0,4.346626573E0,-4.650532683E0,6.533683995E0
8.578324625E0,1.444761034E0,4.385596511E0,-3.865691916E0,6.021990136E0
8.588372625E0,1.370248064E0,4.021530738E0,-3.279271150E0,5.366927288E0
8.598420625E0,1.366279267E0,3.467784798E0,-3.016034764E0,4.794654955E0
8.608468625E0,1.558156672E0,2.744667825E0,-3.052382811E0,4.390682692E0
8.618517625E0,2.027028230E0,1.661704429E0,-3.230770251E0,4.160286224E0
8.628565625E0,2.575230718E0,4.976407367E-1,-3.407495327E0,4.300056274E0
8.638613625E0,2.844549378E0,-5.206892914E-1,-3.675665009E0,4.676867729E0
8.648661625E0,2.845101355E0,-1.337993799E0,-3.850223107E0,4.970819560E0
8.658709625E0,2.474078272E0,-1.862911797E0,-3.997048447E0,5.056471096E0
8.668757625E0,2.065927856E0,-2.025374345E0,-3.990004306E0,4.928522446E0
8.678805625E0,1.721268845E0,-1.420078182E0,-3.583029326E0,4.221076596E0
8.688853625E0,1.309031663E0,-4.768176323E-1,-3.017183157E0,3.323298535E0
8.698901625E0,8.118885246E-1,4.164158946E-1,-2.500283446E0,2.661575189E0
8.708949625E0,3.452383232E-1,1.118677019E0,-2.038447988E0,2.350722862E0
8.718997625E0,-1.087266362E-1,1.450437511E0,-1.530260775E0,2.111229143E0
8.729046625E0,-1.199448995E0,9.396405387E-1,-3.002609557E-1,1.552983862E0
8.739094625E0,-2.103215111E0,1.343573213E-1,1.041043391E-1,2.110071896E0
8.749142625E0,-2.136362392E0,-2.618593669E-1,-3.608358441E-1,2.182387936E0
8.759190625E0,-2.354129952E0,-8.035243750E-1,-5.657508588E-1,2.551010248E0
8.769238625E0,-2.473496182E0,-1.425276942E0,-6.812596073E-1,2.934912669E0
8.779286625E0,-2.581814682E0,-1.849250363E0,-5.585166836E-1,3.224505364E0
8.789334625E0,-2.759525307E0,-2.263994538E0,-2.069867929E-1,3.575401337E0
8.799382625E0,-2.935716240E0,-2.559478903E0,4.359181495E-1,3.919105349E0
8.809430625E0,-3.387428560E0,-2.319598635E0,1.303635560E0,4.307513871E0
8.819478625E0,-3.572059072E0,-1.759474552E0,1.957634352E0,4.437081132E0
8.829526625E0,-3.316677543E0,-1.267252430E0,2.426254773E0,4.300347761E0
8.839574625E0,-2.854285869E0,-7.420970356E-1,2.714465786E0,4.008239057E0
8.849623625E0,-2.068536445E0,-2.795255595E-1,2.751286873E0,3.453484764E0
8.859671625E0,-1.569613121E0,-4.876402438E-2,2.279745183E0,2.768266855E0
8.869719625E0,-1.474872440E0,9.551719129E-2,1.492226976E0,2.100265125E0
8.879767625E0,-1.521290854E0,4.261146712E-1,7.893460464E-1,1.766059670E0
8.889815625E0,-1.478255054E0,9.131777948E-1,-4.680075959E-1,1.799489594E0
8.899863625E0,-1.531899457E0,9.766592610E-1,-2.038192027E0,2.730349061E0
8.909911625E0,-1.307269605E0,8.956402409E-1,-2.635334247E0,3.075079163E0
8.919959625E0,-8.903300920E-1,1.096401467E0,-2.142746090E0,2.566348506E0
8.930007625E0,-5.834126660E-1,1.041370981E0,-1.350806218E0,1.802637318E0
8.940055625E0,-8.417066932E-2,9.425951368E-1,-4.993860575E-1,1.070026508E0
8.950103625E0,8.905511168E-1,8.953589898E-1,4.452292923E-1,1.339021335E0
8.960152625E0,1.802126482E0,1.067303383E0,1.980972344E0,2.882888793E0
8.970200625E0,2.447919876E0,1.334408872E0,3.886480522E0,4.783062785E0
8.980248625E0,2.744448262E0,1.317963578E0,5.347783914E0,6.153683209E0
8.990296625E0,2.284087033E0,5.122143370E-1,5.399339983E0,5.884920506E0
9.000344625E0,1.507860092E0,-4.459987128E-1,3.836396781E0,4.146142445E0
9.010392625E0,1.061711398E0,-7.746730435E-1,2.228936387E0,2.587567745E0
9.020440625E0,8.598038256E-1,-5.009403205E-1,1.627681235E0,1.907760474E0
9.030488625E0,8.612249914E-1,2.071984255E-1,1.761314817E0,1.971514534E0
9.040536625E0,9.876827243E-1,8.993959075E-1,2.029091566E0,2.429329691E0
9.050584625E0,1.055247594E0,1.126656715E0,2.015764300E0,2.538938469E0
9.060632625E0,8.550111553E-1,9.019944102E-1,1.944594330E0,2.307831255E0
9.070681625E0,3.668566489E-1,4.515015274E-1,1.573643607E0,1.677734077E0
9.080729625E0,-6.071602553E-2,1.779342806E-1,1.294924525E0,1.308501650E0
9.090777625E0,-5.872300208E-1,-1.943439066E-2,1.075110147E0,1.225185137E0
9.100825625E0,-1.331313063E0,-4.108189398E-1,7.732241765E-1,1.593437260E0
9.110873250E0,-2.048769932E0,-7.801700109E-1,5.784241871E-1,2.267310746E0
9.120921250E0,-2.641850677E0,-1.085540264E0,4.237500572E-1,2.887444679E0
9.130969250E0,-3.141926194E0,-1.383551211E0,2.189197540E-1,3.440034887E0
9.141017250E0,-3.591349036E0,-1.642078249E0,1.160320743E-1,3.950654670E0
9.151065250E0,-3.961652911E0,-2.102748211E0,3.001960516E-3,4.485114585E0
9.161113250E0,-4.194307190E0,-2.581700077E0,-2.932296789E-1,4.933900256E0
9.171161250E0,-4.491681083E0,-2.935677649E0,-7.957370532E-1,5.424628989E0
9.181210250E0,-4.810221897E0,-3.306215120E0,-1.654587783E0,6.066873482E0
9.191258250E0,-5.044456093E0,-3.781031835E0,-2.973105676E0,6.970085823E0
9.201306250E0,-5.580682021E0,-4.008960394E0,-3.504679559E0,7.713530585E0
9.211354250E0,-6.342663099E0,-4.009922846E0,-3.731349213E0,8.380442910E0
9.221402250E0,-7.208176146E0,-3.968374870E0,-4.560830548E0,9.407814717E0
9.231450250E0,-7.743622055E0,-3.628347001E0,-4.475969907E0,9.652092576E0
9.241498250E0,-7.623519076E0,-3.230828138E0,-2.752910060E0,8.725526194E0
9.251546250E0,-6.851165623E0,-3.183157543E0,-1.182916212E0,7.646584408E0
9.261594250E0,-5.929964279E0,-3.422456013E0,-5.557303391E-2,6.846953328E0
9.271642250E0,-5.335052186E0,-3.672066633E0,8.674530070E-1,6.534472427E0
9.281690250E0,-5.087378749E0,-3.674022526E0,1.488085978E0,6.449361514E0
9.291738250E0,-5.046241833E0,-3.950307559E0,1.792715242E0,6.654570939E0
9.301787250E0,-4.736584694E0,-4.509128882E0,2.577787413E0,7.029400101E0
9.311835250E0,-2.843160956E0,-3.979616143E0,4.684095701E0,6.772123847E0
9.321883250E0,-9.056670463E-1,-3.658695804E0,7.453086773E0,8.351933323E0
9.331931250E0,9.527856642E-1,-3.275702595E0,1.059609616E1,1.113172412E1
9.341979250E0,5.663645241E-1,-3.329863014E0,9.487826604E0,1.007112755E1
9.352027250E0,-3.622800332E-1,-3.798942441E0,6.092002319E0,7.188581414E0
9.362075250E0,2.118835071E0,-4.496032873E0,6.771445270E0,8.399776467E0
9.372123250E0,6.058497773E0,-5.090153838E0,6.741155523E0,1.039510650E1
9.382171250E0,7.670026660E0,-4.792221243E0,5.650737512E0,1.066421717E1
9.392219250E0,7.387664616E0,-4.445715829E0,4.002851223E0,9.506039955E0
9.402267250E0,6.586832299E0,-4.180843391E0,1.861686805E0,8.020703770E0
9.412316250E0,5.706334593E0,-3.559859149E0,6.091388069E-2,6.725961801E0
9.422364250E0,4.979900494E0,-2.941447681E0,-1.330094796E0,5.934700966E0
9.432412250E0,3.653612235E0,-2.531542661E0,-3.062088019E0,5.397589615E0
9.442460250E0,1.531859404E0,-2.678041141E0,-4.179599104E0,5.194953922E0
9.452508250E0,-5.552444355E-1,-3.422351348E0,-4.317054280E0,5.536943452E0
9.462556250E0,-1.999903728E0,-4.264279650E0,-4.877668945E0,6.780512532E0
9.472604250E0,-1.880285629E0,-5.059103953E0,-4.735662881E0,7.180286190E0
9.482652250E0,-6.006322776E-1,-5.253519781E0,-2.878132861E0,6.020288862E0
9.492700250E0,3.479798634E-1,-4.658193705E0,-7.516239041E-1,4.731257452E0
9.502748250E0,1.115181042E0,-3.302619667E0,-1.437672454E-1,3.488781226E0
9.512797250E0,1.990163290E0,-1.832878159E0,-4.415058585E-1,2.741371862E0
9.522845250E0,2.581284048E0,-9.333886957E-1,-1.273382797E0,3.025846252E0
9.532893250E0,2.714220203E0,-1.823448354E-1,-2.693058253E0,3.827898079E0
9.542941250E0,2.326755481E0,1.956215233E-1,-4.166234123E0,4.775936099E0
9.552989250E0,1.947081443E0,5.991519088E-1,-4.822576186E0,5.235202979E0
9.563037250E0,1.935414348E0,7.923573625E-1,-4.778593138E0,5.216187426E0
9.573085250E0,2.217171205E0,1.140613434E0,-4.935516618E0,5.529572447E0
9.583133250E0,2.768753091E0,1.601926004E0,-4.796979707E0,5.765689457E0
9.593181250E0,3.301083311E0,1.963617223E0,-4.734527644E0,6.096613456E0
9.603229250E0,3.202124156E0,2.375892704E0,-4.752711315E0,6.203767412E0
9.613277250E0,3.160721192E0,2.959952949E0,-4.557144755E0,6.286417759E0
9.623325250E0,2.830260537E0,2.574810888E0,-4.326319778E0,5.775557863E0
9.633374250E0,2.687201097E0,2.431896166E0,-4.359587511E0,5.669318475E0
9.643422250E0,2.717620651E0,2.579388673E0,-4.246624275E0,5.663261045E0
9.653470250E0,2.699558602E0,2.523982796E0,-4.153887727E0,5.559936066E0
9.663518250E0,2.856427996E0,2.523734874E0,-4.020886960E0,5.540392636E0
9.673566250E0,3.100173858E0,2.658093950E0,-3.862354910E0,5.620883102E0
9.683614250E0,3.372619025E0,2.882224742E0,-3.725190633E0,5.792997825E0
9.693662250E0,3.526447282E0,3.378535237E0,-3.654498088E0,6.099646470E0
9.703710250E0,3.738561169E0,3.784726106E0,-3.699485981E0,6.479752143E0
9.713758250E0,4.048628490E0,4.510310020E0,-3.487964709E0,6.992866861E0
9.723806250E0,4.282956827E0,5.092914308E0,-3.406053111E0,7.475472770E0
9.733855250E0,4.333860932E0,5.340275504E0,-3.226719007E0,7.596881504E0
9.743903250E0,4.321986699E0,5.517593488E0,-2.982782233E0,7.617112102E0
9.753951250E0,4.266471479E0,5.517155532E0,-2.781080775E0,7.508408242E0
9.763999250E0,4.188029619E0,5.450020140E0,-2.529981455E0,7.324146215E0
9.774047250E0,4.164211864E0,5.449102128E0,-2.246454645E0,7.216642773E0
9.784095250E0,4.118363553E0,5.292244720E0,-2.074223154E0,7.019342863E0
9.794143250E0,4.108003457E0,5.094438677E0,-1.874130850E0,6.807449176E0
9.804191250E0,4.154682949E0,4.888513191E0,-1.554604780E0,6.601192895E0
9.814239250E0,3.845802612E0,4.386641409E0,-1.392900616E0,5.997748970E0
9.824287250E0,3.456230115E0,3.882592708E0,-1.308082075E0,5.360142859E0
9.834335250E0,2.880776094E0,3.486740302E0,-1.011941360E0,4.634679509E0
9.844384250E0,2.153572356E0,3.173219030E0,-6.879667291E-1,3.896214974E0
9.854432250E0,1.468171677E0,2.797886842E0,-2.116183358E-1,3.166777728E0
9.864480250E0,8.291028006E-1,2.021384790E0,7.444300747E-1,2.308155987E0
9.874528250E0,-1.332741246E-1,8.102393174E-1,2.332374071E0,2.472694593E0
9.884576250E0,-1.641902102E0,-6.997064763E-1,3.662185423E0,4.073945721E0
9.894624250E0,-3.476705895E0,-2.581266214E0,3.537737670E0,5.591601467E0
9.904672250E0,-5.057643903E0,-4.709736911E0,3.445993980E0,7.722451562E0
9.914720250E0,-6.131004417E0,-6.846479664E0,3.541222611E0,9.849048509E0
9.924768250E0,-6.698845071E0,-8.668343423E0,3.590260577E0,1.152842895E1
9.934816250E0,-6.443170888E0,-9.944317560E0,3.535153493E0,1.236532301E1
9.944865250E0,-5.274041753E0,-1.043162217E1,3.849164177E0,1.230651545E1
9.954913250E0,-4.182298763E0,-1.019625537E1,4.560734653E0,1.192709299E1
9.964961250E0,-4.614366777E0,-8.470373073E0,5.465796513E0,1.108668265E1
9.975009250E0,-5.608227670E0,-4.517433098E0,5.391336899E0,8.995884223E0
9.985057250E0,-4.289234397E0,-1.065560912E0,3.202251626E0,5.457780432E0
9.995105250E0,-2.775156669E0,7.638691431E-1,3.407406449E-2,2.878567638E0
1.000515325E1,-1.120992882E0,2.117798944E0,-1.746167459E0,2.964928027E0
1.001520125E1,4.765345174E-1,3.294108460E0,-9.856769831E-1,3.471281436E0
1.002524925E1,2.179037711E0,4.281184536E0,-1.125847752E-1,4.805145336E0
1.003529725E1,3.668393119E0,4.540700338E0,1.705795066E-1,5.839877140E0
1.004534525E1,5.046783870E0,3.908732101E0,7.184952613E-1,6.423741084E0
1.005539425E1,6.430764851E0,2.138284664E0,1.253085796E0,6.891822828E0
1.006544225E1,7.355103811E0,-6.918478185E-1,1.306962041E0,7.502290001E0
1.007549025E1,7.490573857E0,-4.806600716E0,2.211062618E0,9.170654560E0
1.008553825E1,5.328216206E0,-1.044208869E1,5.707908663E0,1.303868573E1
1.009558625E1,2.495274429E0,-1.393413008E1,4.618758329E0,1.489024190E1
1.010563425E1,1.471516869E0,-1.395172318E1,5.869215801E-2,1.402923328E1
1.011568267E1,7.267634435E-1,-1.156966576E1,-2.528430188E0,1.186500358E1
1.012573067E1,5.833525859E-1,-6.383414099E0,-3.982018763E0,7.546174476E0
1.013577867E1,6.919511680E-1,-1.368198177E0,-4.375569706E0,4.636418113E0
1.014582667E1,3.659225562E-1,2.073657144E0,-4.204871939E0,4.702648328E0
1.015587467E1,-1.461974944E-1,4.351677398E0,-3.652937467E0,5.683521973E0
1.016592367E1,-8.440758388E-1,5.793719476E0,-3.208972415E0,6.676612416E0
1.017597167E1,-1.162917492E0,6.516551691E0,-3.033402164E0,7.281438849E0
1.018601967E1,-1.814525795E0,7.145061885E0,-2.899021454E0,7.921410139E0
1.019606767E1,-2.196973752E0,7.489468734E0,-2.568562553E0,8.216833281E0
1.020611567E1,-1.757599058E0,6.297414420E0,-2.175915151E0,6.890659589E0
1.021616367E1,-8.784008950E-1,3.882661121E0,-2.264382793E0,4.579746166E0
1.022621167E1,-9.880420357E-2,1.397942963E0,-2.741601545E0,3.079023518E0
1.023625967E1,5.537105647E-1,-9.079702646E-1,-3.301967118E0,3.469004502E0
1.024630767E1,1.080435352E0,-3.043678061E0,-3.967628181E0,5.115993556E0
1.025635567E1,1.006970935E0,-4.314741122E0,-4.324690744E0,6.191440175E0
1.026640467E1,4.836483496E-1,-4.476003821E0,-4.157269172E0,6.127920765E0
1.027645267E1,-2.726536193E-1,-3.483675191E0,-3.707336453E0,5.094573231E0
1.028650067E1,-4.565406579E-1,-1.428671250E0,-3.204620333E0,3.538237187E0
1.029654867E1,-7.874649972E-2,3.839989311E-1,-3.040941564E0,3.066102051E0
1.030659667E1,-1.107266763E-1,1.683593481E0,-2.927966926E0,3.379310243E0
1.031664467E1,-3.520389274E-1,2.679959028E0,-2.758819841E0,3.862278953E0
1.032669267E1,-5.108303010E-1,3.454477120E0,-2.643781720E0,4.379947665E0
1.033674067E1,-5.724532297E-1,3.841095019E0,-2.535356215E0,4.637859936E0
1.034678867E1,-6.436726087E-1,3.222896975E0,-2.194782216E0,3.952018258E0
1.035683667E1,-5.315963951E-1,1.960075564E0,-1.784696517E0,2.703633223E0
1.036688467E1,-4.504694939E-1,7.441809833E-1,-1.290451697E0,1.556275581E0
1.037693367E1,-3.297809163E-1,-3.647797179E-1,-8.626957123E-1,9.930073451E-1
1.038698167E1,-5.708315045E-2,-1.188346009E0,-5.971269449E-1,1.331159386E0
1.039702967E1,1.827102864E-1,-1.496799499E0,-3.375287694E-1,1.545224080E0
1.040707767E1,3.875669020E-1,-1.377835557E0,-7.917835314E-2,1.433495078E0
1.041712567E1,4.498306856E-1,-9.177596730E-1,3.525081664E-1,1.081153306E0
1.042717367E1,3.025264594E-1,-5.107665664E-1,9.756979787E-1,1.142099510E0
1.043722167E1,1.409936187E-1,-1.451156133E-1,1.619868186E0,1.632455414E0
1.044726967E1,5.742404312E-2,2.657378250E-1,2.184994562E0,2.201843625E0
1.045731767E1,1.117794675E-1,5.019711846E-1,2.634044352E0,2.683777071E0
1.046736567E1,3.016914770E-1,6.708095366E-1,2.839710807E0,2.933421321E0
1.047741467E1,4.351293236E-1,6.510903865E-1,2.778082323E0,2.886346759E0
1.048746267E1,4.632260719E-1,5.220259649E-1,2.497585541E0,2.593264938E0
1.049751067E1,4.472897780E-1,2.201412374E-1,2.114769502E0,2.172735685E0
1.050755867E1,3.790995491E-1,-2.719925916E-1,1.745741197E0,1.807016537E0
1.051760667E1,2.962088352E-1,-4.972793788E-1,1.487013453E0,1.595692785E0
1.052765467E1,9.887466252E-2,-5.158682621E-1,1.386854303E0,1.482990600E0
1.053770267E1,-1.385111833E-1,-2.979074514E-1,1.354558961E0,1.393830756E0
1.054775067E1,-2.920736843E-1,9.867936552E-2,1.293987801E0,1.330206406E0
1.055779867E1,-4.398655683E-1,3.877885115E-1,1.164424904E0,1.303743458E0
1.056784667E1,-5.619738498E-1,7.545358175E-1,1.059953871E0,1.417265366E0
1.057789567E1,-6.020769784E-1,9.121779209E-1,9.210415690E-1,1.429294518E0
1.058794367E1,-6.233690295E-1,6.693664438E-1,8.381597722E-1,1.240625724E0
1.059799167E1,-6.841356334E-1,3.400869262E-1,8.153734651E-1,1.117378436E0
1.060803967E1,-9.160768443E-1,4.330506384E-2,8.595197971E-1,1.256919407E0
1.061808767E1,-1.160686340E0,-2.464385051E-1,8.597523701E-1,1.465298214E0
1.062813567E1,-1.455577213E0,-5.104285973E-1,8.280965678E-1,1.750710228E0
1.063818367E1,-1.840986200E0,-7.238858825E-1,7.676774347E-1,2.121925919E0
1.064823167E1,-2.299724242E0,-8.322353733E-1,6.407320440E-1,2.528217723E0
1.065827967E1,-2.751702610E0,-9.181526059E-1,4.700483108E-1,2.938676041E0
1.066832767E1,-3.177146605E0,-1.035355366E0,2.798687911E-1,3.353289106E0
1.067837567E1,-3.617436097E0,-1.184978598E0,5.226928398E-2,3.806934498E0
1.068842467E1,-3.975237455E0,-1.326156696E0,-2.320490190E-1,4.197028848E0
1.069847267E1,-4.273188176E0,-1.400552575E0,-4.272117551E-1,4.517100241E0
1.070852067E1,-4.471603791E0,-1.552022358E0,-6.600149918E-1,4.779082930E0
1.071856867E1,-4.536499699E0,-1.879441876E0,-9.394182714E-1,4.999463768E0
1.072861667E1,-4.605857909E0,-2.241498545E0,-1.018308978E0,5.222566034E0
1.073866467E1,-4.754130142E0,-2.660505341E0,-1.075973049E0,5.553175675E0
1.074871267E1,-4.869990381E0,-3.077221198E0,-9.504171033E-1,5.838611931E0
1.075876067E1,-4.986069891E0,-3.484491463E0,-7.406198828E-1,6.127894542E0
1.076880867E1,-5.063323889E0,-3.751433814E0,-2.432348156E-1,6.306319659E0
1.077885667E1,-4.897976909E0,-4.031201448E0,7.951640260E-1,6.393203325E0
1.078890567E1,-4.736622409E0,-4.447403920E0,1.838929735E0,6.752529603E0
1.079895367E1,-4.710362563E0,-4.916528370E0,2.835492625E0,7.375620999E0
1.080900167E1,-4.934491017E0,-5.442838005E0,4.403776382E0,8.565449992E0
1.081904967E1,-4.936249859E0,-5.756707771E0,6.575871109E0,1.003734665E1
1.082909767E1,-4.120405693E0,-5.235022699E0,6.948060418E0,9.625941477E0
1.083914567E1,-2.888533888E0,-4.165685654E0,5.969213129E0,7.831224066E0
1.084919367E1,-1.775713732E0,-3.094721330E0,5.280053276E0,6.372552233E0
1.085924167E1,-5.808094856E-1,-2.078948289E0,5.192278383E0,5.623088160E0
1.086928967E1,5.669682491E-1,-1.438161281E0,4.914174281E0,5.151589049E0
1.087933767E1,1.527634498E0,-1.154312291E0,3.609288586E0,4.085715130E0
1.088938667E1,2.491177577E0,-1.419035624E0,2.131817644E0,3.572712455E0
1.089943467E1,3.594772289E0,-2.314794563E0,1.084439818E0,4.410971707E0
1.090948267E1,4.818427002E0,-3.439068537E0,3.175494182E-1,5.928344525E0
1.091953067E1,5.930063682E0,-4.187492260E0,-1.048674738E-1,7.260285386E0
1.092957867E1,6.534055915E0,-4.386333845E0,-5.726523274E-1,7.890611003E0
1.093962667E1,6.725140584E0,-4.197388088E0,-9.011646903E-1,7.978576342E0
1.094967467E1,6.638150387E0,-3.681538537E0,-5.011695313E-1,7.607229290E0
1.095972267E1,5.957998170E0,-2.782259574E0,2.482586702E-1,6.580299605E0
1.096977067E1,5.103515310E0,-2.022263626E0,4.499338889E-1,5.507981409E0
1.097981867E1,4.906155410E0,-1.452831945E0,-5.551557040E-1,5.146773691E0
1.098986767E1,5.252150947E0,-1.170397396E0,-2.147905673E0,5.793825888E0
1.099991567E1,5.570428929E0,-1.089719269E0,-3.633331168E0,6.739307228E0
1.100996367E1,5.242608292E0,-1.261055551E0,-4.599892287E0,7.087609742E0
1.102001167E1,3.875255622E0,-1.402426023E0,-3.206496704E0,5.221688041E0
1.103005967E1,2.184964595E0,-1.398683220E0,3.128054260E-1,2.613088645E0
1.104010767E1,1.357595420E0,-1.227814130E0,1.186025907E0,2.181112174E0
1.105015567E1,9.704186008E-1,-9.584837759E-1,-5.032341832E-1,1.453839074E0
1.106020367E1,6.165558538E-1,-2.397767723E-1,-1.456936106E0,1.600092759E0
1.107025167E1,1.329014230E0,8.362483174E-1,-1.120819439E0,1.929203537E0
1.108029967E1,1.896176315E0,1.533883710E0,-1.230330772E0,2.731665730E0
1.109034867E1,2.040227589E0,1.923068537E0,-1.813592872E0,3.339137660E0
1.110039667E1,2.568359947E0,2.705914818E0,-1.958171126E0,4.213416901E0
1.111044467E1,3.294437073E0,3.263799418E0,-1.517762498E0,4.879477971E0
1.112049242E1,3.339419703E0,3.361388277E0,-1.541882262E0,4.982775935E0
1.113054042E1,3.305375752E0,3.319778906E0,-2.031166597E0,5.106082509E0
1.114058842E1,3.318775524E0,3.331394400E0,-2.447946188E0,5.301405490E0
1.115063642E1,3.454200839E0,3.513404775E0,-2.564129779E0,5.554302663E0
1.116068442E1,3.550092545E0,3.906786148E0,-2.699989834E0,5.929256293E0
1.117073242E1,3.689712945E0,4.382031464E0,-2.492296734E0,6.247217331E0
1.118078042E1,3.833025569E0,4.573337742E0,-2.131783145E0,6.336560778E0
1.119082942E1,3.944273232E0,4.687148532E0,-1.766641631E0,6.375552944E0
1.120087742E1,4.054325432E0,4.800414362E0,-1.436190185E0,6.445477097E0
1.121092542E1,4.186513729E0,5.041102130E0,-1.029833255E0,6.633261975E0
1.122097342E1,4.014288670E0,5.203644785E0,-6.624740383E-1,6.605399642E0
1.123102142E1,3.592443635E0,5.083963975E0,-3.792802280E-1,6.236681366E0
1.124106942E1,3.097879119E0,4.934495695E0,-2.568895259E-1,5.831988942E0
1.125111742E1,2.351302531E0,4.268161617E0,-1.265518731E-1,4.874612042E0
1.126116542E1,1.872377562E0,3.565608131E0,-1.081910312E-1,4.028779515E0
1.127121342E1,1.467832685E0,2.945212119E0,-1.809912050E-1,3.295688855E0
1.128126142E1,8.672359291E-1,2.334764559E0,-1.230255635E-1,2.493663769E0
1.129131042E1,4.213199179E-1,1.841948944E0,1.077934206E-2,1.889550894E0
1.130135842E1,-2.247632421E-1,1.403374441E0,2.028618380E-1,1.435664049E0
1.131140642E1,-8.964796818E-1,9.234279639E-1,3.889012367E-1,1.344484733E0
1.132145442E1,-1.385709710E0,6.140342420E-1,6.541256762E-1,1.650790675E0
1.133150242E1,-1.812491987E0,4.805984420E-1,9.669587302E-1,2.109765687E0
1.134155042E1,-1.998478176E0,4.175496697E-1,1.555058670E0,2.566411934E0
1.135159842E1,-2.067077272E0,1.552967852E-1,2.337797071E0,3.124455262E0
1.136164642E1,-2.054212667E0,-5.031125611E-1,3.155825903E0,3.798966841E0
1.137169442E1,-2.257038398E0,-1.600046124E0,3.949210036E0,4.821890692E0
1.138174242E1,-3.140157996E0,-3.078991735E0,4.456001666E0,6.260729445E0
1.139179142E1,-4.197153615E0,-4.801477970E0,4.744786291E0,7.948791488E0
1.140183942E1,-5.240809688E0,-6.763998256E0,4.653446351E0,9.740242375E0
1.141188742E1,-5.381041122E0,-8.144476755E0,4.339082496E0,1.068249700E1
1.142193542E1,-4.203753659E0,-7.829577295E0,4.136541962E0,9.802285695E0
1.143198342E1,-2.673666839E0,-5.713615546E0,3.922856635E0,7.428505984E0
1.144203142E1,-1.055941585E0,-3.113283901E0,3.355095504E0,4.697256126E0
1.145207942E1,3.581843145E-1,-5.844783211E-1,2.681724302E0,2.767951615E0
1.146212742E1,1.435764215E0,1.687142156E0,2.128578286E0,3.072248860E0
1.147217542E1,2.503026960E0,3.739289732E0,1.760447529E0,4.831832692E0
1.148222442E1,3.414703774E0,5.354803496E0,1.242301046E0,6.471277636E0
1.149227242E1,4.344234770E0,5.765621266E0,5.114043514E-1,7.237147140E0
1.150232042E1,4.971194574E0,4.801630583E0,-2.581821992E-1,6.916291622E0
1.151236842E1,5.062138073E0,3.506998565E0,-4.910545792E-1,6.177816395E0
1.152241642E1,5.594115415E0,1.831636795E0,-5.250191545E-1,5.909709446E0
1.153246442E1,6.114526379E0,-3.498891985E-1,-9.988460822E-1,6.205445091E0
1.154251242E1,6.378638678E0,-3.589742514E0,-1.441838011E0,7.460038843E0
1.155256042E1,6.690292933E0,-8.941256951E0,-3.346430223E-1,1.117220128E1
1.156260842E1,4.029655445E0,-1.530802110E1,2.905270958E0,1.609391911E1
1.157265642E1,-6.213185571E-2,-1.560143322E1,-2.018482963E-1,1.560286260E1
1.158270442E1,-5.545049089E-1,-8.888595173E0,-4.651273525E0,1.004733523E1
1.159275342E1,1.779988485E0,-2.525992484E0,-5.773886890E0,6.548798887E0
1.160280142E1,3.085458755E0,1.369182263E0,-5.548567944E0,6.494714930E0
1.161284942E1,2.949491988E0,3.790973271E0,-4.348127553E0,6.478980981E0
1.162289742E1,2.232614286E0,5.412355886E0,-3.458725707E0,6.800069580E0
1.163294542E1,1.551940204E0,6.461046996E0,-2.974590869E0,7.280236090E0
1.164299342E1,9.068591474E-1,7.185497720E0,-2.760973370E0,7.750918974E0
1.165304142E1,4.349615085E-1,7.543449059E0,-2.512642706E0,7.962800298E0
1.166308942E1,1.975310777E-1,7.236830426E0,-2.082328711E0,7.533048918E0
1.167313742E1,6.438771151E-1,5.879203430E0,-1.578498550E0,6.121377981E0
1.168318642E1,1.655317661E0,3.814042291E0,-1.655718049E0,4.475309757E0
1.169323442E1,2.701813581E0,1.558326241E0,-1.966915053E0,3.687401812E0
1.170328242E1,3.676998759E0,-6.791868424E-1,-2.358926277E0,4.421102557E0
1.171333042E1,4.440539873E0,-2.745415683E0,-2.920747953E0,5.982179389E0
1.172337842E1,4.603944992E0,-4.191405802E0,-3.555663772E0,7.169863105E0
1.173342642E1,3.814963228E0,-4.309197376E0,-4.087750456E0,7.059237228E0
1.174347442E1,2.904501464E0,-3.042389334E0,-3.864574806E0,5.712022413E0
1.175352242E1,2.076476963E0,-1.235626595E0,-3.225956238E0,4.030548761E0
1.176357042E1,1.483901418E0,3.598733193E-1,-2.602631355E0,3.017476130E0
1.177361942E1,1.020849447E0,1.526062474E0,-2.325664537E0,2.963058522E0
1.178366742E1,6.156317014E-1,2.348910143E0,-2.116366230E0,3.221084797E0
1.179371542E1,2.625775512E-1,2.885624898E0,-2.266415285E0,3.678643265E0
1.180376342E1,-1.978294319E-1,2.674832774E0,-2.274634132E0,3.516792187E0
1.181381142E1,-7.966652986E-1,2.054898106E0,-1.397397417E0,2.609597932E0
1.182385942E1,-1.093693036E0,1.338270373E0,-5.411024328E-1,1.811056016E0
1.183390742E1,-1.056457090E0,5.913856369E-1,-5.566432357E-2,1.211997142E0
1.184395542E1,-7.547144499E-1,-7.845150769E-2,2.536463678E-1,8.000531357E-1
1.185400342E1,-2.881335381E-1,-7.318562222E-1,4.202651167E-1,8.917719630E-1
1.186405142E1,-1.640407115E-2,-1.374182802E0,5.427233541E-1,1.477564248E0
1.187410042E1,-7.421490759E-2,-2.004915522E0,5.604076366E-1,2.083086850E0
1.188414842E1,-6.325245997E-1,-2.484725760E0,5.015870591E-1,2.612573262E0
1.189419642E1,-1.548141853E0,-2.589802564E0,6.430030295E-1,3.085007846E0
1.190424442E1,-2.412347755E0,-2.309955407E0,9.942757523E-1,3.484809887E0
1.191429242E1,-2.921976453E0,-1.813563636E0,1.113818641E0,3.614906834E0
1.192434042E1,-2.994681610E0,-1.186466129E0,1.093510019E0,3.401703100E0
1.193438842E1,-2.839157660E0,-5.110139036E-1,9.638374865E-1,3.041534831E0
1.194443642E1,-2.792647153E0,-7.372812688E-2,8.387024669E-1,2.916802322E0
1.195448442E1,-2.885899717E0,2.301756442E-1,7.934028447E-1,3.001813798E0
1.196453242E1,-3.072505126E0,4.168620372E-1,8.332258916E-1,3.210658359E0
1.197458142E1,-3.320784042E0,3.971551663E-1,9.003612097E-1,3.463522656E0
1.198462942E1,-3.271553995E0,2.235864168E-1,8.967956507E-1,3.399602751E0
1.199467742E1,-2.718463235E0,-1.423212290E-1,8.895521931E-1,2.863843710E0
1.200472542E1,-2.000701434E0,-4.776531994E-1,9.344623907E-1,2.259242963E0
1.201477342E1,-1.485476073E0,-6.815111107E-1,1.091053019E0,1.965068255E0
1.202482142E1,-1.232559438E0,-8.255327100E-1,1.317054774E0,1.983769216E0
1.203486942E1,-1.126560820E0,-8.284943247E-1,1.541760056E0,2.081481731E0
1.204491742E1,-9.979758704E-1,-7.120885402E-1,1.731016738E0,2.121189495E0
1.205496542E1,-8.265963185E-1,-5.221791619E-1,1.909293520E0,2.145072096E0
1.206501442E1,-6.337466678E-1,-2.877917683E-1,2.085922848E0,2.198984554E0
1.207506242E1,-3.733733708E-1,3.105397761E-2,2.239662666E0,2.270784199E0
1.208511042E1,-1.533344597E-1,2.117113066E-1,2.378026207E0,2.392350680E0
1.209515842E1,-8.411658257E-2,1.719233429E-1,2.498371407E0,2.505692104E0
1.210520642E1,-2.495398682E-1,6.901000857E-2,2.506938747E0,2.520272685E0
1.211525404E1,-5.909573284E-1,9.168843448E-2,2.405445117E0,2.478669712E0
1.212530204E1,-8.947842085E-1,2.119007564E-1,2.199888736E0,2.384334532E0
1.213535004E1,-1.211593662E0,2.751091576E-1,1.904832679E0,2.274210145E0
1.214539804E1,-1.510373225E0,2.423173875E-1,1.609289257E0,2.220305589E0
1.215544704E1,-1.790590510E0,7.792701244E-2,1.412068666E0,2.281715344E0
1.216549504E1,-2.022934302E0,-2.412824303E-1,1.274282684E0,2.402972484E0
1.217554304E1,-2.176873949E0,-6.320664704E-1,1.168027227E0,2.550014866E0
1.218559104E1,-2.277494882E0,-1.018139409E0,1.016522069E0,2.693864865E0
1.219563904E1,-2.318647586E0,-1.378103360E0,8.427075903E-1,2.825854133E0
1.220568704E1,-2.327968048E0,-1.783883169E0,6.594770479E-1,3.006091211E0
1.221573504E1,-2.302389695E0,-2.216333299E0,5.015731354E-1,3.234919969E0
1.222578304E1,-2.370148399E0,-2.623606487E0,4.526541598E-1,3.564521037E0
1.223583104E1,-2.499557514E0,-3.126939488E0,5.750070012E-1,4.044276373E0
1.224587904E1,-2.633678024E0,-3.735817655E0,7.530161262E-1,4.632453645E0
1.225592804E1,-2.906314686E0,-4.249231256E0,8.635916519E-1,5.220002094E0
1.226597604E1,-3.373721517E0,-4.541315466E0,9.020407493E-1,5.728806206E0
1.227602404E1,-3.785625115E0,-4.665878701E0,9.838631769E-1,6.088461900E0
1.228607204E1,-3.929092983E0,-4.628860563E0,1.223753093E0,6.193681733E0
1.229612004E1,-3.805978688E0,-4.221790858E0,1.551934065E0,5.892155053E0
1.230616804E1,-3.676261425E0,-3.580189333E0,2.094077667E0,5.542365470E0
1.231621604E1,-3.541602095E0,-3.016344082E0,2.782721504E0,5.420776327E0
1.232626404E1,-2.963471511E0,-2.417606741E0,3.908321042E0,5.468268384E0
1.233631204E1,-1.837479333E0,-1.739949530E0,5.342734258E0,5.911731051E0
1.234636104E1,-8.128249562E-1,-1.264822912E0,5.834147125E0,6.024760086E0
1.235640904E1,-4.257036120E-1,-1.336261269E0,5.047493137E0,5.238702579E0
1.236645704E1,9.989120096E-2,-1.545689823E0,3.615508854E0,3.933324237E0
1.237650504E1,1.466509460E0,-1.904562684E0,2.412070012E0,3.405303328E0
1.238655304E1,3.398947575E0,-2.308321111E0,1.395885912E0,4.339318892E0
1.239660104E1,4.986926508E0,-2.857104519E0,1.040082840E0,5.840740924E0
1.240664904E1,5.738982521E0,-2.895018450E0,1.459728152E0,6.591498956E0
1.241669704E1,5.725369034E0,-2.567745112E0,1.743761914E0,6.512593274E0
1.242674504E1,4.765578405E0,-2.262495312E0,1.946957921E0,5.623190173E0
1.243679404E1,3.403657215E0,-2.041652994E0,1.887556057E0,4.395008219E0
1.244684204E1,2.585535266E0,-1.777078764E0,1.265758467E0,3.383067549E0
1.245689004E1,2.261558150E0,-1.415441925E0,2.057605952E-1,2.675903311E0
1.246693804E1,2.308797220E0,-1.123317955E0,-1.004506114E0,2.757067348E0
1.247698604E1,2.459754640E0,-8.687594211E-1,-2.260030711E0,3.451503243E0
1.248703404E1,2.274714385E0,-6.530199677E-1,-4.154666576E0,4.781423948E0
1.249708204E1,1.417466816E0,-9.073118681E-1,-5.580667403E0,5.828917195E0
1.250713004E1,8.105385487E-1,-1.102169160E0,-5.049882309E0,5.231927077E0
1.251717804E1,5.808178179E-1,-5.922381610E-1,-3.163951778E0,3.270884625E0
1.252722604E1,3.980722290E-1,-2.618967891E-3,-2.404416007E0,2.437146834E0
1.253727504E1,4.762174156E-1,4.021621370E-1,-2.592303418E0,2.666187244E0
1.254732304E1,6.804339074E-1,8.017444825E-1,-2.665725151E0,2.865636944E0
1.255737104E1,1.185545339E0,1.111189660E0,-2.137555516E0,2.685033295E0
1.256741904E1,1.359619142E0,1.264513595E0,-1.300786212E0,2.267069388E0
1.257746704E1,1.304315884E0,1.109016250E0,-8.946515498E-1,1.931724194E0
1.258751504E1,1.416566344E0,7.508994341E-1,-1.057101746E0,1.920409922E0
1.259756304E1,1.610233728E0,6.298304951E-1,-1.720058472E0,2.438880944E0
1.260761104E1,1.971951552E0,8.320535249E-1,-1.977896854E0,2.914272115E0
1.261766004E1,2.257561724E0,1.361199644E0,-2.179478883E0,3.420464531E0
1.262770804E1,2.682261369E0,1.823439583E0,-2.712872420E0,4.228372587E0
1.263775604E1,3.086073298E0,2.261217111E0,-3.327877885E0,5.070672779E0
1.264780404E1,3.502319039E0,2.724905405E0,-3.502561406E0,5.653254329E0
1.265785204E1,3.851486983E0,3.172796277E0,-3.508883708E0,6.100233853E0
1.266790004E1,4.171157186E0,3.783664836E0,-2.992985332E0,6.377509942E0
1.267794804E1,4.336203911E0,4.214463127E0,-2.221081823E0,6.441860622E0
1.268799604E1,4.371087230E0,4.494188662E0,-1.707517948E0,6.497672879E0
1.269804404E1,4.111995935E0,4.882702813E0,-1.298355525E0,6.514217098E0
1.270809204E1,3.821562395E0,5.118429803E0,-1.159063299E0,6.492002043E0
1.271814104E1,3.528833238E0,5.124084646E0,-1.197669102E0,6.335875532E0
1.272818904E1,3.204804520E0,4.713988422E0,-1.060555111E0,5.798037254E0
1.273823704E1,2.718967850E0,4.075727411E0,-8.637778857E-1,4.974982646E0
1.274828504E1,2.184097891E0,3.346972552E0,-5.130525354E-1,4.029358729E0
1.275833304E1,1.456601207E0,2.628408220E0,-1.460242707E-1,3.008577727E0
1.276838104E1,9.526158757E-1,1.847484503E0,2.575901686E-1,2.094523500E0
1.277842904E1,8.128198399E-1,1.053812687E0,8.496232384E-1,1.578941708E0
1.278847704E1,5.866868875E-1,1.317184728E-1,1.839694258E0,1.935465376E0
1.279852504E1,1.724008412E-1,-8.222436512E-1,2.964064419E0,3.080825304E0
1.280857404E1,-5.859318658E-1,-1.777453571E0,3.712777287E0,4.157808621E0
1.281862204E1,-1.817941739E0,-2.512329880E0,4.214153810E0,5.232189400E0
1.282867004E1,-3.299432350E0,-3.355553926E0,4.479955369E0,6.497383788E0
1.283871804E1,-4.661851723E0,-4.055597786E0,3.965484592E0,7.342057133E0
1.284876604E1,-5.370537184E0,-4.393914760E0,2.518910336E0,7.382009608E0
1.285881404E1,-5.354901145E0,-3.924916025E0,8.436684340E-1,6.692660793E0
1.286886204E1,-4.604325646E0,-2.735879459E0,-8.090678278E-1,5.416589501E0
1.287891004E1,-3.545988969E0,-1.337992630E0,-1.657707418E0,4.136696258E0
1.288895904E1,-2.286997777E0,-4.051734531E-1,-1.832304254E0,2.958354820E0
1.289900704E1,-1.068592109E0,4.530948937E-1,-1.693247965E0,2.052869394E0
1.290905504E1,-1.296166912E-1,1.301415957E0,-1.717501777E0,2.158771950E0
1.291910304E1,5.445862770E-1,1.896230986E0,-2.064873603E0,2.855865746E0
1.292915104E1,1.008589152E0,2.597873476E0,-2.163021310E0,3.527727294E0
1.293919904E1,1.447517411E0,3.384395902E0,-2.024707909E0,4.201057532E0
1.294924704E1,2.387634790E0,3.830043197E0,-2.461591251E0,5.140959275E0
1.295929504E1,3.500831507E0,3.679362788E0,-2.144891433E0,5.513083622E0
1.296934304E1,4.240350213E0,2.412149534E0,-8.285276538E-1,4.948281861E0
1.297939204E1,5.520017159E0,-1.618427432E-1,1.636047870E0,5.759638456E0
1.298944004E1,7.551191942E0,-3.964951910E0,5.980826284E0,1.041689140E1
1.299948804E1,7.654778291E0,-8.728122432E0,9.746740143E0,1.515832099E1
1.300953604E1,2.583341390E0,-1.331358847E1,8.009171015E0,1.575030511E1
1.301958404E1,-2.126283985E0,-1.372232872E1,4.292534566E-1,1.389271923E1
1.302963204E1,-1.368406337E0,-9.305500479E0,-3.680084919E0,1.009989604E1
1.303968004E1,3.560303830E-1,-3.838072008E0,-4.526576974E0,5.945372442E0
1.304972804E1,1.182521305E0,3.089768153E-1,-4.651790419E0,4.809675396E0
1.305977604E1,1.309314230E0,3.054361508E0,-4.649041058E0,5.714631286E0
1.306982504E1,1.030284660E0,4.764914162E0,-4.672354492E0,6.752539518E0
1.307987304E1,6.984667204E-1,5.884503931E0,-4.544142010E0,7.467561107E0
1.308992104E1,7.098234750E-1,6.480194288E0,-4.280461820E0,7.798661473E0
1.309996904E1,9.079321115E-1,6.443574931E0,-3.861902336E0,7.566920659E0
1.311001704E1,1.082619579E0,5.534113042E0,-3.428268145E0,6.599355634E0
1.312006513E1,1.337824815E0,4.132707358E0,-3.072662124E0,5.320742229E0
1.313011313E1,1.740156375E0,2.616306238E0,-2.871947091E0,4.256909987E0
1.314016112E1,2.234006654E0,1.009268013E0,-2.868163943E0,3.773032210E0
1.315020913E1,2.729528214E0,-6.692190939E-1,-2.554324583E0,3.797729919E0
1.316025813E1,3.022390103E0,-2.839882130E0,-9.735945891E-1,4.260006910E0
1.317030613E1,2.684599670E0,-4.482894180E0,3.719859727E-1,5.238491117E0
1.318035413E1,1.791212508E0,-4.279043870E0,5.066640137E-1,4.666408374E0
1.319040213E1,7.440289557E-1,-2.448353739E0,3.271441144E-1,2.579736109E0
1.320045013E1,7.903447509E-2,-4.437960666E-1,-1.175197522E-1,4.658457783E-1
1.321049813E1,1.078248493E-1,8.498688215E-1,-5.665419871E-1,1.027070122E0
1.322054613E1,2.613356026E-1,1.590686486E0,-7.990125172E-1,1.799166695E0
1.323059413E1,2.831976110E-1,2.007583607E0,-7.188268715E-1,2.151117128E0
1.324064313E1,3.756352200E-1,1.988610561E0,-4.599336509E-1,2.075382554E0
1.325069113E1,5.961929253E-1,1.453677453E0,-2.163567732E-1,1.586012104E0
1.326073913E1,7.920562309E-1,6.850498456E-1,3.163343668E-3,1.047213622E0
1.327078712E1,6.705943590E-1,1.349712789E-1,2.100144446E-1,7.155558032E-1
1.328083513E1,3.785472795E-1,-2.122013032E-1,3.822348261E-1,5.783000071E-1
1.329088313E1,4.224350184E-2,-3.903203559E-1,4.269425639E-1,5.800124538E-1
1.330093113E1,-3.807683444E-1,-5.310242450E-1,3.118261635E-1,7.240212961E-1
1.331097913E1,-8.124799705E-1,-7.101075035E-1,1.134774258E-1,1.085013131E0
1.332102712E1,-1.086494237E0,-7.396376967E-1,-9.846535742E-2,1.318039861E0
1.333107613E1,-1.222626480E0,-8.687453878E-1,-2.373506894E-1,1.518508943E0
1.334112413E1,-1.290953242E0,-1.130933953E0,-2.802658170E-1,1.738999944E0
1.335117213E1,-1.440915320E0,-1.361073344E0,-1.794510484E-1,1.990216141E0
1.336122013E1,-1.794250867E0,-1.544399343E0,9.420449138E-3,2.367402427E0
1.337126813E1,-2.269494429E0,-1.458963920E0,1.781003416E-1,2.703867677E0
1.338131613E1,-2.803843986E0,-1.297370269E0,1.432532752E-1,3.092770960E0
1.339136413E1,-3.164002942E0,-9.064628524E-1,-1.992643386E-1,3.297316453E0
1.340141213E1,-2.978994407E0,-2.892231667E-1,-6.912216548E-1,3.071782071E0
1.341146013E1,-2.235441707E0,1.775501186E-1,-1.101736978E0,2.498509163E0
1.342150913E1,-1.317998368E0,5.291192222E-1,-1.404307072E0,1.997289464E0
1.343155713E1,-4.776628473E-1,7.919223297E-1,-1.528639342E0,1.786628392E0
1.344160513E1,2.931592199E-1,9.459444219E-1,-1.449373902E0,1.755402485E0
1.345165312E1,9.216963109E-1,1.017074631E0,-1.144310701E0,1.787011996E0
1.346170113E1,1.447758024E0,9.459771663E-1,-7.429484633E-1,1.882245604E0
1.347174913E1,1.805526053E0,7.541013694E-1,-3.675869662E-1,1.990907678E0
1.348179713E1,1.977236850E0,5.605392355E-1,-2.033994164E-1,2.065197598E0
1.349184513E1,2.015345493E0,4.408531630E-1,-3.058748674E-1,2.085552302E0
1.350189313E1,1.846952991E0,5.299746698E-1,-4.657810128E-1,1.977134405E0
1.351194213E1,1.633185219E0,7.192741835E-1,-6.645401520E-1,1.904274908E0
1.352199013E1,1.568754165E0,9.572640467E-1,-9.238134415E-1,2.056884868E0
1.353203813E1,1.656021812E0,9.990201831E-1,-1.196888207E0,2.274421014E0
1.354208613E1,1.709323861E0,6.733121449E-1,-1.329207773E0,2.267582547E0
1.355213413E1,1.602614222E0,-1.556470335E-2,-1.236092618E0,2.023990999E0
1.356218213E1,1.195604450E0,-7.060162067E-1,-9.552135012E-1,1.685337272E0
1.357223013E1,6.035045761E-1,-1.054325488E0,-5.325966344E-1,1.326453611E0
1.358227812E1,-2.398995638E-2,-1.119908443E0,-1.325990635E-1,1.127986237E0
1.359232713E1,-5.013852936E-1,-8.923541057E-1,1.350649074E-1,1.032436725E0
1.360237513E1,-7.120172042E-1,-3.997349578E-1,2.860201351E-1,8.651959623E-1
1.361242313E1,-5.792096874E-1,7.094719112E-2,2.410632328E-1,6.313706108E-1
1.362247113E1,-2.056138301E-1,3.330211508E-1,-6.112094522E-3,3.914300598E-1
1.363251913E1,2.246497330E-1,4.277618319E-1,-3.128406554E-1,5.756013925E-1
1.364256713E1,6.168523076E-1,3.640377063E-1,-5.757314712E-1,9.189651505E-1
1.365261513E1,8.580587241E-1,2.505485129E-1,-7.604292262E-1,1.173580819E0
1.366266313E1,9.403576997E-1,1.254175133E-1,-8.693336177E-1,1.286756813E0
1.367271213E1,9.540211809E-1,1.409822166E-2,-9.120492091E-1,1.319920048E0
1.368276013E1,9.478953454E-1,6.831068158E-2,-9.595707732E-1,1.350536191E0
1.369280813E1,9.533282858E-1,1.074642223E-1,-9.792484081E-1,1.370879581E0
1.370285613E1,9.279081005E-1,1.257420337E-1,-9.574371243E-1,1.339220052E0
1.371290412E1,8.408328268E-1,1.648756939E-1,-8.719455689E-1,1.222486365E0
1.372295213E1,6.599606127E-1,2.216819787E-1,-7.768558091E-1,1.043166266E0
1.373300013E1,5.006485444E-1,2.886004382E-1,-6.788248998E-1,8.914832711E-1
1.374304813E1,3.472532737E-1,2.883022302E-1,-6.243890762E-1,7.704315223E-1
1.375309613E1,1.817434493E-1,2.035784143E-1,-5.519678386E-1,6.157461709E-1
1.376314513E1,-1.292907089E-2,6.523095310E-2,-4.652495374E-1,4.699780529E-1
1.377319313E1,-2.587588808E-1,-1.312565428E-1,-4.026041865E-1,4.962605862E-1
1.378324113E1,-4.771591097E-1,-3.702866256E-1,-2.898038135E-1,6.699098831E-1
1.379328913E1,-6.290677258E-1,-5.067360806E-1,-2.389248329E-1,8.423732753E-1
1.380333713E1,-7.652137104E-1,-6.091564947E-1,-2.004466273E-1,9.983999740E-1
1.381338513E1,-9.561358264E-1,-5.906430405E-1,-1.475650120E-1,1.133503574E0
1.382343313E1,-1.183391371E0,-4.188442433E-1,-6.097067177E-2,1.256806692E0
1.383348113E1,-1.404511140E0,-2.581516474E-1,3.698597789E-2,1.428517336E0
1.384353012E1,-1.564376940E0,-9.081544518E-2,1.025683578E-1,1.570363946E0
1.385357813E1,-1.652804967E0,1.193089271E-1,1.577438450E-1,1.664596647E0
1.386362613E1,-1.652702348E0,3.066806138E-1,1.906958288E-1,1.691698244E0
1.387367413E1,-1.575148973E0,2.983524245E-1,2.243307674E-1,1.618775076E0
1.388372213E1,-1.383688328E0,1.571602929E-1,3.008298898E-1,1.424707468E0
1.389377012E1,-1.047917232E0,-9.989675581E-2,3.692259407E-1,1.115543671E0
1.390381813E1,-7.252409747E-1,-4.123456478E-1,4.560699570E-1,9.507908342E-1
1.391386613E1,-5.404215977E-1,-6.227220351E-1,5.488664389E-1,9.905011882E-1
1.392391413E1,-4.940721810E-1,-7.924304527E-1,6.463126266E-1,1.135681889E0
1.393396313E1,-5.462559494E-1,-8.751276237E-1,7.167025781E-1,1.256147486E0
1.394401113E1,-6.994357502E-1,-8.320272124E-1,7.513695502E-1,1.321376499E0
1.395405913E1,-9.334951150E-1,-7.167090100E-1,7.051133966E-1,1.371958395E0
1.396410713E1,-1.237091615E0,-5.115816683E-1,6.467827427E-1,1.486754648E0
1.397415513E1,-1.572570935E0,-4.070094788E-1,6.047401658E-1,1.733305146E0
1.398420313E1,-1.851341619E0,-4.628498036E-1,5.751029686E-1,1.993097879E0
1.399425113E1,-2.061482948E0,-6.053359240E-1,5.458785117E-1,2.216783002E0
1.400429913E1,-2.163979961E0,-7.481424719E-1,5.125832598E-1,2.346330758E0
1.401434813E1,-2.225810758E0,-8.598780853E-1,4.586906791E-1,2.429819127E0
1.402439612E1,-2.302237960E0,-9.910849267E-1,4.224262841E-1,2.541848328E0
1.403444413E1,-2.420488541E0,-1.120680276E0,4.293867731E-1,2.701677638E0
1.404449213E1,-2.569850110E0,-1.218787199E0,4.985464704E-1,2.887580372E0
1.405454013E1,-2.712076029E0,-1.256245632E0,6.094354435E-1,3.050396865E0
1.406458813E1,-2.735736787E0,-1.123803858E0,7.140268922E-1,3.042535995E0
1.407463613E1,-2.746953793E0,-1.025719739E0,8.950683832E-1,3.065779434E0
1.408468413E1,-2.775495223E0,-9.356603390E-1,1.191231099E0,3.161940153E0
1.409473313E1,-2.758605248E0,-1.044923165E0,1.458165776E0,3.290594895E0
1.410478113E1,-2.740003208E0,-1.269495422E0,1.770487783E0,3.500551842E0
1.411482913E1,-2.557749589E0,-1.429794500E0,2.018974568E0,3.558462249E0
1.412487713E1,-2.349513575E0,-1.565495512E0,2.141161494E0,3.543382957E0
1.413492513E1,-2.116478935E0,-1.662109641E0,2.152098126E0,3.445811644E0
1.414497313E1,-2.043429378E0,-1.651560094E0,2.092255383E0,3.358688279E0
1.415502112E1,-2.054825016E0,-1.434661723E0,2.048853840E0,3.237029837E0
1.416506913E1,-2.101486967E0,-1.072034365E0,2.090337496E0,3.151986040E0
1.417511713E1,-1.834993389E0,-7.824434084E-1,2.033604301E0,2.848677742E0
1.418516613E1,-1.302733627E0,-6.402636820E-1,1.876832263E0,2.372667661E0
1.419521413E1,-6.914662877E-1,-7.560788977E-1,1.692574804E0,1.978532384E0
1.420526213E1,6.727806330E-3,-1.105572240E0,1.435706620E0,1.812067532E0
1.421531013E1,7.095406160E-1,-1.694924215E0,1.171096723E0,2.178917969E0
1.422535813E1,1.406192214E0,-2.309350221E0,9.132818753E-1,2.853867336E0
1.423540613E1,1.895216787E0,-2.795283662E0,6.232699192E-1,3.434228125E0
1.424545413E1,2.279114853E0,-2.985586558E0,3.715420228E-1,3.774405262E0
1.425550313E1,2.450351733E0,-2.399839976E0,8.136407889E-2,3.430754383E0
1.426555113E1,2.819657781E0,-1.227177953E0,-7.098127308E-1,3.155989518E0
1.427559913E1,3.118797240E0,-3.119051009E-1,-2.213827767E0,3.837344707E0
1.428564712E1,3.247437739E0,7.047882915E-2,-3.195660059E0,4.556650343E0
1.429569513E1,3.282489458E0,2.150775486E-1,-2.763826227E0,4.296478884E0
1.430574313E1,2.933387587E0,2.912001103E-1,-1.651673530E0,3.378991816E0
1.431579113E1,2.035874337E0,2.367385590E-1,-4.435510683E-1,2.097037675E0
1.432583913E1,9.276310886E-1,1.231300825E-1,2.305152943E-1,9.637415394E-1
1.433588813E1,3.451889142E-2,-1.388754648E-1,2.971326953E-1,3.297965846E-1
1.434593613E1,-3.369997425E-1,-3.034248841E-1,3.175874251E-1,5.536219462E-1
1.435598413E1,-4.085322399E-1,-2.912544894E-1,5.393570390E-1,7.366368061E-1
1.436603213E1,-5.070845747E-1,-6.851591885E-2,7.844905186E-1,9.366186902E-1
1.437608013E1,4.264429193E-1,3.977498281E-1,1.087263000E0,1.233774420E0
1.438612813E1,2.158727115E0,1.139155723E0,1.570644131E0,2.902533635E0
1.439617613E1,2.445785935E0,1.515087835E0,7.557666564E-1,2.974650101E0
1.440622413E1,2.966871960E0,1.845175438E0,-1.823144299E-1,3.498605461E0
1.441627213E1,3.302897410E0,2.228975564E0,-5.706443936E-1,4.025307241E0
1.442632113E1,3.152143326E0,2.456501250E0,-7.957025546E-1,4.074745206E0
1.443636913E1,2.831096396E0,2.421089342E0,-8.416971914E-1,3.819062001E0
1.444641713E1,2.459419010E0,2.220861967E0,-8.118094410E-1,3.411745054E0
1.445646513E1,1.908374776E0,2.025478426E0,-4.480130786E-1,2.818718300E0
1.446651312E1,1.538149838E0,1.924630913E0,1.086662637E-1,2.466154381E0
1.447656113E1,1.346371836E0,1.826508202E0,7.292121112E-1,2.383400855E0
1.448660913E1,1.211172370E0,1.830363271E0,1.312786891E0,2.557455305E0
1.449665713E1,1.053609058E0,1.833760504E0,1.500039880E0,2.592853500E0
1.450670613E1,1.011995739E0,2.057463280E0,1.124268419E0,2.553677741E0
1.451675413E1,8.494399282E-1,2.304798163E0,4.435446364E-1,2.496071836E0
1.452680213E1,7.060049509E-1,2.603699641E0,8.469911143E-2,2.699049602E0
1.453685013E1,4.193426453E-1,2.719050588E0,-2.091958344E-2,2.751276428E0
1.454689813E1,3.001128019E-1,3.161283694E0,-3.678728950E-1,3.196734702E0
1.455694613E1,1.058202922E0,2.976939111E0,-7.585975859E-1,3.249219936E0
1.456699413E1,7.048718335E-1,2.722441388E0,-1.398145276E-1,2.815684556E0
1.457704213E1,-7.935116029E-1,1.865479894E0,1.958307074E-1,2.036670215E0
1.458709113E1,-2.786193581E0,3.642879671E-1,6.772739258E-1,2.890377201E0
1.459713912E1,-3.000977891E0,2.121486783E-1,1.177167302E0,3.230572430E0
1.460718713E1,-3.212020276E0,-2.712646133E-1,1.528467288E0,3.567474036E0
1.461723513E1,-3.402982446E0,-7.223942578E-1,1.804929053E0,3.919172346E0
1.462728313E1,-3.289827713E0,-6.325968128E-1,2.080881963E0,3.943756440E0
1.463733113E1,-3.151401607E0,-5.043100709E-1,2.348361674E0,3.962381013E0
1.464737913E1,-2.966964930E0,-9.085544014E-1,2.498887131E0,3.984066879E0
1.465742713E1,-2.534785819E0,-1.256988228E0,2.400911917E0,3.710732621E0
1.466747613E1,-2.080656261E0,-1.328988503E0,1.830896537E0,3.073682327E0
1.467752413E1,-1.606056916E0,-1.239981601E0,1.429910129E0,2.482260294E0
1.468757213E1,-1.484795750E0,-4.245417702E-1,1.232401856E0,1.975770348E0
1.469762013E1,-1.405546097E0,4.051436323E-1,8.166097127E-1,1.675276878E0
1.470766813E1,-9.735997054E-1,4.313871056E-1,5.481055699E-1,1.197668960E0
1.471771613E1,-2.598240242E-1,5.453154248E-1,7.740237102E-1,9.818299955E-1
1.472776413E1,1.951102573E-1,6.690553719E-1,8.959342097E-1,1.135077623E0
1.473781213E1,6.528802923E-1,7.459240383E-1,1.077505166E0,1.464128659E0
1.474786113E1,8.341330871E-1,8.499226159E-1,9.823081098E-1,1.543721375E0
1.475790913E1,1.030696012E0,9.748577338E-1,1.140403519E0,1.820220332E0
1.476795713E1,9.351327009E-1,1.136322162E0,1.398204333E0,2.029944970E0
1.477800513E1,6.613626288E-1,1.036169883E0,1.071815825E0,1.630900891E0
1.478805313E1,5.909025107E-1,7.075318050E-1,8.460624303E-1,1.251234857E0
1.479810113E1,8.215570419E-1,2.295616865E-3,5.093766832E-1,9.666570479E-1
1.480814913E1,1.477083126E0,-1.091880984E0,4.529883282E-1,1.891871315E0
1.481819713E1,1.998952678E0,-2.583666496E0,8.935865526E-1,3.386685887E0
1.482824613E1,2.279412330E0,-4.004004879E0,1.451254951E0,4.830519286E0
1.483829413E1,2.207038126E0,-5.282369943E0,1.957187478E0,6.050209280E0
1.484834213E1,1.608167322E0,-6.500817418E0,2.392829749E0,7.111431884E0
1.485839013E1,5.898120050E-1,-7.578769165E0,2.899048351E0,8.135729937E0
1.486843813E1,-7.540845586E-1,-7.792987173E0,3.002617158E0,8.385404129E0
1.487848613E1,-1.924293236E0,-6.010366418E0,1.851751801E0,6.576959303E0
1.488853413E1,-2.197343589E0,-2.369560170E0,1.795280854E-1,3.236566789E0
1.489858213E1,-1.218876661E0,9.618318915E-1,-1.027791846E0,1.862024968E0
1.490863112E1,-2.524411105E-1,2.897971879E0,-1.488975924E0,3.267876501E0
1.491867913E1,2.833032994E-1,3.918776448E0,-1.722827859E0,4.290128838E0
1.492872713E1,5.469817351E-1,4.533275544E0,-1.893276973E0,4.943103668E0
1.493877513E1,6.118498684E-1,4.841765286E0,-1.972139540E0,5.263685564E0
1.494882313E1,6.587765515E-1,4.767257141E0,-1.955762804E0,5.194779624E0
1.495887113E1,6.773152949E-1,4.260499426E0,-1.880004963E0,4.705850616E0
1.496891913E1,7.249660094E-1,3.310442657E0,-1.875896563E0,3.873447329E0
1.497896813E1,9.993410490E-1,1.974838030E0,-1.919077812E0,2.929424419E0
1.498901613E1,1.463719315E0,5.203712028E-1,-2.037599265E0,2.562239487E0
1.499906413E1,1.816412399E0,-8.065900701E-1,-2.259120884E0,3.008914873E0
1.500911213E1,2.127380484E0,-1.792393792E0,-2.592457784E0,3.802533444E0
1.501916013E1,2.205413916E0,-2.342493408E0,-3.025185657E0,4.416205856E0
1.502920813E1,1.939286081E0,-2.225567222E0,-3.345907189E0,4.461958638E0
1.503925612E1,1.432358505E0,-1.354100540E0,-3.510084141E0,4.025658932E0
1.504930413E1,1.034895775E0,-1.760327661E-1,-3.455458868E0,3.611397622E0
1.505935313E1,5.939186507E-1,8.471475273E-1,-3.254240974E0,3.414744883E0
1.506940113E1,3.015081668E-1,1.602149368E0,-2.998322963E0,3.412877139E0
1.507944913E1,3.848725051E-2,2.032968709E0,-2.837143294E0,3.490533643E0
1.508949713E1,-1.099305779E-1,2.203419723E0,-2.890542699E0,3.636259108E0
1.509954513E1,-5.993512988E-2,2.016636851E0,-2.970509512E0,3.590869417E0
1.510959313E1,-1.978259236E-2,1.242363757E0,-2.615036808E0,2.895216151E0
1.511964167E1,1.188241929E-1,3.668788683E-1,-2.041321456E0,2.077429320E0
1.512968967E1,2.469694322E-1,-2.071744519E-1,-1.537745650E0,1.571170531E0
1.513973867E1,2.806476402E-1,-4.935324830E-1,-1.295341285E0,1.414300694E0
1.514978667E1,2.664859763E-1,-4.651875204E-1,-1.108503522E0,1.231338403E0
1.515983467E1,1.439376917E-1,-2.143460619E-1,-9.722997232E-1,1.005996543E0
1.516988267E1,8.431684971E-4,2.577101827E-2,-9.012255744E-1,9.015943613E-1
1.517993067E1,-2.143636036E-1,2.620494014E-1,-8.712159095E-1,9.346864738E-1
1.518997867E1,-3.971931732E-1,3.852929199E-1,-8.631390774E-1,1.025291236E0
1.520002667E1,-4.739299849E-1,4.413887680E-1,-8.258432702E-1,1.049500253E0
1.521007467E1,-5.354207665E-1,3.142656219E-1,-8.314149358E-1,1.037636292E0
1.522012367E1,-6.050929722E-1,6.618229508E-2,-8.993543923E-1,1.085981549E0
1.523017167E1,-6.662118709E-1,-2.124802154E-1,-9.248739803E-1,1.159473147E0
1.524021967E1,-7.772928885E-1,-3.954928029E-1,-7.643135315E-1,1.159643896E0
1.525026767E1,-9.618772075E-1,-4.674626720E-1,-4.210270089E-1,1.149344532E0
1.526031567E1,-1.049973113E0,-5.814868855E-1,-4.707945982E-2,1.201160693E0
1.527036367E1,-1.133362594E0,-6.075607896E-1,3.034435952E-1,1.321256560E0
1.528041167E1,-1.101608120E0,-5.362925863E-1,5.653392148E-1,1.349354889E0
1.529045967E1,-9.461265627E-1,-3.442548215E-1,7.168464196E-1,1.235935129E0
1.530050867E1,-8.435187453E-1,-1.422171485E-1,8.363424575E-1,1.196335362E0
1.531055667E1,-6.754399467E-1,-4.597139418E-2,9.633732176E-1,1.177463565E0
1.532060467E1,-4.953533059E-1,-1.331001699E-2,1.188349591E0,1.287527399E0
1.533065267E1,-3.182958153E-1,-1.228441536E-2,1.468826419E0,1.502968457E0
1.534070067E1,-1.443905586E-1,-6.894276559E-2,1.751790726E0,1.759082854E0
1.535074867E1,-8.792195052E-2,-7.409825563E-2,2.022137911E0,2.025404294E0
1.536079667E1,-5.729862034E-2,7.251132131E-3,2.184521960E0,2.185285315E0
1.537084567E1,-2.902791739E-2,1.279920423E-1,2.235496963E0,2.239346167E0
1.538089367E1,-8.695102036E-2,2.429488868E-1,2.191020702E0,2.206163267E0
1.539094167E1,-2.001525307E-1,2.774655855E-1,2.056202620E0,2.084470533E0
1.540098967E1,-3.251572305E-1,2.266117662E-1,1.890001216E0,1.931109711E0
1.541103767E1,-4.208857986E-1,5.271264911E-2,1.733555453E0,1.784695489E0
1.542108567E1,-5.219481969E-1,-2.375150692E-1,1.579141159E0,1.680038728E0
1.543113367E1,-6.797125071E-1,-4.770673084E-1,1.474669103E0,1.692409901E0
1.544118167E1,-8.886729911E-1,-4.935950482E-1,1.435204929E0,1.758746413E0
1.545123067E1,-1.167003380E0,-3.637915385E-1,1.395447371E0,1.855131946E0
1.546127867E1,-1.391473603E0,-2.341768938E-1,1.314282171E0,1.928308904E0
1.547132667E1,-1.526186435E0,-1.280844283E-1,1.174663378E0,1.930151473E0
1.548137467E1,-1.598028543E0,-3.328878343E-2,1.021289889E0,1.896796353E0
1.549142267E1,-1.640191061E0,-3.830627918E-2,8.809216297E-1,1.862180712E0
1.550147067E1,-1.650147407E0,-1.780670124E-1,7.954647922E-1,1.840504975E0
1.551151867E1,-1.677824033E0,-4.354649538E-1,7.649152831E-1,1.894681662E0
1.552156667E1,-1.690156395E0,-7.427788210E-1,7.404763336E-1,1.989134037E0
1.553161567E1,-1.721788955E0,-1.010977739E0,6.896662223E-1,2.112409215E0
1.554166367E1,-1.744052229E0,-1.216826043E0,6.339595795E-1,2.219073803E0
1.555171167E1,-1.758374106E0,-1.375286756E0,5.407002906E-1,2.296878308E0
1.556175967E1,-1.777988884E0,-1.437491775E0,4.315514854E-1,2.326771101E0
1.557180767E1,-1.772539279E0,-1.429884548E0,3.453260314E-1,2.303413854E0
1.558185567E1,-1.698797411E0,-1.363094142E0,2.184263952E-1,2.188983411E0
1.559190367E1,-1.630482344E0,-1.310594916E0,1.126277523E-1,2.094950290E0
1.560195267E1,-1.673543871E0,-1.276365316E0,8.409589805E-2,2.106402058E0
1.561200067E1,-1.864717710E0,-1.360885064E0,1.074088930E-1,2.310999127E0
1.562204867E1,-2.048658543E0,-1.775985920E0,1.598769823E-1,2.716005976E0
1.563209667E1,-2.162146859E0,-2.369140339E0,3.035734034E-1,3.221779291E0
1.564214467E1,-2.299378087E0,-2.753446834E0,4.731345443E-1,3.618351192E0
1.565219267E1,-2.534500475E0,-2.950300950E0,6.515764363E-1,3.943668370E0
1.566224067E1,-2.708770013E0,-3.222689983E0,7.461865783E-1,4.275507002E0
1.567228867E1,-2.709337486E0,-3.584661868E0,8.268303533E-1,4.568802770E0
1.568233767E1,-2.584242154E0,-3.991799986E0,1.000221201E0,4.859343277E0
1.569238567E1,-2.489638590E0,-4.366403026E0,1.161814707E0,5.158836023E0
1.570243367E1,-2.582407883E0,-4.794775892E0,1.089817063E0,5.553954227E0
1.571248167E1,-2.894222644E0,-4.976396257E0,1.060709478E0,5.853729497E0
1.572252967E1,-2.836056882E0,-4.068831205E0,1.888298507E0,5.307002663E0
1.573257767E1,-2.039848835E0,-2.796254885E0,3.735920566E0,5.092850590E0
1.574262567E1,-6.588680604E-1,-1.424426172E0,6.756062415E0,6.935955334E0
1.575267367E1,8.318740153E-1,-1.472539401E-1,9.447653893E0,9.485349872E0
1.576272267E1,1.561101622E0,1.283393669E-1,9.337865403E0,9.468328234E0
1.577277067E1,1.994269789E0,-9.511665702E-2,7.365966768E0,7.631751149E0
1.578281867E1,2.708021862E0,2.754330933E-2,4.815510703E0,5.524788175E0
1.579286667E1,3.139703960E0,6.748914778E-2,2.175172409E0,3.820166325E0
1.580291467E1,3.308856600E0,-2.648847163E-2,4.197716117E-1,3.335482250E0
1.581296267E1,3.084731070E0,-2.728825378E-1,-3.471345752E-1,3.116172823E0
1.582301067E1,2.767028454E0,-4.114574558E-1,-7.856652242E-1,2.905686416E0
1.583305967E1,2.535868139E0,-5.934877110E-1,-1.223578407E0,2.877498740E0
1.584310767E1,2.323262793E0,-9.568179041E-1,-1.715949633E0,3.042619538E0
1.585315567E1,2.028115666E0,-1.428846082E0,-2.353368645E0,3.419531877E0
1.586320367E1,1.956413307E0,-1.856578093E0,-3.159609636E0,4.154222947E0
1.587325167E1,1.652695477E0,-2.286488192E0,-3.352706916E0,4.381788934E0
1.588329967E1,1.943010758E-1,-2.629652508E0,-2.998168597E0,3.992723401E0
1.589334767E1,-1.771677545E0,-2.404630600E0,-2.942788448E0,4.192981456E0
1.590339567E1,-2.234209114E0,-1.858223500E0,-3.397890691E0,4.471056484E0
1.591344467E1,-1.433765345E0,-1.068069953E0,-3.692303846E0,4.102385182E0
1.592349267E1,-6.664938529E-1,-3.807028556E-1,-3.786977869E0,3.863981120E0
1.593354067E1,-4.445915803E-1,1.687079591E-1,-2.965142938E0,3.003031250E0
1.594358867E1,-6.361527970E-1,4.239564639E-1,-2.013362410E0,2.153615021E0
1.595363667E1,-6.902467778E-1,5.174762464E-1,-1.511795268E0,1.740616906E0
1.596368467E1,-2.200959215E-1,5.264604932E-1,-1.102829896E0,1.241707149E0
1.597373267E1,4.301133627E-1,5.963779896E-1,-7.332649626E-1,1.038432336E0
1.598378167E1,6.705493355E-1,5.769558781E-1,-7.804050690E-1,1.179638321E0
1.599382967E1,8.024862749E-1,3.123986059E-1,-9.169568503E-1,1.257929639E0
1.600387767E1,8.981319588E-1,-1.244708490E-1,-1.442633963E0,1.703915126E0
1.601392567E1,8.490845637E-1,-1.904560930E-1,-2.079629051E0,2.254345828E0
1.602397367E1,1.076125808E0,1.295491558E-1,-2.710708365E0,2.919378287E0
1.603402167E1,1.536260603E0,6.318080235E-1,-3.195072414E0,3.601078415E0
1.604406967E1,1.946592324E0,1.297069722E0,-3.498692011E0,4.208617032E0
1.605411867E1,2.434349219E0,1.862938110E0,-3.598439078E0,4.727087721E0
1.606416667E1,2.926488457E0,2.499476531E0,-3.632248848E0,5.291970267E0
1.607421467E1,3.278656900E0,3.217887665E0,-3.411659129E0,5.722220732E0
1.608426267E1,3.546031069E0,3.724115623E0,-2.963517412E0,5.935133441E0
1.609431067E1,3.454148507E0,3.888753335E0,-2.398674041E0,5.727755368E0
1.610435867E1,3.046487940E0,3.805296611E0,-1.844456230E0,5.211850904E0
1.611440667E1,2.317969163E0,3.522830486E0,-1.359891330E0,4.430871258E0
1.612445488E1,1.298413412E0,3.039447600E0,-1.142955244E0,3.497208285E0
1.613450388E1,3.105793179E-1,2.415042737E0,-1.036325127E0,2.646291877E0
1.614455188E1,-3.897003683E-1,1.866207288E0,-9.431830743E-1,2.127014417E0
1.615459988E1,-1.119412526E0,1.430137147E0,-7.374903068E-1,1.960170558E0
1.616464788E1,-1.672800690E0,8.199071038E-1,-4.798201776E-1,1.923730025E0
1.617469588E1,-1.944860232E0,3.752169979E-1,-6.921977744E-2,1.981933525E0
1.618474388E1,-1.988810682E0,-1.128612024E-1,2.851665147E-1,2.012318445E0
1.619479188E1,-1.506699420E0,-4.906234932E-1,4.666768062E-1,1.651860101E0
1.620484087E1,-8.892194865E-1,-6.824197680E-1,5.953978501E-1,1.269214968E0
1.621488888E1,-6.295433968E-1,-7.236847383E-1,5.885298568E-1,1.125349671E0
1.622493688E1,-4.888262784E-1,-6.349696130E-1,5.179755986E-1,9.541678367E-1
1.623498488E1,-2.509688547E-1,-3.047872853E-1,2.886627111E-1,4.890877386E-1
1.624503288E1,-2.007369599E-1,9.149489164E-2,-1.977348532E-1,2.962527880E-1
1.625508088E1,-2.355021653E-1,4.487790638E-1,-7.161193183E-1,8.773202357E-1
1.626512888E1,-2.777463980E-1,5.920703459E-1,-1.016485816E0,1.208690933E0
1.627517688E1,-3.197403699E-1,4.413250333E-1,-1.132855640E0,1.257125129E0
1.628522588E1,-2.669841591E-1,1.926616627E-1,-1.085892266E0,1.134707483E0
1.629527388E1,-2.690493956E-1,-2.234232795E-1,-1.069727931E0,1.125443639E0
1.630532188E1,-2.176335128E-1,-6.643442702E-1,-1.074789719E0,1.282142970E0
1.631536988E1,-1.538259181E-1,-9.216188353E-1,-1.107215307E0,1.448782050E0
1.632541788E1,-7.196241394E-2,-9.268941933E-1,-1.202215166E0,1.519747591E0
1.633546587E1,1.702270657E-3,-6.496975797E-1,-1.586816799E0,1.714671221E0
1.634551388E1,1.440581444E-1,-1.575848007E-1,-2.047506203E0,2.058608114E0
1.635556288E1,3.831785667E-1,5.912511510E-1,-2.107306262E0,2.221968366E0
1.636561088E1,1.057440007E0,1.743504052E0,-1.577843077E0,2.578289069E0
1.637565888E1,1.871697970E0,2.551655914E0,-9.026865743E-1,3.290751319E0
1.638570688E1,2.753112958E0,2.504540219E0,-5.926715858E-1,3.768768005E0
1.639575488E1,3.692927451E0,1.465156122E0,-6.123746561E-1,4.019875414E0
1.640580288E1,4.604061352E0,-5.346191132E-1,-7.053828071E-1,4.688364687E0
1.641585088E1,5.402867024E0,-2.945920216E0,-6.045440648E-1,6.183436870E0
1.642589988E1,5.220552594E0,-5.321108916E0,8.447805744E-1,7.502134610E0
1.643594788E1,3.525509096E0,-7.396300954E0,4.511167806E0,9.353347912E0
1.644599588E1,1.402609772E0,-7.331902644E0,4.397684460E0,8.663933239E0
1.645604388E1,9.107476920E-2,-4.627156100E0,1.208171579E0,4.783152386E0
1.646609187E1,-5.334245270E-1,-1.500827646E0,-7.462041199E-1,1.758933181E0
1.647613988E1,-8.501471490E-1,1.253548311E0,-1.332276392E0,2.017199526E0
1.648618788E1,-7.008779660E-1,3.431561297E0,-1.422444550E0,3.780236945E0
1.649623588E1,-4.635700344E-1,4.643643494E0,-1.787512682E0,4.997351665E0
1.650628488E1,-5.727473447E-1,4.667259228E0,-2.213001117E0,5.196991646E0
1.651633288E1,-9.372431803E-1,3.808190398E0,-2.469506627E0,4.634565984E0
1.652638088E1,-1.076463631E0,2.337394052E0,-2.587649619E0,3.649399327E0
1.653642888E1,-9.997993246E-1,9.336494815E-1,-2.422177509E0,2.781769927E0
