"Time (s)","Linear Acceleration x (m/s^2)","Linear Acceleration y (m/s^2)","Linear Acceleration z (m/s^2)","Absolute acceleration (m/s^2)"
5.973166553E-3,1.258745097E-1,2.641345185E-1,-1.842512470E0,1.865600074E0
1.602262491E-2,-9.222956505E-1,3.264266610E-1,-1.015187588E0,1.409889879E0
2.607162483E-2,-1.636012348E0,2.584866929E-1,-3.019547479E-1,1.683605786E0
3.612062498E-2,-2.142386047E0,1.805345374E-1,2.198063381E-1,2.161186138E0
4.616862489E-2,-2.270978745E0,-8.456067860E-2,2.725445688E-1,2.288837152E0
5.621762481E-2,-2.567845100E0,-4.968519473E-1,-2.227657601E-2,2.615566202E0
6.626662496E-2,-2.269851986E0,-7.768347591E-1,-3.492717326E-1,2.424394982E0
7.631562487E-2,-1.289931587E0,-7.698590308E-1,-4.965345897E-1,1.582135590E0
8.636462479E-2,-8.668965713E-1,-7.321064830E-1,-6.483870725E-1,1.306864707E0
9.641262493E-2,-7.601986997E-1,-6.823460931E-1,-6.230545954E-1,1.196534698E0
1.064616248E-1,-5.755754236E-1,-6.930956143E-1,-5.220560780E-1,1.041254603E0
1.165106250E-1,-4.977749303E-1,-7.351347560E-1,-4.005798805E-1,9.739954986E-1
1.265596249E-1,-5.675942301E-1,-7.852366233E-1,-3.260265653E-1,1.022278380E0
1.366086248E-1,-5.930639340E-1,-7.588563251E-1,-2.704255378E-1,1.000358797E0
1.466576250E-1,-4.333783018E-1,-7.214043242E-1,-2.807509898E-1,8.871651874E-1
1.567056249E-1,-1.891683351E-1,-8.462757075E-1,-3.663863866E-1,9.413852646E-1
1.667546248E-1,4.672135441E-3,-9.619932747E-1,-4.118883955E-1,1.046472618E0
1.768036250E-1,2.160730371E-1,-1.042377872E0,-3.836428356E-1,1.131556897E0
1.868526249E-1,4.249417929E-1,-1.084409997E0,-3.246596324E-1,1.209100676E0
1.969016248E-1,5.763881866E-1,-1.049090475E0,-3.065157223E-1,1.235623752E0
2.069506249E-1,6.556615935E-1,-9.656881303E-1,-3.637064615E-1,1.222590725E0
2.169986248E-1,6.986662567E-1,-8.058732015E-1,-4.218684232E-1,1.146969538E0
2.270476250E-1,7.720571454E-1,-5.746029586E-1,-5.220287423E-1,1.094876616E0
2.370966249E-1,8.871208477E-1,-3.617999768E-1,-6.733359723E-1,1.171009801E0
2.471456248E-1,1.023978658E0,-2.746659386E-1,-9.026566073E-1,1.392394563E0
2.571946250E-1,1.040473945E0,-2.409462154E-1,-1.014477882E0,1.473026301E0
2.672436249E-1,1.097136389E0,-2.003419805E-1,-9.210737287E-1,1.446451513E0
2.772916248E-1,1.175438865E0,-1.115806621E-1,-7.552874771E-1,1.401629746E0
2.873406250E-1,1.125776416E0,-2.791168392E-2,-4.758532803E-1,1.222533413E0
2.973896249E-1,8.857198548E-1,1.138932359E-1,-1.164110470E-1,9.005680775E-1
3.074386248E-1,7.160937367E-1,2.970695454E-1,9.569173068E-2,7.811513694E-1
3.174876249E-1,7.166294879E-1,4.042180181E-1,1.359617972E-1,8.339278382E-1
3.275366249E-1,8.980862774E-1,3.754812920E-1,7.175030619E-2,9.760600743E-1
3.375846250E-1,1.119623245E0,1.633226734E-1,-4.026626587E-2,1.132188977E0
3.476336249E-1,1.341215031E0,-1.236668569E-1,-1.946981017E-1,1.360903597E0
3.576826248E-1,1.469314662E0,-3.782517028E-1,-3.566696298E-1,1.558580492E0
3.677316250E-1,1.466767761E0,-6.122976190E-1,-5.077030639E-1,1.668555794E0
3.777806249E-1,1.253678265E0,-7.860476321E-1,-6.292612687E-1,1.607964495E0
3.878286248E-1,9.959699830E-1,-7.417309999E-1,-6.060291114E-1,1.381807645E0
3.978776250E-1,8.593313706E-1,-4.404532135E-1,-4.962483685E-1,1.085684982E0
4.079266249E-1,4.961149058E-1,5.461767197E-2,-3.746135652E-1,6.240580206E-1
4.179756248E-1,9.654359691E-2,8.383375275E-1,-2.988011983E-1,8.952165281E-1
4.280246249E-1,-2.587045748E-1,1.656467078E0,-1.564168194E-1,1.683828215E0
4.380736249E-1,-5.508685255E-1,2.439090580E0,1.040149498E-1,2.502686177E0
4.481216250E-1,-8.585194847E-1,3.134284176E0,3.192277153E-1,3.265378896E0
4.581706249E-1,-1.159240324E0,3.627205040E0,5.810750954E-1,3.852025804E0
4.682196248E-1,-1.378018283E0,3.854325514E0,8.347251177E-1,4.177502313E0
4.782686250E-1,-1.626127630E0,3.650985666E0,7.827747993E-1,4.072680173E0
4.883176249E-1,-1.562178971E0,2.748621127E0,5.919123249E-1,3.216470338E0
4.983666248E-1,-1.350485791E0,1.532177492E0,4.463366818E-1,2.090597085E0
5.084146250E-1,-1.019330048E0,5.555223244E-1,4.469776829E-1,1.243956530E0
5.184636249E-1,-3.828403053E-1,-3.694855571E-2,7.574028535E-1,8.494651127E-1
5.285126248E-1,1.772731798E-1,-4.673387110E-1,1.203089325E0,1.302787463E0
5.385616249E-1,3.172865128E-1,-9.516314238E-1,1.571669441E0,1.864515468E0
5.486106249E-1,1.550474746E-1,-1.356460476E0,1.831991136E0,2.284779260E0
5.586596250E-1,-2.077095453E-1,-1.494158311E0,1.937901461E0,2.455832728E0
5.687076249E-1,-6.615299322E-1,-1.410327365E0,1.922488639E0,2.474390368E0
5.787566248E-1,-9.559004029E-1,-1.297394827E0,1.690087398E0,2.335246097E0
5.888056250E-1,-1.034245053E0,-1.204611209E0,1.202342928E0,1.991577141E0
5.988546249E-1,-9.891991997E-1,-1.056065619E0,6.445853591E-1,1.584070684E0
6.089036248E-1,-9.664237831E-1,-8.570819467E-1,1.778068113E-1,1.303909373E0
6.189526250E-1,-1.033156009E0,-5.762366706E-1,-2.365188499E-1,1.206400102E0
6.290006249E-1,-1.234933992E0,-2.805722111E-1,-6.040512908E-1,1.403089695E0
6.390496248E-1,-1.421179505E0,-1.017251801E-1,-8.876669776E-1,1.678705412E0
6.490986249E-1,-1.418818546E0,-7.261130869E-2,-1.072004106E0,1.779750339E0
6.591476249E-1,-1.428202450E0,-2.051454681E-1,-1.084977688E0,1.805276567E0
6.691966250E-1,-1.609414826E0,-3.954729223E-1,-1.082672862E0,1.979594767E0
6.792446249E-1,-1.709308658E0,-5.850472552E-1,-1.077514375E0,2.103581139E0
6.892936248E-1,-1.729942605E0,-6.977979451E-1,-9.545790052E-1,2.095434195E0
6.993426250E-1,-1.650546918E0,-6.700622624E-1,-7.792923439E-1,1.944372681E0
7.093916249E-1,-1.303884798E0,-5.284187257E-1,-6.621457171E-1,1.554920855E0
7.194406248E-1,-7.550715686E-1,-5.858120710E-1,-8.540267766E-1,1.281667114E0
7.294896250E-1,-4.824064010E-1,-7.032282543E-1,-1.211502153E0,1.481547630E0
7.395376249E-1,-3.876405770E-1,-7.506064886E-1,-1.535517422E0,1.752566424E0
7.495866248E-1,-4.024587370E-1,-8.273810148E-1,-1.778710138E0,2.002583864E0
7.596356249E-1,-3.292086200E-1,-9.840536499E-1,-1.981374632E0,2.236646001E0
7.696846249E-1,-6.909537792E-2,-1.220278823E0,-1.920432612E0,2.276382216E0
7.797336248E-1,1.440647225E-1,-1.643479827E0,-1.261267805E0,2.076674520E0
7.897826249E-1,1.812648547E-1,-2.050877561E0,-5.204828481E-1,2.123642652E0
7.998306248E-1,1.547725824E-1,-2.412388101E0,-9.560197592E-3,2.417366811E0
8.098796250E-1,-2.887545124E-2,-2.704287538E0,2.965905853E-1,2.720656328E0
8.199286249E-1,-2.427608988E-1,-3.007009587E0,4.411349988E-1,3.048875136E0
8.299776248E-1,-3.793686672E-1,-3.352506357E0,4.670323900E-1,3.406073797E0
8.400266250E-1,-4.363817972E-1,-3.688114316E0,4.255182552E-1,3.738138850E0
8.500756249E-1,-4.693666716E-1,-3.994084493E0,4.006779675E-1,4.041479784E0
8.601236248E-1,-4.431642750E-1,-4.260433352E0,3.414996135E-1,4.297011625E0
8.701726249E-1,-4.020745750E-1,-4.515869552E0,2.639783978E-1,4.541412377E0
8.802216249E-1,-3.339146054E-1,-4.802967256E0,2.433948831E-1,4.820708921E0
8.902706248E-1,-3.128946691E-1,-5.083318443E0,2.389324343E-1,5.098540789E0
9.003196249E-1,-2.852955920E-1,-5.208916635E0,1.428604884E-1,5.218679450E0
9.103676248E-1,-1.109721863E-1,-5.172189104E0,2.435950041E-3,5.173380025E0
9.204166250E-1,8.093986340E-2,-4.678351981E0,7.544910863E-2,4.679660360E0
9.304656249E-1,-1.087329219E-1,-3.643956143E0,1.934750104E-1,3.650708397E0
9.405146248E-1,-2.786944509E-1,-2.537055416E0,2.092975760E-1,2.560883882E0
9.505636250E-1,-2.059375466E-1,-1.567398781E0,4.564599663E-2,1.581528617E0
9.606126249E-1,-1.441666833E-1,-6.177852309E-1,-1.968475382E-1,6.642225360E-1
9.706606248E-1,-7.354726519E-2,3.967289042E-1,-3.948025391E-1,5.645104680E-1
9.807096249E-1,-5.239225823E-2,1.564836531E0,-6.044910014E-1,1.678352671E0
9.907586249E-1,-2.045566170E-1,2.860801129E0,-9.230312303E-1,3.012974139E0
1.000807625E0,-4.580431730E-1,4.217987244E0,-1.285753459E0,4.433326279E0
1.010856625E0,-7.592154904E-1,5.578734899E0,-1.621361564E0,5.858967874E0
1.020905500E0,-1.152254802E0,6.896760457E0,-1.992193151E0,7.270614106E0
1.030953500E0,-1.529734526E0,8.304967037E0,-2.549415845E0,8.821115936E0
1.041002500E0,-1.777593027E0,1.011245775E1,-3.318308624E0,1.079040365E1
1.051051500E0,-1.817524540E0,1.266450777E1,-4.098288308E0,1.343462391E1
1.061100500E0,-1.868468406E0,1.601527107E1,-4.859054334E0,1.684014521E1
1.071149500E0,-1.953284023E0,2.008183414E1,-5.570879749E0,2.093155709E1
1.081198500E0,-2.351133839E0,2.509921997E1,-6.344487430E0,2.599521483E1
1.091246500E0,-2.716585987E0,3.030225956E1,-6.979539489E0,3.121411132E1
1.101295500E0,-2.497348144E0,3.358071620E1,-7.102219920E0,3.441428157E1
1.111344500E0,-1.313363719E0,3.235103037E1,-5.910965506E0,3.291281823E1
1.121393500E0,-2.327367246E-1,2.730627023E1,-3.788336177E0,2.756878762E1
1.131442500E0,8.897330913E-1,2.142245100E1,-1.929214983E0,2.152753823E1
1.141490500E0,2.135801644E0,1.536776912E1,-1.089166999E0,1.555365749E1
1.151539500E0,2.664670898E0,9.987762372E0,-3.876152878E-1,1.034437595E1
1.161588500E0,2.600984194E0,5.331649107E0,5.620532258E-1,5.958817400E0
1.171637500E0,2.379942193E0,1.290719061E0,1.556272845E0,3.122829759E0
1.181686500E0,1.985339044E0,-2.080705377E0,2.760720770E0,3.986537992E0
1.191735500E0,1.507009030E0,-4.838352267E0,3.319313468E0,6.057934530E0
1.201783500E0,1.020625791E0,-6.914579262E0,2.715758898E0,7.498561846E0
1.211832500E0,8.660511370E-1,-8.446334585E0,1.408699208E0,8.606686119E0
1.221881500E0,7.559439732E-1,-9.748415955E0,2.380049928E-1,9.780578270E0
1.231930500E0,5.799284564E-1,-1.054194510E1,-1.370900760E0,1.064651550E1
1.241979500E0,5.184720272E-1,-1.072674752E1,-2.064109225E0,1.093583433E1
1.252028500E0,4.524490687E-1,-1.076536487E1,-1.986440660E0,1.095644730E1
1.262076500E0,5.368088955E-1,-1.074413714E1,-1.884217297E0,1.092130585E1
1.272125500E0,6.620887068E-1,-1.082174957E1,-2.155749128E0,1.105422451E1
1.282174500E0,4.194524999E-1,-1.158530121E1,-3.169934649E0,1.201847038E1
1.292223500E0,-8.343874410E-2,-1.368505857E1,-4.883631935E0,1.453057642E1
1.302272500E0,-3.714552501E0,-1.689263409E1,-3.915381555E0,1.773384333E1
1.312320500E0,-4.839748582E0,-1.811065355E1,-2.909682097E0,1.897064016E1
1.322369500E0,-3.660238885E0,-1.663985895E1,-3.440012278E0,1.738148265E1
1.332418500E0,-3.708795918E0,-1.667099772E1,-4.596229591E0,1.768622793E1
1.342467500E0,-2.731735538E0,-1.590322790E1,-4.628780456E0,1.678691887E1
1.352516500E0,-1.666505285E0,-1.551607322E1,-3.964669490E0,1.610106743E1
1.362565500E0,-4.266668677E-1,-1.471680796E1,-3.492995068E0,1.513167194E1
1.372613500E0,5.529105194E-2,-1.355798103E1,-3.055114045E0,1.389804406E1
1.382662500E0,5.269980716E-1,-1.271000612E1,-2.475787998E0,1.295961068E1
1.392711500E0,6.760872334E-2,-1.229678339E1,-1.561253649E0,1.239568335E1
1.402760500E0,-1.093011178E0,-1.215485393E1,-5.558632171E-1,1.221655153E1
1.412809500E0,-1.357133929E0,-1.221645902E1,-5.526104110E-1,1.230402625E1
1.422858500E0,-1.296014592E0,-1.228479426E1,-1.273130636E0,1.241840109E1
1.432906500E0,-1.586636851E0,-1.235842240E1,-2.044628057E0,1.262650089E1
1.442955500E0,-1.901007577E0,-1.226610656E1,-2.397246882E0,1.264191412E1
1.453004500E0,-1.753809916E0,-1.215587602E1,-2.481419744E0,1.252990882E1
1.463053500E0,-1.362185046E0,-1.196971822E1,-2.311158911E0,1.226666857E1
1.473102500E0,-7.506473460E-1,-1.169233800E1,-2.000844106E0,1.188602610E1
1.483151500E0,-1.147104026E-1,-1.147024789E1,-1.692266071E0,1.159497777E1
1.493199500E0,-7.732872351E-2,-1.123500855E1,-1.556918231E0,1.134263600E1
1.503248500E0,-5.939842857E-2,-1.106686719E1,-1.244364674E0,1.113676439E1
1.513297500E0,-6.388742739E-2,-1.101347860E1,-7.548702782E-1,1.103950278E1
1.523346500E0,-1.173207093E-1,-1.104449224E1,-2.793789406E-1,1.104864813E1
1.533395500E0,-1.711749724E-1,-1.111392909E1,7.647500262E-2,1.111551030E1
1.543443500E0,-2.787456872E-1,-1.110310472E1,3.754304212E-1,1.111294658E1
1.553492500E0,-3.135894645E-1,-1.100740802E1,6.234331296E-1,1.102950763E1
1.563541500E0,-2.265220297E-1,-1.070007018E1,7.671810061E-1,1.072992921E1
1.573590500E0,-7.594863626E-1,-1.023002655E1,7.738146722E-1,1.028732482E1
1.583639500E0,-1.011192186E0,-9.995080748E0,3.588231593E-1,1.005250729E1
1.593688500E0,-1.108554612E0,-9.760766444E0,-1.630706584E0,9.957944510E0
1.603736500E0,-1.557413052E0,-9.440681089E0,-1.930959939E0,9.761178265E0
1.613785500E0,-1.628359804E0,-5.881298488E0,-6.851953682E-1,6.140905491E0
1.623834500E0,-4.456687252E0,1.145105850E1,-1.911910880E0,1.243560232E1
1.633883500E0,-1.136899633E1,4.308713578E1,-8.894820703E0,4.544087568E1
1.643932500E0,-1.262242653E1,6.887025544E1,-1.795952173E1,7.228403805E1
1.653980500E0,-3.663598110E0,6.870434421E1,-1.893773284E1,7.136067957E1
1.664029500E0,6.293854635E0,6.717689243E1,-1.268091506E1,6.865240775E1
1.674078500E0,8.437364956E0,4.505991149E1,-4.157096679E0,4.603114385E1
1.684127500E0,7.330951302E0,1.914441555E1,7.671001976E0,2.188825632E1
1.694176500E0,6.927954183E0,5.770643440E0,1.688992566E1,1.914592551E1
1.704225500E0,3.427381707E0,-6.261672145E-1,9.308484313E0,9.939160476E0
1.714273500E0,1.281377549E0,-3.394026266E0,4.182226843E0,5.536457719E0
1.724322500E0,3.358943264E-1,-4.939702640E0,2.642237470E0,5.612032254E0
1.734371500E0,3.290194626E-1,-5.758371304E0,2.526089548E0,6.296683435E0
1.744420500E0,1.482419734E0,-5.756537032E0,3.038846799E0,6.676067460E0
1.754469500E0,4.710246788E0,-4.393492591E0,3.922109946E0,7.541362502E0
1.764518500E0,7.726815988E0,-2.816064667E0,2.991766480E0,8.751261177E0
1.774566500E0,8.841130984E0,-1.633070029E0,6.081645146E-1,9.011236257E0
1.784615500E0,8.441864389E0,-1.261788207E0,-8.263209146E-1,8.575546052E0
1.794664500E0,8.086761228E0,-1.966104628E0,3.674887329E-1,8.330445518E0
1.804713500E0,7.339295864E0,-3.710286958E0,2.214132407E0,8.516682182E0
1.814762500E0,4.906382867E0,-5.349030540E0,3.098308889E0,7.892036399E0
1.824811500E0,1.728194141E0,-6.068871319E0,2.939599669E0,6.961257091E0
1.834859500E0,1.000917605E-1,-6.650723655E0,2.955978889E0,7.278733042E0
1.844908500E0,-3.000011931E-1,-7.281319551E0,2.706265943E0,7.773769386E0
1.854957500E0,-6.851689826E-1,-7.665551201E0,2.374153304E0,8.053988804E0
1.865006500E0,-1.041860101E0,-7.978154460E0,2.291771736E0,8.365921273E0
1.875055500E0,-1.357030579E0,-8.202951250E0,2.335580099E0,8.636253563E0
1.885103500E0,-1.642145346E0,-8.323485754E0,2.386448536E0,8.813182912E0
1.895152500E0,-1.947872133E0,-8.330994163E0,2.361017972E0,8.875476069E0
1.905201500E0,-2.136504187E0,-8.067036815E0,2.013644246E0,8.584666346E0
1.915250500E0,-2.057782246E0,-7.619358197E0,1.436548473E0,8.022017117E0
1.925299500E0,-1.863382937E0,-6.956126652E0,7.394435692E-1,7.239245179E0
1.935348500E0,-1.446496341E0,-5.932470396E0,-1.674373956E-1,6.108567094E0
1.945396500E0,-9.330976506E-1,-4.554051871E0,-1.157600180E0,4.790626039E0
1.955445500E0,-3.456045051E-1,-2.815219744E0,-1.988899999E0,3.464192241E0
1.965494500E0,3.547328858E-1,-7.343114680E-1,-2.289946820E0,2.430823974E0
1.975543500E0,1.323033113E0,1.900076115E0,-2.055560011E0,3.096131913E0
1.985592500E0,1.872526666E0,4.669699271E0,-1.568347199E0,5.269929823E0
1.995640500E0,1.979913705E0,7.007344168E0,-6.853720272E-1,7.313868018E0
2.005689500E0,1.723538150E0,8.611308512E0,2.036813984E-1,8.784458103E0
2.015738500E0,1.233696137E0,9.077038069E0,3.436390366E-1,9.166935914E0
2.025787500E0,5.331858145E-1,8.643213844E0,8.008397721E-2,8.660014210E0
2.035836500E0,-2.601971497E-1,7.176234561E0,-1.925775359E-1,7.183531940E0
2.045885500E0,-8.933973952E-1,5.535425157E0,-4.009541388E-1,5.621374814E0
2.055933500E0,-1.246446283E0,3.837981377E0,-5.759904663E-1,4.076210790E0
2.065982500E0,-1.419158854E0,2.078358890E0,-8.004557562E-1,2.640893210E0
2.076031500E0,-1.458870365E0,3.767343503E-1,-8.402840656E-1,1.725198198E0
2.086080500E0,-1.382178431E0,-1.168010563E0,-6.763105971E-1,1.931854527E0
2.096129500E0,-1.377348631E0,-2.370466488E0,-3.147100103E-1,2.759572976E0
2.106177500E0,-1.404012226E0,-3.274134956E0,-1.243117134E-2,3.562494151E0
2.116226500E0,-1.403598536E0,-3.932145522E0,4.231047073E-2,4.175361952E0
2.126275500E0,-1.409954313E0,-4.308277609E0,-1.045447075E-1,4.534330901E0
2.136324500E0,-1.522790080E0,-4.293859545E0,-4.939493895E-1,4.582587197E0
2.146373500E0,-1.725091755E0,-3.721001396E0,-1.168626859E0,4.264678380E0
2.156422500E0,-1.758411236E0,-2.556568744E0,-1.954275126E0,3.667048553E0
2.166470500E0,-1.444084511E0,-1.098763157E0,-2.460286152E0,3.057068612E0
2.176519500E0,-8.840614383E-1,3.200186974E-1,-2.482790916E0,2.654849775E0
2.186568500E0,-3.626457766E-1,1.702763577E0,-2.095740323E0,2.724526245E0
2.196617500E0,1.775765041E-1,2.903465338E0,-1.299841887E0,3.186100016E0
2.206666500E0,6.161760771E-1,3.844771163E0,-1.693283486E-1,3.897513354E0
2.216715500E0,1.190800086E0,4.043640230E0,6.561382878E-1,4.266092897E0
2.226763500E0,1.527734486E0,3.413215658E0,6.798376375E-1,3.800814781E0
2.236812500E0,1.190367538E0,1.980568886E0,3.236135656E-1,2.333313894E0
2.246861500E0,8.742384084E-1,6.213947171E-1,3.260290504E-2,1.073073687E0
2.256910500E0,9.964670695E-1,-3.201409042E-1,-1.402033675E-1,1.055980020E0
2.266959500E0,1.076278713E0,-8.399262160E-1,-2.412607956E-1,1.386383312E0
2.277008500E0,1.039812260E0,-1.013956311E0,-4.398369169E-1,1.517489192E0
2.287056500E0,8.742133384E-1,-1.082940592E0,-7.889846885E-1,1.599845657E0
2.297105500E0,7.786768513E-1,-1.213224742E0,-1.164613330E0,1.853260943E0
2.307154500E0,8.614813187E-1,-1.390875433E0,-1.436754441E0,2.177371777E0
2.317203500E0,1.072203276E0,-1.384037699E0,-1.668394813E0,2.418413007E0
2.327252500E0,1.238782045E0,-1.270248544E0,-1.811391980E0,2.535597212E0
2.337300500E0,1.433189979E0,-9.940810400E-1,-1.904250442E0,2.582324607E0
2.347349500E0,1.719311782E0,-6.472189450E-1,-1.979507616E0,2.700625070E0
2.357398500E0,2.076793444E0,-2.409310126E-1,-2.017478265E0,2.905397961E0
2.367447500E0,2.374927914E0,1.388427204E-1,-2.002360874E0,3.109503009E0
2.377496500E0,2.750881953E0,5.224557352E-1,-1.916828388E0,3.393308501E0
2.387545500E0,2.998676720E0,9.425957215E-1,-1.786096925E0,3.615341061E0
2.397593500E0,2.339959517E0,1.140188926E0,-1.607670309E0,3.059419087E0
2.407642500E0,1.372560492E0,1.087160527E0,-1.528809496E0,2.324456666E0
2.417691500E0,7.130294303E-1,9.804003096E-1,-1.571944991E0,1.985096166E0
2.427740500E0,2.795183236E-1,7.111950856E-1,-1.645433382E0,1.814216072E0
2.437789500E0,-1.006739970E-1,1.987907141E-1,-1.742541600E0,1.756731121E0
2.447837500E0,-4.371598423E-1,-4.819772154E-1,-1.840633906E0,1.952266359E0
2.457886500E0,-7.788917365E-1,-1.179479876E0,-1.977814847E0,2.430966204E0
2.467935500E0,-1.046060960E0,-1.756879558E0,-2.053995296E0,2.898234978E0
2.477984500E0,-1.263065970E0,-2.249567703E0,-1.966366584E0,3.243838473E0
2.488033500E0,-1.427341886E0,-2.765054727E0,-1.752277215E0,3.571177388E0
2.498082500E0,-1.525893197E0,-3.277738595E0,-1.599354399E0,3.953461122E0
2.508130500E0,-1.675275232E0,-3.669191557E0,-1.594104184E0,4.337128304E0
2.518179500E0,-1.780120632E0,-3.797822700E0,-1.486361049E0,4.449893919E0
2.528228500E0,-1.895381386E0,-3.598177122E0,-1.537375667E0,4.347743454E0
2.538277500E0,-1.947886166E0,-3.144212748E0,-1.639060501E0,4.045596822E0
2.548326500E0,-1.502444108E0,-1.873687046E0,-1.793048680E0,2.997176173E0
2.558375500E0,-8.667883247E-1,-5.306523621E-2,-1.895054526E0,2.084555007E0
2.568423500E0,-5.243616351E-1,1.501812317E0,-1.813681165E0,2.412433362E0
2.578472500E0,-2.381252262E-1,2.638299370E0,-1.760712408E0,3.180791627E0
2.588521500E0,9.517702952E-2,3.847964913E0,-1.667209582E0,4.194696703E0
2.598570500E0,5.831679600E-1,4.985437807E0,-1.461860046E0,5.227973775E0
2.608619500E0,1.394663113E0,5.623979484E0,7.591549717E-2,5.794824725E0
2.618667500E0,2.948647650E0,5.610339684E0,3.490833353E0,7.235768918E0
2.628716500E0,4.043943701E0,4.598436331E0,4.761312861E0,7.756880656E0
2.638765500E0,4.451877332E0,3.064694123E0,3.978566275E0,6.711225779E0
2.648814500E0,4.245027985E0,1.322541947E0,2.262966013E0,4.989027458E0
2.658863500E0,3.350064560E0,-3.061163574E-1,1.406872830E0,3.646358586E0
2.668912500E0,2.212113071E0,-1.475321506E0,1.380941598E0,2.996167132E0
2.678960500E0,1.254233020E0,-2.389896201E0,1.482378218E0,3.079309907E0
2.689009500E0,6.065867896E-1,-3.255083558E0,1.292412415E0,3.554412237E0
2.699058500E0,-2.524598216E-1,-3.706074623E0,1.071047063E0,3.865988475E0
2.709107500E0,-1.040590378E0,-3.480007818E0,8.442285973E-1,3.729075579E0
2.719156500E0,-1.332854535E0,-2.835977944E0,8.702045605E-1,3.252157451E0
2.729204500E0,-1.342161110E0,-2.295540267E0,8.848325399E-1,2.802468588E0
2.739253500E0,-1.539896548E0,-1.954820087E0,9.768922725E-1,2.673372676E0
2.749302500E0,-1.781437425E0,-1.899011922E0,1.272190696E0,2.897970798E0
2.759351500E0,-1.841541978E0,-1.844320575E0,1.320999744E0,2.921957489E0
2.769400500E0,-2.004790684E0,-1.968296750E0,1.096036162E0,3.015737563E0
2.779449500E0,-2.065307612E0,-2.500197492E0,8.949105084E-1,3.364126610E0
2.789497500E0,-2.054164135E0,-3.316055399E0,3.421756978E-1,3.915724443E0
2.799546500E0,-2.043148127E0,-4.265033357E0,-4.963806617E-1,4.755140120E0
2.809595500E0,-2.406278199E0,-5.126151636E0,-2.709531906E0,6.277672221E0
2.819644500E0,-3.075033170E0,-6.060008694E0,-4.676625298E0,8.249264122E0
2.829693500E0,-3.079660656E0,-6.916852659E0,-3.602006464E0,8.384605598E0
2.839741500E0,-3.887717501E0,-7.206885080E0,-5.041841218E0,9.616324807E0
2.849790500E0,-4.118103645E0,-6.964979922E0,-4.248309735E0,9.138810565E0
2.859839500E0,-3.682532856E0,-5.727998527E0,-3.170308871E0,7.511449507E0
2.869888500E0,-3.318414751E0,-3.785146521E0,-2.436983829E0,5.592682793E0
2.879937500E0,-2.710123059E0,-1.600175348E0,-1.451904577E0,3.466028713E0
2.889986500E0,-1.819892808E0,4.976851755E-1,3.275470606E-1,1.914937974E0
2.900034500E0,-1.174704894E0,3.146569760E0,4.782111700E-1,3.392568167E0
2.910083500E0,-5.403726272E-1,7.506924427E0,9.126155850E-1,7.581476382E0
2.920132500E0,-2.669809431E-2,1.431628538E1,4.160152142E-1,1.432235346E1
2.930181500E0,7.689644068E-2,2.462507627E1,-7.488926697E-1,2.463658122E1
2.940230500E0,-6.805521673E-1,3.750152923E1,-2.939485063E0,3.762271147E1
2.950279500E0,-1.307266389E0,4.641412664E1,-6.013865976E0,4.682036609E1
2.960327500E0,-1.213953086E0,4.519437874E1,-8.307478416E0,4.596759456E1
2.970376500E0,8.964700339E-1,3.762486572E1,-8.961823947E0,3.868783358E1
2.980425500E0,5.562056885E0,2.881738955E1,-8.749525580E0,3.062568555E1
2.990474500E0,1.018773481E1,2.026945960E1,-8.183292911E0,2.411653408E1
3.000523500E0,1.391494536E1,1.045623427E1,-5.661246128E0,1.830323052E1
3.010571500E0,1.489403473E1,6.402146239E0,5.248049126E0,1.704000489E1
3.020619791E0,1.350784467E1,2.940170649E0,5.484285994E0,1.487225147E1
3.030668792E0,7.576427355E0,1.559797400E0,1.887846079E0,7.962360342E0
3.040717792E0,2.961064213E0,-1.337046551E0,1.101162854E0,3.430474367E0
3.050766791E0,-6.215381493E0,-1.491451285E1,-2.643284122E0,1.637255666E1
3.060815792E0,-1.145598653E1,-1.365486004E1,8.585724020E0,1.978407155E1
3.070863792E0,-7.491162087E0,-6.778631498E0,1.240379212E1,1.599754398E1
3.080912792E0,-4.452787159E0,-4.778579689E0,9.157561830E0,1.124824769E1
3.090961792E0,-5.404746319E0,-6.943080345E0,5.535295933E0,1.039505404E1
3.101010791E0,-3.017505924E0,-6.778833811E0,2.925176049E0,7.975875172E0
3.111059792E0,-9.485296221E-1,-7.211985607E0,1.829537644E0,7.500643494E0
3.121107792E0,-1.555508468E-1,-7.825288947E0,2.065304396E0,8.094740602E0
3.131156791E0,-1.403149908E0,-9.607497473E0,3.296777129E-1,9.715015428E0
3.141205792E0,-2.244311787E0,-1.065486419E1,-3.660614276E-1,1.089481837E1
3.151254792E0,-2.595448343E0,-1.123374322E1,-9.271287397E-1,1.156688837E1
3.161303791E0,-2.553786347E0,-1.143722866E1,-1.374689755E0,1.179922862E1
3.171352792E0,-2.628867227E0,-1.164098892E1,-2.555471807E0,1.220467133E1
3.181400792E0,-2.755315897E0,-1.208687654E1,-3.597545038E0,1.290839574E1
3.191449792E0,-2.803993675E0,-1.232659484E1,-3.866332771E0,1.321952533E1
3.201498792E0,-2.694864165E0,-1.220009150E1,-3.639775969E0,1.301355042E1
3.211547791E0,-2.349236271E0,-1.194002138E1,-3.312672785E0,1.261177317E1
3.221596792E0,-2.168161743E0,-1.223275872E1,-3.103161201E0,1.280511307E1
3.231645792E0,-1.924038882E0,-1.168380107E1,-2.910545146E0,1.219362153E1
3.241693791E0,-2.008445925E0,-1.166186816E1,-2.645598450E0,1.212568411E1
3.251742792E0,-3.002955127E0,-1.179213711E1,7.965642880E-1,1.219453778E1
3.261791792E0,-3.766003906E0,-1.165948133E1,1.176983700E0,1.230900406E1
3.271840791E0,-3.770349557E0,-1.107043048E1,-1.479941538E0,1.178813784E1
3.281889792E0,-3.759973673E0,-1.074813663E1,-2.055136673E0,1.157080075E1
3.291937792E0,-3.780611420E0,-1.072160665E1,-2.352324624E0,1.160944887E1
3.301986792E0,-3.783891708E0,-1.061962068E1,-2.848945607E0,1.162801234E1
3.312035792E0,-3.631770546E0,-1.098674046E1,-2.690937175E0,1.188020901E1
3.322084791E0,-2.814000599E0,-1.114451237E1,-2.336103133E0,1.172928528E1
3.332133792E0,-2.531143004E0,-1.126140522E1,-2.011561614E0,1.171632676E1
3.342182792E0,-2.581170612E0,-1.130627442E1,-2.153825394E0,1.179547569E1
3.352230791E0,-2.469138837E0,-1.099605390E1,-1.488625091E0,1.136775495E1
3.362279792E0,-2.471677990E0,-1.078600203E1,-1.247856777E0,1.113571634E1
3.372328792E0,-2.517264345E0,-1.060520963E1,-1.249349864E0,1.097123358E1
3.382377791E0,-2.781502360E0,-1.070437140E1,-1.650658892E0,1.118235204E1
3.392426792E0,-2.944199966E0,-1.075051411E1,-1.861867631E0,1.130081494E1
3.402474792E0,-2.984853902E0,-1.103890230E1,-1.943163663E0,1.159925005E1
3.412523792E0,-2.952535172E0,-1.114514971E1,-1.801420138E0,1.166948759E1
3.422572792E0,-3.100869677E0,-1.092113002E1,-9.678135931E-1,1.139399565E1
3.432621791E0,-3.206192064E0,-1.036464817E1,-4.070831537E-1,1.085685571E1
3.442670792E0,-3.498249376E0,-9.952941034E0,8.409640968E-1,1.058328893E1
3.452719792E0,-3.436488746E0,-9.148248385E0,2.412134331E0,1.006569895E1
3.462767791E0,-2.595501553E0,-8.192068997E0,2.642700570E0,8.990577794E0
3.472816792E0,-2.630506786E0,-7.218398248E0,3.421673656E-1,7.690378256E0
3.482865792E0,-3.282370467E0,-4.355504401E0,2.938785736E-1,5.461752382E0
3.492914791E0,-4.321833794E0,5.952450331E0,-1.430107765E0,7.493672031E0
3.502963792E0,-5.723348821E0,2.719917028E1,-7.671012501E0,2.883393866E1
3.513011792E0,-7.337406043E0,5.839390207E1,-1.812820455E1,6.158179217E1
3.523060792E0,6.585569885E-1,6.998091300E1,-2.773216504E1,7.527838242E1
3.533109792E0,1.447593308E1,6.501971892E1,-2.504926837E1,7.116587900E1
3.543158791E0,1.621256081E1,4.243985368E1,-1.191723010E1,4.696816669E1
3.553207792E0,1.047393497E1,2.172398256E1,-2.164469665E0,2.421403851E1
3.563256792E0,7.948786819E0,9.611823828E0,8.626293172E0,1.516520040E1
3.573304791E0,8.309758830E0,2.477137828E-1,2.273059009E1,2.420316466E1
3.583353792E0,4.051065609E0,-2.863563353E0,1.234426279E1,1.330383221E1
3.593402792E0,1.142105936E0,-3.497313237E0,4.055804193E0,5.475870113E0
3.603451791E0,1.583272509E0,-4.149305264E0,1.791637747E0,4.788888371E0
3.613500792E0,5.075274428E0,-4.147484441E0,3.419247061E-1,6.563303301E0
3.623548792E0,7.873938950E0,-3.464954746E0,-3.265025286E0,9.201370338E0
3.633597792E0,9.808352255E0,-2.633374845E0,-5.268529583E0,1.144097203E1
3.643646792E0,9.389365339E0,-1.900528105E0,-4.547990355E0,1.060454642E1
3.653695791E0,6.388570758E0,-1.598466792E0,-1.986749100E0,6.878670250E0
3.663744792E0,2.878407387E0,-1.055005519E0,9.013187644E-1,3.195409402E0
3.673793792E0,8.312349147E-1,-7.740204942E-1,2.997165507E0,3.205161507E0
3.683841791E0,5.587052563E-1,-9.890103346E-1,3.326296505E0,3.514902765E0
3.693890792E0,6.256462276E-1,-1.424620884E0,2.647596151E0,3.070951521E0
3.703939792E0,7.229877502E-1,-1.643985026E0,1.927939267E0,2.634833557E0
3.713988791E0,6.429534012E-1,-1.674857740E0,1.361940779E0,2.252425406E0
3.724037792E0,1.926496759E-1,-1.654284897E0,9.007626942E-1,1.893448137E0
3.734085792E0,-3.146035910E-1,-1.445373822E0,6.431834891E-1,1.612999041E0
3.744134792E0,-9.142756096E-1,-1.232127621E0,7.327498229E-1,1.700282526E0
3.754183792E0,-1.601629258E0,-1.204389015E0,3.538607736E-1,2.034941431E0
3.764232791E0,-1.840723076E0,-1.384322459E0,-2.888840282E-1,2.321220388E0
3.774281792E0,-1.993688576E0,-1.617617007E0,-7.501826385E-1,2.674743523E0
3.784330792E0,-2.067618724E0,-1.931425377E0,-1.032162201E0,3.011778542E0
3.794378791E0,-2.137401735E0,-2.296492193E0,-1.219387708E0,3.365897941E0
3.804427792E0,-2.348021951E0,-2.672931844E0,-1.228822775E0,3.764010778E0
3.814476792E0,-2.495323253E0,-3.021301936E0,-1.070542156E0,4.062137865E0
3.824525791E0,-2.506666267E0,-3.129794099E0,-8.558850217E-1,4.100186099E0
3.834574792E0,-2.549079923E0,-3.040387833E0,-5.356674824E-1,4.003586677E0
3.844622792E0,-2.624960410E0,-2.851118724E0,-1.187773786E-1,3.877293282E0
3.854671792E0,-2.602382556E0,-2.419982464E0,2.356300000E-1,3.561492888E0
3.864720792E0,-2.579720502E0,-2.054419219E0,2.270514768E-1,3.305623780E0
3.874769791E0,-2.739187814E0,-1.950872047E0,-1.222635617E-1,3.365115154E0
3.884818792E0,-2.739165010E0,-1.832487565E0,-6.410355145E-1,3.357374295E0
3.894867792E0,-2.675630919E0,-1.553233316E0,-1.456853660E0,3.419642837E0
3.904915791E0,-2.825951723E0,-1.228421071E0,-1.687977138E0,3.513443936E0
3.914964792E0,-3.088786698E0,-1.073800809E0,-1.797737562E0,3.731690205E0
3.925013792E0,-3.045480465E0,-4.797225291E-1,-1.682161497E0,3.512086598E0
3.935062791E0,-2.547646185E0,1.743972999E-1,-1.322582878E0,2.875785279E0
3.945111792E0,-1.950736976E0,8.705995399E-1,-5.784083631E-1,2.213114218E0
3.955159792E0,-1.177502055E0,1.323509077E0,5.670804791E-1,1.860045063E0
3.965208792E0,-3.026258621E-1,1.535822062E0,1.848710665E0,2.422408500E0
3.975257792E0,2.691064060E-1,1.581789948E0,2.651833920E0,3.099467831E0
3.985306791E0,5.433405277E-1,1.513749992E0,2.567568526E0,3.029697362E0
3.995355792E0,7.210637239E-1,1.342824769E0,2.052846318E0,2.556812324E0
4.005404792E0,4.309593818E-1,1.003145394E0,1.115806621E0,1.561105725E0
4.015453500E0,9.617266417E-2,7.187087578E-1,6.113852341E-2,7.276876932E-1
4.025502500E0,-1.458453459E-1,4.532439977E-1,-5.744890109E-1,7.461491875E-1
4.035551500E0,-4.195011780E-1,-4.823368192E-2,-6.932505655E-1,8.117290638E-1
4.045600500E0,-3.744439960E-1,-7.311405230E-1,-6.025788888E-1,1.018762037E0
4.055649500E0,2.002826312E-1,-1.296370395E0,2.927093498E-1,1.344011941E0
4.065697500E0,8.471720856E-1,-1.432416392E0,1.363529613E0,2.151448412E0
4.075746500E0,1.127703951E0,-1.258062946E0,2.188598785E0,2.764851392E0
4.085795500E0,1.108911000E0,-9.400323021E-1,2.350660361E0,2.763864770E0
4.095844500E0,1.014888357E0,-7.770616311E-1,1.879528999E0,2.272983153E0
4.105893500E0,8.621216619E-1,-7.368865818E-1,1.310338808E0,1.732986840E0
4.115942500E0,4.477449837E-1,-6.612709737E-1,8.705568552E-1,1.181365358E0
4.125990500E0,4.872271380E-1,-5.219043428E-1,4.480791521E-1,8.429408956E-1
4.136039500E0,5.663727102E-1,-3.059532201E-1,1.424755224E-1,6.593062219E-1
4.146088500E0,5.077923802E-1,-9.679890096E-2,-8.885545850E-2,5.245173220E-1
4.156137500E0,7.213417590E-3,-6.282306969E-2,-2.006694245E-1,2.103972182E-1
4.166186500E0,-5.299170747E-1,-5.212266505E-2,-1.438029134E-1,5.515506833E-1
4.176234500E0,-6.509208173E-1,2.053688318E-1,-2.196623139E-1,7.170256617E-1
4.186283500E0,-7.421704182E-1,5.802683258E-1,-6.157737887E-1,1.125480172E0
4.196332500E0,-7.731524751E-1,8.738295418E-1,-9.844442439E-1,1.526588775E0
4.206381500E0,-7.748008052E-1,9.932887423E-1,-1.065900636E0,1.650176651E0
4.216430500E0,-8.986001015E-1,8.491613084E-1,-7.759652781E-1,1.459684618E0
4.226479500E0,-9.672426125E-1,6.154393280E-1,-4.459238684E-1,1.230110537E0
4.236527500E0,-5.277331397E-1,4.767954129E-1,-2.862539506E-1,7.666664573E-1
4.246576500E0,-1.491624713E-1,3.801140410E-1,-2.146407616E-1,4.613098563E-1
4.256625500E0,2.076550931E-2,4.788828689E-1,-8.134354055E-2,4.861859522E-1
4.266674500E0,1.514256361E-1,1.067105162E-1,-2.378177723E-2,1.867683872E-1
4.276723500E0,3.015394494E-1,-3.081336468E-1,-8.758661270E-2,4.399361301E-1
4.286771500E0,4.050541699E-2,-3.792071378E-1,4.717884421E-2,3.842714998E-1
4.296820500E0,-2.982676399E-1,-4.002845961E-1,-2.415648325E-1,5.545673189E-1
4.306869500E0,5.464427680E-2,-4.412086737E-1,-4.008102608E-1,5.985816201E-1
4.316918500E0,4.334517574E-1,-6.607131493E-1,-4.053371751E-1,8.880993848E-1
4.326967500E0,7.398008341E-1,-8.815876275E-1,-2.294961977E-1,1.173529089E0
4.337015500E0,8.370692664E-1,-8.307226986E-1,-1.583250125E-2,1.179421819E0
4.347064500E0,6.517458594E-1,-5.351401001E-1,1.498056650E-1,8.564982950E-1
4.357113500E0,4.232050967E-1,-2.711236954E-1,2.304586494E-1,5.529211528E-1
4.367162500E0,2.311573917E-1,-3.759297734E-1,2.967637543E-1,5.318135577E-1
4.377211500E0,1.656867027E-1,-6.323974228E-1,4.096559286E-1,7.714898338E-1
4.387260500E0,-7.030136615E-2,-8.564159489E-1,6.966817117E-1,1.106235041E0
4.397308500E0,-2.867234820E-1,-8.680372900E-1,1.069979653E0,1.407322120E0
4.407357500E0,-4.553153738E-1,-7.906318492E-1,1.484060755E0,1.742081265E0
4.417406500E0,-6.195253623E-1,-6.240148544E-1,1.774696609E0,1.980594422E0
4.427455500E0,-7.645067820E-1,-3.313242888E-1,1.814300824E0,1.996480374E0
4.437504500E0,-7.704057455E-1,-1.030022120E-1,1.938494515E0,2.088515131E0
4.447553500E0,-9.929949197E-1,-2.496252376E-1,2.052832285E0,2.294007860E0
4.457601500E0,-1.670988638E0,-5.428028762E-1,1.989724310E0,2.654400275E0
4.467650500E0,-2.628132524E0,-1.190943342E0,1.708797465E0,3.353418463E0
4.477699500E0,-3.155162536E0,-2.227850559E0,1.875723778E0,4.293798835E0
4.487748500E0,-3.248892818E0,-3.222087720E0,1.912478206E0,4.959307079E0
4.497797500E0,-3.391170778E0,-4.063431301E0,1.532414889E0,5.509973555E0
4.507845500E0,-3.534080529E0,-4.977921211E0,1.022620715E0,6.189925516E0
4.517894500E0,-3.559757992E0,-5.894510272E0,2.635550594E-1,6.891051413E0
4.527943500E0,-3.569799123E0,-6.618378028E0,-4.640620776E-1,7.534039229E0
4.537992500E0,-3.543427596E0,-7.132158249E0,-9.236424105E-1,8.017273584E0
4.548041500E0,-3.360104814E0,-7.452962812E0,-1.471435447E0,8.306749142E0
4.558089500E0,-3.026661201E0,-7.577221407E0,-1.672917634E0,8.329082524E0
4.568138500E0,-2.579621392E0,-7.402066308E0,-1.530506358E0,7.986706572E0
4.578187500E0,-1.617460302E0,-6.418114400E0,-1.646393495E0,6.820482521E0
4.588236500E0,-1.209397447E0,-5.106221402E0,-2.238580785E0,5.705031386E0
4.598285500E0,-4.139828682E-1,-3.070102213E0,-4.365468056E0,5.352963736E0
4.608334500E0,8.224500579E-1,-3.852859032E-1,-6.622504992E0,6.684492628E0
4.618382500E0,2.498171724E0,2.723666965E0,-7.489588602E0,8.351835793E0
4.628431500E0,3.617682849E0,5.561903688E0,-5.688694128E0,8.739773608E0
4.638480500E0,4.164296648E0,8.894093310E0,-3.235625778E0,1.033999693E1
4.648529500E0,4.896609538E0,1.356453342E1,-3.244373652E-1,1.442493021E1
4.658578500E0,6.893440992E0,1.940205790E1,2.975588404E0,2.080417040E1
4.668626500E0,1.011834941E1,2.563801516E1,3.596289057E0,2.779608086E1
4.678675500E0,1.331248802E1,3.043295653E1,6.699505806E-2,3.321733988E1
4.688724500E0,1.562462795E1,3.177427505E1,-5.173373750E0,3.578403764E1
4.698773500E0,1.619237739E1,2.789632211E1,-7.438087496E0,3.310170718E1
4.708822500E0,1.310502063E1,2.280978244E1,-5.687379674E0,2.691419752E1
4.718871500E0,1.039926134E1,2.033976886E1,-2.565866109E0,2.298770329E1
4.728919500E0,9.064935502E0,1.756175670E1,-8.066514659E-1,1.977976341E1
4.738968500E0,9.552796186E0,1.498115824E1,-3.692031658E0,1.814723436E1
4.749017500E0,9.722273054E0,1.298551991E1,-6.264225039E0,1.738927359E1
4.759066500E0,8.833975747E0,1.028063654E1,-5.077119809E0,1.447438291E1
4.769115500E0,7.681776055E0,7.088699403E0,-1.237546821E0,1.052572395E1
4.779163500E0,5.739750845E0,4.045954558E0,2.304467211E0,7.390876618E0
4.789212500E0,3.181160719E0,1.349043283E0,4.395789378E0,5.591302670E0
4.799261500E0,8.572713965E-1,-1.107621689E0,5.846025159E0,6.011468225E0
4.809310500E0,-1.399274374E0,-3.201214914E0,6.402318732E0,7.293519784E0
4.819359500E0,-3.231426893E0,-4.952468866E0,5.910034629E0,8.360477077E0
4.829407500E0,-4.305090000E0,-6.620131608E0,4.217635242E0,8.952563289E0
4.839456500E0,-5.052650381E0,-8.255519473E0,2.389000407E0,9.969463405E0
4.849505500E0,-5.312615835E0,-9.742444779E0,5.761378527E-1,1.111175288E1
4.859554500E0,-5.744276590E0,-1.090266451E1,-1.327941266E0,1.239468576E1
4.869603500E0,-9.261237642E0,-1.811342513E1,-5.860656062E0,2.117106473E1
4.879652500E0,-1.455948628E1,-2.718707123E1,-7.902013772E0,3.183641475E1
4.889700500E0,-9.623374418E0,-1.658625168E1,-4.223414630E-1,1.918049667E1
4.899749500E0,-8.765327681E0,-1.311109471E1,8.544600552E-1,1.579436216E1
4.909798500E0,-8.872932236E0,-1.189008616E1,2.635330739E0,1.506811347E1
4.919847500E0,-9.111653001E0,-1.156481725E1,1.805419634E0,1.483329897E1
4.929896500E0,-9.010692637E0,-1.130031961E1,-4.675136890E-1,1.446058001E1
4.939944500E0,-8.546565217E0,-1.100363891E1,-1.775294925E0,1.404548035E1
4.949993500E0,-8.094681281E0,-9.954774721E0,-2.546857104E0,1.308082130E1
4.960042500E0,-7.824431160E0,-9.266389039E0,-3.101205600E0,1.251819336E1
4.970091500E0,-7.293365985E0,-8.836447365E0,-3.166370772E0,1.188704729E1
4.980140500E0,-6.726090172E0,-8.250846378E0,-3.474677496E0,1.119777383E1
4.990189500E0,-6.205488589E0,-7.418337355E0,-4.025696880E0,1.047597504E1
5.000237500E0,-5.984496582E0,-6.722657856E0,-4.391879929E0,1.001483586E1
5.010286500E0,-5.914142883E0,-6.356064332E0,-4.302111720E0,9.689417170E0
5.020335125E0,-5.702712243E0,-6.368578543E0,-3.636705011E0,9.290066895E0
5.030384125E0,-5.873177290E0,-6.616201109E0,-3.010787473E0,9.345221763E0
5.040433125E0,-5.959892668E0,-6.883344020E0,-2.619956947E0,9.474435071E0
5.050481125E0,-5.941210229E0,-7.139880082E0,-2.349964980E0,9.581137823E0
5.060530125E0,-5.679760752E0,-7.468486000E0,-2.011504311E0,9.596046839E0
5.070579125E0,-5.368342139E0,-7.787784905E0,-1.580041192E0,9.589849906E0
5.080628125E0,-5.226893899E0,-8.115023745E0,-1.126164525E0,9.718141631E0
5.090677125E0,-5.139062873E0,-8.410878239E0,-8.379587741E-1,9.892169371E0
5.100726125E0,-5.212977526E0,-8.636795356E0,-1.085279624E0,1.014628999E1
5.110774125E0,-5.239956579E0,-8.735858299E0,-1.752583170E0,1.033653293E1
5.120823125E0,-5.078820180E0,-8.782542468E0,-2.102450442E0,1.036087663E1
5.130872125E0,-4.891573623E0,-9.128863696E0,-2.097281064E0,1.056703519E1
5.140921125E0,-4.787646089E0,-9.351554319E0,-1.782738869E0,1.065604435E1
5.150970125E0,-5.015131137E0,-9.572634619E0,3.414586830E-1,1.081219071E1
5.161018125E0,-4.427322535E0,-9.665400111E0,-7.822171211E-2,1.063142807E1
5.171067125E0,-3.399393133E0,-9.419987792E0,-4.804429060E-1,1.002610937E1
5.181116125E0,-2.947374127E0,-9.211661439E0,-8.543368617E-2,9.672074215E0
5.191165125E0,-2.841049527E0,-9.048020092E0,3.225224751E-1,9.489059529E0
5.201214125E0,-2.606478238E0,-8.518446541E0,1.026817846E0,8.967274679E0
5.211262125E0,-1.643304118E0,-4.035499737E0,2.042528322E0,4.812237369E0
5.221311125E0,6.451192099E-1,3.456382728E0,1.856150662E0,3.975934561E0
5.231360125E0,3.055713092E0,1.624224361E1,1.352113656E0,1.658240246E1
5.241409125E0,3.022771049E0,3.864602112E1,-4.326693269E-1,3.876647129E1
5.251458125E0,3.095705416E0,6.127795933E1,-7.320511683E0,6.179127432E1
5.261507125E0,1.007714876E1,6.787282336E1,-1.331047658E1,6.989590736E1
5.271555125E0,1.838877987E1,4.920850164E1,-1.509936087E1,5.465907571E1
5.281604125E0,1.548292653E1,2.806781393E1,-1.123613473E1,3.396724770E1
5.291653125E0,9.803570986E0,1.476925748E1,-6.271981956E0,1.880368922E1
5.301702125E0,5.767770703E0,7.285940605E0,-1.962318556E0,9.497515649E0
5.311751125E0,3.312768095E0,2.317618768E0,1.457640842E0,4.297732661E0
5.321799125E0,2.888609609E0,-2.150101887E0,1.334943190E1,1.382658077E1
5.331848125E0,3.024226421E0,-4.936312425E0,1.558132464E1,1.662199757E1
5.341897125E0,3.193698026E0,-5.559451951E0,8.052717569E0,1.029337036E1
5.351946125E0,3.509832126E0,-3.911780255E0,3.446641266E0,6.284925006E0
5.361995125E0,2.547322542E0,7.925023735E-2,-1.389546361E0,2.902752456E0
5.372044125E0,1.552577697E0,2.228645196E0,-4.328292336E0,5.109938499E0
5.382092125E0,9.280835170E-1,2.775432365E0,-5.756947507E0,6.458080862E0
5.392141125E0,8.282585357E-1,1.879167057E0,-3.784035842E0,4.305369703E0
5.402190125E0,1.204804167E0,7.675107890E-1,-1.458904571E0,2.041819884E0
5.412239125E0,1.127899979E0,-5.823534429E-2,-8.732202619E-2,1.132773081E0
5.422288125E0,7.849917711E-1,-7.865627718E-1,6.152567486E-1,1.270210196E0
5.432336125E0,3.473990156E-1,-1.634868633E0,1.060592606E0,1.979479275E0
5.442385125E0,2.330173910E-2,-2.143698016E0,1.019638635E0,2.373951790E0
5.452434125E0,-4.180493143E-1,-2.768511600E0,1.332630733E0,3.100858975E0
5.462483125E0,-8.943861593E-1,-3.239172699E0,1.735853555E0,3.782241920E0
5.472532125E0,-1.127178871E0,-3.701832469E0,1.652759943E0,4.207815498E0
5.482580125E0,-1.228760941E0,-4.246286598E0,1.189216075E0,4.577667332E0
5.492629125E0,-1.101210802E0,-4.810876785E0,2.318999881E-1,4.940746732E0
5.502678125E0,-9.118303040E-1,-5.322044470E0,-6.927407614E-1,5.443848052E0
5.512727125E0,-7.377259496E-1,-5.686161699E0,-1.362895337E0,5.893569219E0
5.522776125E0,-7.535372593E-1,-5.948461361E0,-1.628165969E0,6.213126056E0
5.532824125E0,-9.171655959E-1,-6.029953421E0,-1.635777290E0,6.314847451E0
5.542873125E0,-1.160963645E0,-5.781163166E0,-1.601958164E0,6.110315384E0
5.552922125E0,-1.316067910E0,-5.398196853E0,-1.498571205E0,5.754848361E0
5.562971125E0,-9.597261630E-1,-4.763125498E0,-1.376479003E0,5.050062699E0
5.573020125E0,-3.954640053E-1,-3.974001061E0,-1.547441064E0,4.282948758E0
5.583069125E0,-1.516120161E-1,-3.147246868E0,-1.804299746E0,3.630929168E0
5.593117125E0,-3.060871214E-3,-2.409673238E0,-1.954335791E0,3.102573588E0
5.603166125E0,6.643094793E-2,-1.766264339E0,-2.009518304E0,2.676241133E0
5.613215125E0,6.326891989E-2,-1.235893813E0,-1.993473252E0,2.346352932E0
5.623264125E0,9.641853958E-2,-6.002248728E-1,-1.898369459E0,1.993332144E0
5.633313125E0,1.314685044E-1,1.297432834E-1,-1.714081448E0,1.724004784E0
5.643361125E0,2.469295250E-1,9.836987239E-1,-1.490254272E0,1.802635616E0
5.653410125E0,2.656521633E-1,1.928888855E0,-1.174362832E0,2.273831864E0
5.663459125E0,2.504144655E-1,2.952121189E0,-8.261373121E-1,3.075748653E0
5.673508125E0,1.997841561E-1,3.645538400E0,-3.291701015E-1,3.665817356E0
5.683557125E0,8.323511481E-2,3.929123681E0,2.949096570E-1,3.941054769E0
5.693606125E0,-7.101487264E-2,3.787678950E0,9.823328143E-1,3.913634206E0
5.703654125E0,-1.352298720E-1,3.188089669E0,1.420271140E0,3.492760079E0
5.713703125E0,-3.215799040E-1,2.310406812E0,1.470526205E0,2.757506227E0
5.723752125E0,-7.277913840E-1,1.315419454E0,1.116814097E0,1.872773976E0
5.733801125E0,-1.518191245E0,2.488422954E-1,1.056184902E0,1.866106560E0
5.743850125E0,-2.533107376E0,-5.682125366E-1,2.499699894E0,3.603886517E0
5.753898125E0,-3.654747764E0,-9.187496066E-1,2.629932590E0,4.595413745E0
5.763947125E0,-3.880508176E0,-8.068795073E-1,1.497353815E0,4.236917121E0
5.773996125E0,-4.104542490E0,-8.337345994E-1,2.660376703E0,4.961853145E0
5.784045125E0,-2.676353050E0,-3.785399705E-1,2.216143849E0,3.495347152E0
5.794094125E0,-8.581838545E-1,7.268206000E-2,6.557500327E-1,1.082483402E0
5.804142125E0,-7.654530077E-1,-1.096955198E-1,-4.637590456E-1,9.016783608E-1
5.814191125E0,-9.243183486E-1,-2.108985436E-1,-1.301016008E0,1.609809075E0
5.824240125E0,-9.484151629E-1,-1.435199082E-1,-1.665285848E0,1.921787252E0
5.834289125E0,-8.160356623E-1,1.795960593E-1,-1.642100469E0,1.842461098E0
5.844338125E0,-5.771121450E-1,6.906175643E-1,-1.460456715E0,1.715501345E0
5.854387125E0,-4.075376286E-1,1.093015344E0,-1.214027565E0,1.683636656E0
5.864435125E0,-3.705401024E-1,1.158845052E0,-7.723364961E-1,1.441084829E0
5.874484125E0,-2.129722586E-1,9.535481411E-1,-2.177783958E-1,1.001018816E0
5.884533125E0,1.421643774E-1,2.704003948E-1,4.365461040E-1,5.328222824E-1
5.894582125E0,3.182959615E-1,-7.792461509E-1,1.012254259E0,1.316508856E0
5.904631125E0,3.630802247E-1,-1.884403823E0,1.375500764E0,2.361102999E0
5.914679125E0,4.139492467E-1,-2.563809936E0,1.546773897E0,3.022744590E0
5.924728125E0,5.857000968E-1,-2.613238789E0,1.368920892E0,3.007657890E0
5.934777125E0,7.319380832E-1,-2.283949331E0,9.147881180E-1,2.566903817E0
5.944826125E0,9.508671927E-1,-1.802479069E0,4.104429273E-1,2.078832030E0
5.954875125E0,1.344459358E0,-1.198255286E0,-1.584677303E-1,1.807898979E0
5.964924125E0,1.864729112E0,-6.458705771E-1,-7.767552370E-1,2.120781026E0
5.974972125E0,2.401778913E0,-2.205353397E-1,-1.284194738E0,2.732459314E0
5.985021125E0,2.759586703E0,9.128965437E-2,-1.603790681E0,3.193085831E0
5.995070125E0,2.923134202E0,1.411640650E-1,-1.594357953E0,3.332659319E0
6.005119125E0,2.531415777E0,-1.651423270E-1,-1.203285645E0,2.807709772E0
6.015168125E0,1.700850807E0,-6.321068162E-1,-6.565779984E-1,1.929649492E0
6.025216750E0,7.345710844E-1,-9.994534618E-1,-4.194207788E-2,1.241072535E0
6.035265750E0,-2.841831592E-1,-1.302912260E0,9.263661897E-1,1.623728654E0
6.045314750E0,-1.212409056E0,-1.514248175E0,1.835136938E0,2.670320362E0
6.055363750E0,-1.854744699E0,-1.780687666E0,2.450040661E0,3.551566655E0
6.065412750E0,-1.885042631E0,-1.984111129E0,2.796570050E0,3.912912820E0
6.075460750E0,-1.878660980E0,-2.078664699E0,2.959100425E0,4.075106052E0
6.085509750E0,-2.060619022E0,-2.371013203E0,3.099542359E0,4.413050781E0
6.095558750E0,-2.428023555E0,-2.826659237E0,3.314701184E0,4.987238190E0
6.105607750E0,-2.656301193E0,-3.412989956E0,3.068855002E0,5.303047000E0
6.115656750E0,-2.940508911E0,-4.143628203E0,2.420356394E0,5.627998970E0
6.125704750E0,-3.420317686E0,-4.931629974E0,1.673040572E0,6.230458413E0
6.135753750E0,-3.848771244E0,-5.730154980E0,9.054637094E-1,6.961866180E0
6.145802750E0,-3.989913089E0,-6.499961386E0,3.263187799E-1,7.633831831E0
6.155851750E0,-4.044940651E0,-7.151296186E0,-7.895439747E-1,8.253845267E0
6.165900750E0,-4.089612502E0,-7.506981145E0,-1.922419788E0,8.762156935E0
6.175949750E0,-3.848677104E0,-7.446217464E0,-2.486193411E0,8.742975903E0
6.185997750E0,-3.683936773E0,-7.068626497E0,-2.612470465E0,8.388198414E0
6.196046750E0,-3.617087603E0,-6.147556130E0,-3.119631053E0,7.785105459E0
6.206095750E0,-2.147429709E0,-4.150049615E0,-5.035718014E0,6.869703202E0
6.216144750E0,-8.273465163E-1,-1.032539932E0,-6.834252552E0,6.961152843E0
6.226193750E0,2.153383344E-2,2.450487973E0,-6.700980474E0,7.135018873E0
6.236241750E0,7.923462528E-1,5.130832332E0,-4.521924344E0,6.884842248E0
6.246290750E0,1.377006715E0,7.705235084E0,-8.767876482E-1,7.876265091E0
6.256339750E0,2.534503984E0,1.142348420E1,3.870811154E0,1.232488866E1
6.266388750E0,4.280760905E0,1.564158020E1,5.833600996E0,1.723411865E1
6.276437750E0,5.671260070E0,1.955161798E1,2.704946519E0,2.053644790E1
6.286485750E0,6.950567704E0,2.255293063E1,-2.212007382E0,2.370312317E1
6.296534750E0,8.448246040E0,2.413707700E1,-5.768705088E0,2.621544022E1
6.306583750E0,9.701979123E0,2.389878659E1,-7.068849860E0,2.674414025E1
6.316632750E0,9.270939927E0,2.149155574E1,-6.603342497E0,2.431956881E1
6.326681750E0,8.124986815E0,1.846498546E1,-5.671876366E0,2.095569804E1
6.336730750E0,8.606501516E0,1.630873581E1,-5.362405461E0,1.920422152E1
6.346778750E0,9.458270098E0,1.445635543E1,-5.281502801E0,1.806486528E1
6.356827750E0,1.044078710E1,1.317166251E1,-5.477098596E0,1.767770736E1
6.366876750E0,1.105649306E1,1.214427866E1,-5.232647560E0,1.723688323E1
6.376925750E0,1.142386777E1,1.141444323E1,-4.686214147E0,1.681531659E1
6.386974750E0,1.101774473E1,1.043316818E1,-3.797221313E0,1.564162993E1
6.397022750E0,1.040558803E1,8.940865772E0,-2.558967272E0,1.395577502E1
6.407071750E0,8.698880507E0,7.080972893E0,-1.408427020E0,1.130461701E1
6.417120750E0,6.467177217E0,5.016131011E0,-1.556727612E-1,8.185974926E0
6.427169750E0,3.813303788E0,2.675237401E0,2.693330441E0,5.380725768E0
6.437218750E0,1.329904469E0,4.690718257E-1,5.416655928E0,5.597216783E0
6.447266750E0,-3.077374980E-1,-1.484144955E0,5.579100934E0,5.781328208E0
6.457315750E0,-1.258821915E0,-3.205917245E0,4.137492135E0,5.383435628E0
6.467364750E0,-1.793031138E0,-4.736700761E0,2.269259956E0,5.549850044E0
6.477413750E0,-2.258164279E0,-6.257756265E0,6.658868388E-1,6.685972230E0
6.487462750E0,-2.901414427E0,-7.717994294E0,-2.182461182E-1,8.248228474E0
6.497510750E0,-3.421963385E0,-8.911626186E0,-4.372980559E-1,9.556052756E0
6.507559750E0,-3.747343394E0,-9.768988799E0,-5.814564800E-1,1.047920876E1
6.517608750E0,-4.166828200E0,-1.022479563E1,-9.564430976E-1,1.108258482E1
6.527657750E0,-5.047329415E0,-1.136010389E1,-9.441382170E-1,1.246671133E1
6.537706750E0,-5.627159200E0,-1.354933651E1,-1.971339641E0,1.480323007E1
6.547755750E0,-6.448698846E0,-1.657536183E1,-4.268642843E0,1.829069841E1
6.557803750E0,-7.949108416E0,-1.919414144E1,-4.658857364E0,2.129103901E1
6.567852750E0,-8.939617392E0,-2.199382922E1,-4.396012157E0,2.414477595E1
6.577901750E0,-8.131511139E0,-1.695373047E1,-6.762433541E-1,1.881509382E1
6.587950750E0,-7.012821255E0,-1.377731945E1,-3.701351827E-1,1.546386734E1
6.597999750E0,-6.414354640E0,-1.270407003E1,-1.313272503E0,1.429202664E1
6.608047750E0,-6.041489393E0,-1.160502387E1,-1.729122387E0,1.319719809E1
6.618096750E0,-5.749776481E0,-1.052305859E1,-1.982594946E0,1.215423278E1
6.628145750E0,-5.902170124E0,-9.560597541E0,-2.157987442E0,1.144104660E1
6.638194750E0,-6.272671927E0,-8.484874753E0,-2.372775846E0,1.081524747E1
6.648243750E0,-6.798831289E0,-7.632615005E0,-2.857873136E0,1.061359306E1
6.658291750E0,-7.319355689E0,-6.999912357E0,-2.889596327E0,1.053192801E1
6.668340750E0,-7.764467379E0,-6.716545762E0,-2.275247066E0,1.051549760E1
6.678389750E0,-8.047011856E0,-6.837467351E0,-1.784818724E0,1.070938548E1
6.688438750E0,-8.127271323E0,-7.020949470E0,-1.915441575E0,1.090940819E1
6.698487750E0,-7.493346607E0,-7.198107240E0,-2.750777580E0,1.074847750E1
6.708535750E0,-6.533849509E0,-7.689445263E0,-3.359808360E0,1.063518077E1
6.718584750E0,-5.863727605E0,-8.585502411E0,-3.387446394E0,1.093475862E1
6.728633750E0,-5.105334964E0,-9.377697220E0,-2.086958536E0,1.087938630E1
6.738682750E0,-5.059040803E0,-9.694688814E0,-3.298328103E-1,1.094027764E1
6.748731750E0,-5.327851340E0,-9.748066877E0,8.115239507E-1,1.113864349E1
6.758780750E0,-5.233246899E0,-9.832227606E0,9.470774661E-1,1.117839561E1
6.768828750E0,-4.781135800E0,-9.942890840E0,4.940404598E-1,1.104374999E1
6.778877750E0,-4.457477795E0,-9.781570837E0,-1.585538305E-1,1.075050583E1
6.788926750E0,-4.178730208E0,-9.419039374E0,-8.501022716E-1,1.033937922E1
6.798975750E0,-4.043670928E0,-9.069046680E0,-1.127041608E0,9.993453109E0
6.809024750E0,-4.349445516E0,-8.858057504E0,-9.584855300E-1,9.914713993E0
6.819072750E0,-4.199122080E0,-8.737424183E0,-4.358152020E-1,9.703872551E0
6.829121750E0,-4.111303917E0,-8.336372432E0,2.742249855E-1,9.299092675E0
6.839170750E0,-4.166389074E0,-8.175354146E0,7.663670737E-1,9.207743037E0
6.849219750E0,-4.072959047E0,-7.943216761E0,6.271015996E-1,8.948572195E0
6.859268750E0,-4.066793742E0,-7.444767355E0,-8.664753160E-2,8.483565294E0
6.869316750E0,-4.277090023E0,-6.330351786E0,-7.700806403E-1,7.678533518E0
6.879365750E0,-4.282904494E0,-2.297953413E0,-1.685787502E0,5.144486397E0
6.889414750E0,-2.792273808E0,9.150504826E0,-2.687123036E0,9.937261282E0
6.899463750E0,-1.517838950E0,2.980928315E1,-5.249343699E0,3.030598631E1
6.909512750E0,-2.009087511E0,5.893774458E1,-1.086783966E1,5.996502404E1
6.919560750E0,1.027597280E0,6.995829597E1,-1.682258912E1,7.195984044E1
6.929609750E0,7.717645215E0,6.280265121E1,-1.558377112E1,6.516585739E1
6.939658750E0,1.031783770E1,3.643692434E1,-1.078832338E1,3.937632730E1
6.949707750E0,1.083074259E1,1.814162391E1,-7.026061106E0,2.226632070E1
6.959756750E0,1.067108670E1,8.996443557E0,-1.752808142E0,1.406699771E1
6.969805750E0,1.325076365E1,1.919166105E0,1.165668402E1,1.775230177E1
6.979853750E0,1.551028565E1,-2.321162766E0,9.676850713E0,1.842819029E1
6.989902750E0,1.427750548E1,-4.211530164E0,2.152772310E-1,1.488725943E1
6.999951750E0,1.434687100E1,-5.186200202E0,-3.688332709E0,1.569500488E1
7.010000750E0,1.378841980E1,-4.604533807E0,-5.181247610E0,1.543267893E1
7.020049125E0,1.259916747E1,-3.008128744E0,-3.238476588E0,1.335198825E1
7.030097125E0,1.162351160E1,-7.852266830E-1,4.534708697E0,1.250144735E1
7.040146125E0,8.452053162E0,2.217381120E0,1.176189180E1,1.465251106E1
7.050195125E0,7.357001817E0,2.283465766E0,7.498690377E0,1.075035111E1
7.060244125E0,6.397696508E0,1.807176722E0,2.673592287E0,7.165507939E0
7.070293125E0,3.793353088E0,1.188665267E0,9.818893030E-1,4.094698935E0
7.080341125E0,1.723470907E0,2.070884979E-1,3.264336777E-1,1.766294584E0
7.090390125E0,4.267707288E-1,-7.567571747E-1,-2.524760476E-1,9.047424115E-1
7.100439125E0,-2.374677068E-1,-1.575563833E0,-6.471628118E-1,1.719770917E0
7.110488125E0,-7.382738337E-1,-2.347843026E0,-8.400837985E-1,2.600606836E0
7.120537125E0,-1.063243369E0,-3.044742254E0,-1.076357504E0,3.399924607E0
7.130586125E0,-1.330366399E0,-3.698346359E0,-1.074933414E0,4.074692920E0
7.140634125E0,-1.571399446E0,-4.262952917E0,-8.996722616E-1,4.631573595E0
7.150683125E0,-1.683228322E0,-4.705150355E0,-7.128972832E-1,5.047763860E0
7.160732125E0,-1.781161583E0,-5.107280917E0,-8.891989481E-1,5.481562708E0
7.170781125E0,-1.894218374E0,-5.381555092E0,-1.423609900E0,5.880124455E0
7.180830125E0,-1.901892260E0,-5.440735931E0,-1.475829045E0,5.949527125E0
7.190878125E0,-1.941365059E0,-5.262918010E0,-1.446062624E0,5.792952735E0
7.200927125E0,-2.001378834E0,-4.921246489E0,-1.415462390E0,5.497973992E0
7.210976125E0,-2.139307342E0,-4.305567425E0,-1.649539735E0,5.082866130E0
7.221025125E0,-2.368524628E0,-3.757652913E0,-1.658069653E0,4.741208633E0
7.231074125E0,-2.376661028E0,-3.355643388E0,-1.506061927E0,4.379164614E0
7.241122125E0,-2.442048102E0,-2.813359160E0,-1.485682772E0,4.010715896E0
7.251171125E0,-2.375111516E0,-2.202935573E0,-1.376860388E0,3.519918235E0
7.261220125E0,-2.433319963E0,-1.611459889E0,-8.605673258E-1,3.042766035E0
7.271269125E0,-2.651269957E0,-6.815485328E-1,-1.555815446E-1,2.741887380E0
7.281318125E0,-3.151037326E0,-7.003332978E-1,7.610361671E-1,3.316425637E0
7.291366125E0,-3.250214874E0,-7.001806855E-2,7.897629529E-1,3.345523095E0
7.301415125E0,-2.874142721E0,1.224962443E0,3.959996103E-1,3.149292787E0
7.311464125E0,-2.461842389E0,2.023092177E0,-4.545419334E-1,3.218723081E0
7.321513125E0,-1.861409063E0,2.536633247E0,-1.462898512E0,3.469787311E0
7.331562125E0,-1.573202727E0,2.826438797E0,-2.073071253E0,3.842049910E0
7.341610125E0,-1.297372608E0,2.630832476E0,-2.451582572E0,3.822919343E0
7.351659125E0,-1.377033904E0,1.784588344E0,-2.520793140E0,3.381623276E0
7.361708125E0,-1.699656659E0,9.301183480E-1,-1.942157357E0,2.743342505E0
7.371757125E0,-1.465269850E0,3.517673242E-1,-9.111920804E-1,1.760973308E0
7.381806125E0,-1.228757871E0,-9.021669030E-3,5.584229819E-1,1.349727203E0
7.391855125E0,-7.961276472E-1,-4.534398794E-1,1.964083977E0,2.167268517E0
7.401903125E0,-5.231030220E-1,-7.948254722E-1,2.736844250E0,2.897533563E0
7.411952125E0,-6.003771928E-1,-1.074907687E0,2.786491204E0,3.046376953E0
7.422001125E0,-7.279143217E-1,-1.260528717E0,2.679442134E0,3.049295337E0
7.432050125E0,-4.622089487E-1,-1.322671171E0,2.867642956E0,3.191625332E0
7.442099125E0,-5.499660078E-1,-1.321792334E0,1.074326473E0,1.789909203E0
7.452147125E0,-8.934525052E-1,-1.362639229E0,-1.176271509E0,2.009641189E0
7.462196125E0,-7.013615307E-1,-1.146502165E0,-1.361014287E0,1.912782032E0
7.472245125E0,1.627920386E-1,-5.999939078E-1,-6.341200125E-1,8.880327289E-1
7.482294125E0,8.867399016E-1,-1.867448652E-1,2.840857299E-1,9.496767870E-1
7.492343125E0,1.348286946E0,1.349654317E-1,1.054397993E0,1.716929959E0
7.502391125E0,1.293256460E0,3.561316860E-1,1.272670607E-1,1.347419368E0
7.512440125E0,1.112227833E0,5.613268554E-1,-1.095795110E0,1.659188210E0
7.522489125E0,1.013013740E0,5.266306472E-1,-1.492334565E0,1.878988858E0
7.532538125E0,4.764454570E-1,1.244995004E-1,-1.679744843E0,1.750440841E0
7.542587125E0,3.096512917E-1,-8.417183876E-2,-1.483913405E0,1.518212045E0
7.552635125E0,4.617250916E-1,-1.838060546E-1,-6.009528512E-1,7.798198864E-1
7.562684125E0,6.710975119E-1,-3.440940231E-1,3.412932068E-1,8.278004713E-1
7.572733125E0,9.972736198E-1,-5.434168339E-1,1.007982795E0,1.518514354E0
7.582782125E0,1.428703410E0,-7.396470523E-1,1.100281679E0,1.949074388E0
7.592831125E0,1.869404545E0,-9.541047961E-1,5.892027982E-1,2.179942489E0
7.602880125E0,1.911841590E0,-1.305166946E0,-2.628183103E-1,2.329736570E0
7.612928125E0,1.378557981E0,-1.600629677E0,-1.026508529E0,2.348650086E0
7.622977125E0,6.984794381E-1,-1.695470345E0,-1.371458146E0,2.289845117E0
7.633026125E0,2.608618319E-1,-1.639363387E0,-1.407142387E0,2.176145884E0
7.643075125E0,3.226712868E-1,-1.543300651E0,-1.324758042E0,2.059339100E0
7.653124125E0,4.436630425E-1,-1.430858109E0,-1.247923874E0,1.949745065E0
7.663172125E0,5.201250350E-1,-1.253149531E0,-9.941869477E-1,1.682058705E0
7.673221125E0,5.576238137E-1,-1.140323997E0,-6.491760812E-1,1.425732345E0
7.683270125E0,6.267618763E-1,-1.196828565E0,-1.936797360E-1,1.364822664E0
7.693319125E0,6.003193054E-1,-1.534956089E0,4.225852919E-1,1.701485173E0
7.703368125E0,2.582849640E-1,-2.076133440E0,9.300095167E-1,2.289532459E0
7.713416125E0,-4.899879009E-1,-2.598665189E0,9.961176252E-1,2.825844870E0
7.723465125E0,-1.143474476E0,-2.979622983E0,7.500439864E-1,3.278452833E0
7.733514125E0,-1.506294792E0,-3.385042604E0,3.214004310E-1,3.718969705E0
7.743563125E0,-1.714682834E0,-3.789357685E0,-2.337857151E-1,4.165816204E0
7.753612125E0,-1.852667768E0,-4.056261445E0,-7.255692959E-1,4.517973614E0
7.763660125E0,-1.994526482E0,-4.153455618E0,-9.433348095E-1,4.703106422E0
7.773709125E0,-2.178205652E0,-4.177626838E0,-8.505289721E-1,4.787540641E0
7.783758125E0,-2.422064365E0,-4.214795249E0,-6.267700624E-1,4.901401381E0
7.793807125E0,-2.640327770E0,-4.174835377E0,-4.345451868E-1,4.958771085E0
7.803856125E0,-2.788530128E0,-4.083949181E0,-3.212916728E-1,4.955579636E0
7.813904125E0,-2.688775460E0,-3.941427977E0,-1.945824730E-1,4.775168092E0
7.823953125E0,-2.790055374E0,-3.601466766E0,-1.543524965E-1,4.558376526E0
7.834002125E0,-2.820600059E0,-2.872563972E0,-6.547455541E-1,4.078737576E0
7.844051125E0,-2.751056785E0,-1.853681967E0,-1.447197568E0,3.619230729E0
7.854100125E0,-2.549843277E0,-7.428647751E-1,-2.334889104E0,3.536277130E0
7.864149125E0,-1.780528329E0,9.436821342E-2,-2.497900121E0,3.068988678E0
7.874197125E0,-1.016257482E0,7.997435653E-1,-1.862223580E0,2.267210996E0
7.884246125E0,-5.878644437E-1,1.621318295E0,-1.119555783E0,2.056128101E0
7.894295125E0,-1.810040689E-1,2.825152409E0,-5.093204038E-1,2.876396336E0
7.904344125E0,4.217242894E-1,4.249192665E0,1.693214051E-1,4.273424788E0
7.914393125E0,1.307039225E0,5.682569754E0,8.911415394E-1,5.898651014E0
7.924441125E0,2.247187302E0,7.158885287E0,1.359706850E0,7.625502740E0
7.934490125E0,2.990805783E0,8.468571546E0,1.381685510E0,9.086840931E0
7.944539125E0,3.817512321E0,9.746783413E0,9.492593546E-1,1.051067460E1
7.954588125E0,4.720905093E0,1.078175812E1,2.668479189E-2,1.177004525E1
7.964637125E0,5.928455697E0,1.181789409E1,-1.182550980E0,1.327432238E1
7.974685125E0,7.082227120E0,1.315815778E1,-2.413300559E0,1.513667985E1
7.984734125E0,8.329025406E0,1.494823374E1,-3.371618858E0,1.744104842E1
7.994783125E0,9.788990369E0,1.660571355E1,-3.112707950E0,1.952595723E1
8.004832125E0,1.095032400E1,1.813046859E1,-1.927708595E0,2.126827561E1
8.014881125E0,1.203881126E1,1.910378091E1,-1.065142983E0,2.260579463E1
8.024929292E0,1.316355008E1,1.885195536E1,-1.243294634E0,2.302652934E1
8.034978291E0,1.246606380E1,1.722927466E1,-2.393148422E0,2.140041615E1
8.045027292E0,1.004194501E1,1.542606937E1,-3.211148164E0,1.868463937E1
8.055076292E0,8.965987750E0,1.386717712E1,-3.342379564E0,1.684811677E1
8.065125291E0,8.800751867E0,1.236724000E1,-2.945841279E0,1.546220682E1
8.075173292E0,8.746862758E0,1.089971050E1,-2.119585268E0,1.413520211E1
8.085222292E0,8.323931311E0,9.138515110E0,-1.014785446E0,1.240282550E1
8.095271291E0,6.952094997E0,7.018761442E0,2.211469585E-1,9.881474738E0
8.105320292E0,4.600669675E0,5.003969972E0,1.230352991E0,6.907940751E0
8.115369292E0,2.598496789E0,2.917198693E0,1.751776693E0,4.281466496E0
8.125417292E0,1.188751806E0,9.330782086E-1,1.633837184E0,2.225576272E0
8.135466292E0,4.804423213E-2,-8.095423293E-1,1.133978598E0,1.394121405E0
8.145515291E0,-8.793490210E-1,-2.506893139E0,6.468505704E-1,2.734261065E0
8.155564292E0,-1.667573572E0,-4.274665475E0,2.223777974E-1,4.593802175E0
8.165613292E0,-2.418599305E0,-6.022978277E0,-2.402340245E-1,6.494890477E0
8.175662291E0,-3.044254889E0,-7.656972751E0,-6.581263411E-1,8.266187139E0
8.185710292E0,-3.588426598E0,-8.914148675E0,-9.053401139E-1,9.651864730E0
8.195759292E0,-3.816368898E0,-9.412343143E0,-1.028808823E0,1.020859063E1
8.205808291E0,-3.816495490E0,-9.394775183E0,-8.874225640E-1,1.017914325E1
8.215857292E0,-3.951937762E0,-9.563740420E0,1.469143631E-1,1.034913169E1
8.225906292E0,-4.893698502E0,-1.032657110E1,1.777877494E0,1.156491263E1
8.235954292E0,-6.283806195E0,-1.110018112E1,4.911099815E-1,1.276485136E1
8.246003292E0,-8.140211796E0,-1.210594548E1,-2.501797875E0,1.480121470E1
8.256052291E0,-1.148738958E1,-1.494789694E1,-4.192058936E0,1.931251150E1
8.266101292E0,-1.285606723E1,-1.539953938E1,-6.496902707E0,2.108634683E1
8.276150292E0,-1.501775128E1,-1.622607723E1,-9.209165263E0,2.395051483E1
8.286198291E0,-1.342837048E1,-1.655267229E1,-8.029809932E0,2.277696076E1
8.296247292E0,-9.193986475E0,-1.543538165E1,-5.182265611E0,1.869856333E1
8.306296292E0,-6.799075118E0,-1.394500941E1,-3.237648915E0,1.584844094E1
8.316345291E0,-4.970955423E0,-1.268871992E1,-2.653139604E0,1.388355721E1
8.326394292E0,-5.021277730E0,-1.220465700E1,-2.070174250E0,1.335861161E1
8.336442292E0,-5.874489405E0,-1.191590044E1,-1.372383614E0,1.335596294E1
8.346491292E0,-6.277392969E0,-1.128275575E1,-5.889774612E-1,1.292490364E1
8.356540292E0,-6.313660909E0,-1.087329044E1,-4.715779424E-4,1.257341478E1
8.366589291E0,-6.288985659E0,-1.032796975E1,1.374200928E-1,1.209285674E1
8.376638292E0,-6.147757275E0,-9.673634745E0,7.643725884E-1,1.148731449E1
8.386686292E0,-5.793279766E0,-9.235418676E0,1.265940900E0,1.097532027E1
8.396735291E0,-5.682141153E0,-9.125157731E0,-3.377483323E-2,1.074971499E1
8.406784292E0,-5.782603920E0,-9.068240349E0,-1.227057793E0,1.082484004E1
8.416833292E0,-5.900757437E0,-9.181823682E0,-2.040320413E0,1.110350088E1
8.426882291E0,-5.680426165E0,-9.531393623E0,-2.170229757E0,1.130595432E1
8.436930292E0,-5.175561193E0,-9.666957809E0,-1.510807673E0,1.106883222E1
8.446979292E0,-4.797431990E0,-9.673449388E0,-6.556604972E-1,1.081761838E1
8.457028292E0,-4.756868100E0,-9.624780089E0,-1.433088968E-1,1.073707238E1
8.467077292E0,-4.871439321E0,-9.591517618E0,-6.217636764E-2,1.075788070E1
8.477126291E0,-5.037005571E0,-9.495959496E0,-1.392357264E-1,1.075007249E1
8.487174292E0,-5.285436223E0,-9.383525725E0,-2.822088834E-1,1.077339468E1
8.497223292E0,-5.403490337E0,-9.279183916E0,-2.223965085E-1,1.074013139E1
8.507272291E0,-5.317140995E0,-9.074300403E0,2.408087876E-1,1.052011906E1
8.517321292E0,-5.125485638E0,-8.747359187E0,8.057942641E-1,1.017035890E1
8.527370292E0,-4.879392411E0,-8.389862761E0,9.128578790E-1,9.748414074E0
8.537419291E0,-4.690928757E0,-8.067405190E0,8.418341625E-1,9.369979928E0
8.547467292E0,-4.376427785E0,-6.828186650E0,7.852095799E-1,8.148239514E0
8.557516292E0,-4.962295697E0,-4.214807528E0,-1.089605979E-1,6.511593775E0
8.567565292E0,-6.214395068E0,3.063215947E-1,-1.744447939E0,6.461860227E0
8.577614292E0,-5.586392412E0,1.342379211E1,-3.109839306E0,1.486866085E1
8.587663291E0,-3.003400685E0,3.634533589E1,-6.112530724E0,3.697792434E1
8.597711292E0,1.419385287E0,6.558152876E1,-1.239805834E1,6.675824608E1
8.607760292E0,1.573468190E1,7.090764055E1,-1.740251246E1,7.468815932E1
8.617809291E0,4.329390268E1,5.893817961E1,-9.940610425E0,7.380302677E1
8.627858292E0,6.073881330E1,3.509204603E1,7.938827257E0,7.059518478E1
8.637907292E0,3.865850610E1,1.179420352E1,1.799452083E1,4.424235652E1
8.647955292E0,1.614720180E1,1.187201124E-1,9.579336698E0,1.877524732E1
8.658004292E0,9.692544640E0,-3.571495108E0,2.327774651E0,1.058865118E1
8.668053292E0,6.328208197E0,-5.058056717E0,-1.869692228E0,8.314199045E0
8.678102292E0,4.360389749E0,-6.812431328E0,-2.560038774E0,8.483868097E0
8.688151292E0,4.211383399E0,-8.781032717E0,-2.689927361E0,1.010336552E1
8.698199291E0,3.614157855E0,-9.228090945E0,-3.048574812E0,1.036887689E1
8.708248292E0,3.173930344E0,-8.772082384E0,-1.104139380E0,9.393741904E0
8.718297292E0,3.825401677E0,-7.462689655E0,3.167051972E0,8.964131474E0
8.728346291E0,4.772440698E0,-3.942093390E0,5.940339578E0,8.579272977E0
8.738395292E0,3.681927377E0,-1.572053749E0,7.417774268E0,8.429194344E0
8.748443292E0,2.662043744E0,-6.580456495E-1,7.259993001E0,7.760605604E0
8.758492292E0,2.106802378E0,-2.643643141E-1,5.655991820E0,6.041419388E0
8.768541292E0,1.223859074E0,-6.749189597E-1,3.926883613E0,4.168184442E0
8.778590292E0,-6.199948937E-2,-1.721326733E0,2.819412782E0,3.303921623E0
8.788639292E0,-1.184857853E0,-3.041266669E0,2.012228050E0,3.834351680E0
8.798687292E0,-1.715653179E0,-4.198629452E0,7.175644577E-1,4.592042449E0
8.808736291E0,-1.549412745E0,-4.942913346E0,-7.803904510E-1,5.238519014E0
8.818785292E0,-1.541980057E0,-5.517799895E0,-1.843352276E0,6.018452109E0
8.828834292E0,-1.884063515E0,-6.128464386E0,-2.198199914E0,6.777894505E0
8.838883291E0,-2.264871328E0,-6.725240571E0,-2.210239331E0,7.432607939E0
8.848931292E0,-2.630609697E0,-7.212072730E0,-1.965645037E0,7.924510133E0
8.858980292E0,-3.025600809E0,-7.659301112E0,-1.614035003E0,8.391916514E0
8.869029292E0,-3.483035798E0,-7.883470497E0,-1.592780374E0,8.764564722E0
8.879078292E0,-3.950870353E0,-7.432038551E0,-2.234724692E0,8.708534206E0
8.889127292E0,-4.362986498E0,-6.457457390E0,-2.862395664E0,8.302271742E0
8.899176292E0,-4.112403486E0,-4.915433187E0,-3.253643389E0,7.187457210E0
8.909224292E0,-2.975799488E0,-2.923228342E0,-3.196760798E0,5.255466310E0
8.919273291E0,-1.967521701E0,-5.870335543E-1,-3.324460187E0,3.907401384E0
8.929322292E0,-1.487509150E0,1.530415142E0,-3.188322389E0,3.836698272E0
8.939371292E0,-1.459037011E0,3.008843274E0,-2.497185591E0,4.173471304E0
8.949420291E0,-1.585765470E0,4.482077909E0,-1.206927291E0,4.905134859E0
8.959468292E0,-1.125756828E0,5.951580850E0,5.942703608E-1,6.086197525E0
8.969517292E0,5.133858266E-1,6.839850091E0,2.642343889E0,7.350448660E0
8.979566292E0,2.234749397E0,6.528497552E0,3.223278798E0,7.616095546E0
8.989615292E0,3.225812689E0,5.091247852E0,2.325613081E0,6.460274638E0
8.999664292E0,2.936184310E0,3.104205514E0,7.278169656E-1,4.334395887E0
9.009712292E0,1.591763543E0,8.972014475E-1,-6.385545409E-1,1.935570592E0
9.019761292E0,-1.951341578E-1,-9.256639391E-1,-1.178792828E0,1.511450826E0
9.029810166E0,-1.805059738E0,-2.088754070E0,-6.701259971E-1,2.840810285E0
9.039859167E0,-2.909235955E0,-2.597329684E0,5.019507194E-1,3.932140620E0
9.049908167E0,-3.627914307E0,-2.527761852E0,1.663083787E0,4.724107310E0
9.059956167E0,-2.690443963E0,-1.396364214E0,2.053438057E0,3.661274312E0
9.070005167E0,-7.462918282E-1,-5.338449419E-2,8.171940688E-1,1.107974523E0
9.080054166E0,-1.198547646E-1,2.914825308E-1,-3.613988578E-1,4.795168035E-1
9.090103167E0,-1.983881333E-1,1.158204782E-1,-3.843515182E-1,4.477703922E-1
9.100152167E0,-8.379352391E-2,-9.258832097E-2,-1.904099730E-1,2.277057524E-1
9.110200166E0,2.227844712E-1,3.368463993E-2,-1.937943049E-1,2.971932169E-1
9.120249167E0,6.214587441E-1,2.688918132E-1,-2.577125216E-1,7.245202009E-1
9.130298167E0,9.711625859E-1,3.394191742E-1,-2.862983894E-1,1.067861841E0
9.140347166E0,1.071849008E0,2.431313199E-1,-2.339248788E-1,1.123696571E0
9.150396167E0,1.122896955E0,1.749896228E-2,-2.679761392E-1,1.154562686E0
9.160444167E0,1.187408116E0,-4.227805889E-1,-4.640438050E-1,1.343137414E0
9.170493167E0,1.280366273E0,-9.282127404E-1,-6.193329889E-1,1.698378649E0
9.180542167E0,1.404749122E0,-1.336784595E0,-6.827214843E-1,2.055826300E0
9.190591166E0,1.497878602E0,-1.538703570E0,-6.816204536E-1,2.252965918E0
9.200640167E0,1.568209497E0,-1.480832507E0,-7.948915458E-1,2.298694958E0
9.210688167E0,1.141900991E0,-1.105662872E0,-9.091970104E-1,1.831138297E0
9.220737166E0,3.541781312E-1,-5.646375489E-1,-9.244617516E-1,1.139687343E0
9.230786167E0,3.344440708E-1,-2.537989801E-1,-8.514809719E-1,9.493611559E-1
9.240835167E0,4.041490209E-1,-1.549599856E-1,-7.090895033E-1,8.307568549E-1
9.250884166E0,1.866314292E-1,-1.210104668E-1,-5.161623770E-1,5.620484168E-1
9.260932167E0,-2.213016173E-1,-1.009235269E-1,-3.574040401E-1,4.323165646E-1
9.270981167E0,-5.127057955E-1,-1.550055939E-1,-2.547205196E-1,5.931075029E-1
9.281030167E0,-5.921829048E-1,-2.352644759E-1,-2.507508266E-1,6.847670724E-1
9.291079167E0,-3.883156380E-1,-2.913024366E-1,-2.919865608E-1,5.664823881E-1
9.301128166E0,-3.704073706E-1,-3.095492578E-1,-2.784140038E-1,5.572582173E-1
9.311176167E0,-5.068325597E-1,-2.234145087E-1,-1.610826051E-1,5.768369717E-1
9.321225167E0,-5.382049182E-1,-4.756768405E-2,-8.457765380E-2,5.468826182E-1
9.331274166E0,-4.748134992E-1,1.091599149E-1,-1.796053966E-1,5.192512344E-1
9.341323167E0,-4.503198051E-1,-9.652583599E-3,-1.854374643E-1,4.871017886E-1
9.351372167E0,-5.563704631E-1,-3.450933123E-1,-6.123792607E-2,6.575618373E-1
9.361420166E0,-5.880281657E-1,-6.434480757E-1,-9.126370735E-3,8.717143112E-1
9.371469167E0,-5.050699165E-1,-7.591714901E-1,-1.300888538E-2,9.119244503E-1
9.381518167E0,-4.318344176E-1,-8.023315430E-1,3.307185173E-2,9.117623684E-1
9.391567167E0,-3.493231881E-1,-7.898243487E-1,2.546872087E-1,9.003970045E-1
9.401616167E0,-2.264006817E-1,-7.422964257E-1,5.107215428E-1,9.290305413E-1
9.411665166E0,-2.254043162E-1,-6.868776852E-1,6.667463064E-1,9.834422694E-1
9.421713167E0,-2.625493383E-1,-6.872641861E-1,5.886918247E-1,9.422432176E-1
9.431762167E0,-3.487916762E-1,-7.699677891E-1,4.045536482E-1,9.371070824E-1
9.441811166E0,-5.219101900E-1,-9.438897103E-1,2.271619892E-1,1.102234368E0
9.451860167E0,-6.679806536E-1,-1.109095772E0,2.585322281E-1,1.320276675E0
9.461908167E0,-8.504465264E-1,-1.275821525E0,4.680766296E-1,1.603145530E0
9.471957166E0,-1.216631330E0,-1.501033468E0,9.220439279E-1,2.140901275E0
9.482006167E0,-1.455450329E0,-1.703899691E0,1.627085842E0,2.769299217E0
9.492055167E0,-1.686305419E0,-1.962261254E0,2.210122094E0,3.402754012E0
9.502104167E0,-2.480454369E0,-2.032126710E0,2.414636940E0,4.014058344E0
9.512153167E0,-3.305962520E0,-2.111129025E0,1.959243944E0,4.384619799E0
9.522201166E0,-3.514314601E0,-2.624184192E0,1.027398913E0,4.504697361E0
9.532250167E0,-3.543736036E0,-3.076425392E0,2.605402350E-2,4.692881535E0
9.542299167E0,-3.566244308E0,-3.772604828E0,-4.205352581E-1,5.208406240E0
9.552348166E0,-3.835104547E0,-4.356882589E0,-6.001721017E-1,5.835294280E0
9.562397167E0,-3.994042978E0,-5.102394984E0,-7.068172753E-1,6.518159598E0
9.572445167E0,-4.091027820E0,-5.739400012E0,-1.436824608E-1,7.049671324E0
9.582494166E0,-4.307675931E0,-6.041446123E0,8.118307833E-1,7.464195362E0
9.592543167E0,-4.631964850E0,-5.892024620E0,1.258118641E0,7.599599661E0
9.602592167E0,-3.422978169E0,-4.362051528E0,5.968418200E-1,5.576781620E0
9.612641167E0,-1.549072437E0,-2.102972744E0,-7.735794680E-1,2.724067725E0
9.622689167E0,-3.184101284E-1,-1.758719677E-1,-1.783797215E0,1.820507749E0
9.632738166E0,6.367144221E-1,1.664429231E0,-2.028926529E0,2.700420852E0
9.642787167E0,1.857175094E0,3.710779293E0,-2.124300609E0,4.661720216E0
9.652836167E0,3.518709953E0,6.320465314E0,-2.737333077E0,7.734506700E0
9.662885166E0,5.928396640E0,9.753712363E0,-3.723839049E0,1.200615546E1
9.672933167E0,8.966884713E0,1.423670127E1,-4.427601739E0,1.739805568E1
9.682982167E0,1.236643192E1,1.886826091E1,-3.735589906E0,2.286688741E1
9.693031166E0,1.607925364E1,2.269711829E1,-1.545352731E0,2.785838637E1
9.703080167E0,1.965645622E1,2.503511811E1,5.125268707E-1,3.183388279E1
9.713129167E0,2.120095146E1,2.472076244E1,8.664687744E-1,3.257832418E1
9.723177167E0,1.638673767E1,2.109694586E1,-4.202756417E-1,2.671671626E1
9.733226167E0,1.493689248E1,1.769724370E1,-1.979225049E0,2.324264450E1
9.743275166E0,1.499139087E1,1.528192498E1,-2.884019837E0,2.160084724E1
9.753324167E0,1.394934804E1,1.322213100E1,-2.888807538E0,1.943590152E1
9.763373167E0,1.257194752E1,1.123358183E1,-2.386407752E0,1.702768825E1
9.773421166E0,1.084705281E1,9.059257271E0,-1.796193459E0,1.424622785E1
9.783470167E0,9.217536721E0,6.879089586E0,-1.369699742E0,1.158278611E1
9.793519167E0,7.723010035E0,4.887356027E0,-7.562943676E-1,9.170775000E0
9.803568166E0,5.855300013E0,3.324195893E0,-4.517069109E-1,6.748248344E0
9.813617167E0,3.816763585E0,1.806102004E0,-1.498781705E-1,4.225180728E0
9.823665167E0,1.729692344E0,4.411554641E-1,5.023938652E-1,1.854414556E0
9.833714167E0,2.239325720E-1,-8.232511264E-1,1.101402444E0,1.393188989E0
9.843763167E0,-1.075939720E0,-2.145704196E0,1.178279443E0,2.673954978E0
9.853812166E0,-2.248200039E0,-3.452595486E0,1.093346297E0,4.262654705E0
9.863861167E0,-3.218263641E0,-4.883557675E0,8.924710500E-1,5.916321577E0
9.873909167E0,-4.221429500E0,-6.336311268E0,8.306075084E-1,7.658930496E0
9.883958166E0,-4.988442106E0,-7.668668352E0,7.731059897E-1,9.180997866E0
9.894007167E0,-5.220999906E0,-8.551399110E0,2.079854608E-1,1.002140333E1
9.904056167E0,-5.237524722E0,-8.839287357E0,-1.848784339E-1,1.027612993E1
9.914105166E0,-5.324001533E0,-8.890908331E0,-4.529826272E-1,1.037296662E1
9.924153167E0,-5.258394020E0,-8.994617472E0,-5.022185218E-1,1.043101503E1
9.934202167E0,-5.383332646E0,-9.268900418E0,-8.199895495E-1,1.075012410E1
9.944251167E0,-6.543630731E0,-1.022157615E1,-2.601761874E0,1.241244887E1
9.954300167E0,-6.479967417E0,-1.021401921E1,-3.414036022E0,1.256868363E1
9.964349166E0,-1.005551757E1,-1.237605527E1,-2.794988378E0,1.618925995E1
9.974397167E0,-1.138192569E1,-1.422414963E1,-2.923066959E0,1.845044676E1
9.984446167E0,-1.177353712E1,-1.401237401E1,-4.842425437E0,1.893176922E1
9.994495166E0,-1.234962351E1,-1.407586191E1,-6.135282825E0,1.970494315E1
1.000454417E1,-1.088139234E1,-1.325906552E1,-5.467529043E0,1.800281621E1
1.001459317E1,-8.699968089E0,-1.293974323E1,-4.460181255E0,1.621787953E1
1.002464175E1,-6.473320302E0,-1.202590762E1,-3.424620652E0,1.408028254E1
1.003469075E1,-5.648907334E0,-1.163497799E1,-2.741253051E0,1.322109432E1
1.004473975E1,-6.406761446E0,-1.163698358E1,-2.371932385E0,1.349414845E1
1.005478875E1,-7.237825037E0,-1.168701002E1,-1.992660489E0,1.389039273E1
1.006483775E1,-8.087971601E0,-1.148422741E1,-2.123027232E0,1.420598495E1
1.007488575E1,-8.393519025E0,-1.116482092E1,-2.137173255E0,1.413053068E1
1.008493475E1,-8.677279723E0,-1.067222340E1,-1.975626819E0,1.389584964E1
1.009498375E1,-8.534595966E0,-1.008870753E1,-1.835550921E0,1.334131160E1
1.010503275E1,-8.119364133E0,-9.528184671E0,-1.629681129E0,1.262403413E1
1.011508175E1,-7.438369331E0,-9.033970402E0,-1.456718005E0,1.179253946E1
1.012512975E1,-6.790756869E0,-8.713555849E0,-9.892110403E-1,1.109139184E1
1.013517875E1,-6.486106408E0,-8.518329012E0,-3.200852095E-1,1.071139394E1
1.014522775E1,-6.388063220E0,-8.388147188E0,3.868267907E-1,1.055073457E1
1.015527675E1,-6.449730295E0,-8.313761834E0,1.141674265E0,1.058400098E1
1.016532575E1,-6.508825765E0,-8.267635489E0,1.813936688E0,1.067749857E1
1.017537375E1,-6.717038097E0,-8.426446450E0,1.791054195E0,1.092389471E1
1.018542275E1,-7.044831253E0,-8.542511927E0,7.957516712E-1,1.110123318E1
1.019547175E1,-7.297335659E0,-8.487334676E0,-7.163540840E-2,1.119335023E1
1.020552075E1,-7.285200933E0,-8.183782908E0,-2.532119197E-1,1.095958811E1
1.021556975E1,-6.897903003E0,-7.699106618E0,-9.858588316E-4,1.033718093E1
1.022561775E1,-6.481860745E0,-7.132424297E0,1.314337500E-1,9.638634234E0
1.023566675E1,-6.172495674E0,-6.660627669E0,1.105793849E0,9.148029506E0
1.024571575E1,-5.277337244E0,-5.648950603E0,6.689518762E-1,7.759408993E0
1.025576475E1,-5.114043222E0,-4.339106469E0,-5.180168799E0,8.474398611E0
1.026581375E1,-5.942439898E0,-1.689300363E0,-3.175084877E0,6.946041436E0
1.027586175E1,-4.435289074E0,8.902300462E0,-5.194617269E0,1.122081954E1
1.028591075E1,-3.338818610E-2,2.724764136E1,-8.767494074E0,2.862348733E1
1.029595975E1,9.344692027E0,5.425165498E1,-1.408126941E1,5.682294858E1
1.030600875E1,4.008002503E1,6.535541927E1,-1.880001454E1,7.893782225E1
1.031605775E1,7.200420399E1,5.347953717E1,-5.304371261E0,8.984877652E1
1.032610575E1,6.190711038E1,3.237597226E1,1.597001128E1,7.166404367E1
1.033615475E1,2.123802748E1,1.162365193E1,1.497928947E1,2.847002298E1
1.034620375E1,7.485967421E0,2.895233628E0,8.804308144E0,1.191377051E1
1.035625275E1,6.643373705E0,-1.270095931E0,4.601576578E0,8.180590740E0
1.036630175E1,5.510641733E0,-3.963378425E0,9.903049082E-2,6.788618997E0
1.037634975E1,4.413130465E0,-5.629179413E0,-1.636752898E0,7.337734079E0
1.038639875E1,3.475783204E0,-7.301828660E0,-1.874076471E0,8.301200713E0
1.039644775E1,2.323970599E0,-8.073895015E0,-2.315614050E0,8.714969218E0
1.040649675E1,3.081511300E0,-6.791851467E0,4.543690020E-1,7.472041852E0
1.041654575E1,2.592634078E0,-3.341529379E0,2.098728543E0,4.721464979E0
1.042659375E1,3.223043740E-2,-1.476759337E0,3.362487554E0,3.672625694E0
1.043664275E1,-1.648508433E0,-7.293758333E-1,6.007044615E0,6.271694680E0
1.044669175E1,-1.208372723E0,-7.351663309E-1,7.166749792E0,7.304993960E0
1.045674075E1,-5.742035937E-1,-8.222559303E-1,6.310339690E0,6.389538449E0
1.046678975E1,-4.443152994E-1,-1.096624246E0,4.447353341E0,4.602059600E0
1.047683775E1,-5.464357513E-1,-1.704469210E0,2.719775058E0,3.255915184E0
1.048688675E1,-1.004047034E0,-2.679592992E0,1.161345029E0,3.088211671E0
1.049693575E1,-1.525888227E0,-3.661237589E0,-2.668844640E-1,3.975452538E0
1.050698475E1,-8.312354994E-1,-4.090445437E0,-1.032049935E0,4.299746900E0
1.051703375E1,-9.879899955E-1,-4.856338302E0,-1.327914369E0,5.130643479E0
1.052708275E1,-1.620576283E0,-5.466616293E0,-1.508962877E0,5.898061558E0
1.053713075E1,-2.389343639E0,-5.861023852E0,-1.464263252E0,6.496509101E0
1.054717975E1,-3.068845646E0,-6.464954106E0,-1.278200757E0,7.269610881E0
1.055722875E1,-3.687532810E0,-6.833642687E0,-1.385515875E0,7.887726215E0
1.056727775E1,-4.239048623E0,-6.969696870E0,-1.630255764E0,8.318890644E0
1.057732675E1,-4.818281699E0,-6.650562272E0,-2.027142543E0,8.459026182E0
1.058737475E1,-5.293324116E0,-6.028757080E0,-2.567044031E0,8.423473582E0
1.059742375E1,-5.520742214E0,-4.681291961E0,-3.059038112E0,7.858167928E0
1.060747275E1,-5.038452172E0,-2.505140728E0,-3.401913575E0,6.575313402E0
1.061752175E1,-3.993750325E0,-4.519225270E-1,-3.530656984E0,5.349749000E0
1.062756975E1,-3.203256177E0,1.877466102E0,-3.647848635E0,5.205048392E0
1.063761875E1,-1.838280401E0,3.732049710E0,-3.498723586E0,5.435856565E0
1.064766775E1,3.342823952E-1,5.082505680E0,-2.531376016E0,5.687835549E0
1.065771675E1,3.266151168E0,5.406875290E0,-8.060709836E-1,6.368029074E0
1.066776575E1,6.845816590E0,4.973957384E0,1.797233386E0,8.650751683E0
1.067781475E1,9.667891610E0,3.853961232E0,4.180911219E0,1.121611180E1
1.068786275E1,5.893098169E0,1.646090609E0,3.528434458E0,7.063148734E0
1.069791175E1,-4.549016833E-2,-1.707626706E-1,1.945216620E0,1.953227315E0
1.070796075E1,-1.533499548E0,-8.816197872E-1,4.805154115E-1,1.832967368E0
1.071800975E1,-2.077050868E0,-1.500517159E0,-7.762324959E-1,2.677354840E0
1.072805875E1,-2.501500252E0,-1.924136823E0,-1.587025545E0,3.532485825E0
1.073810675E1,-2.988516013E0,-2.146302951E0,-2.280515261E0,4.328809787E0
1.074815575E1,-2.573436792E0,-1.987247576E0,-2.978452955E0,4.409411735E0
1.075820475E1,-1.550392739E0,-1.424672340E0,-3.351866671E0,3.958335395E0
1.076825375E1,-1.025357797E0,-6.193569624E-1,-3.098902089E0,3.322372016E0
1.077830275E1,-8.416137224E-1,1.374475747E-1,-2.226642525E0,2.384353670E0
1.078835075E1,-2.877490836E-1,8.551693225E-1,-3.517380881E-1,9.684181885E-1
1.079839975E1,6.671620435E-1,1.534515209E0,2.431363485E0,2.951503094E0
1.080844875E1,1.490392705E0,1.808192384E0,3.378035300E0,4.111198439E0
1.081849775E1,1.312150276E0,1.491628221E0,2.201461490E0,2.965320521E0
1.082854575E1,1.206647794E0,1.162151068E0,6.184272552E-1,1.785790098E0
1.083859475E1,1.497035142E0,8.420516789E-1,-3.811776495E-1,1.759392408E0
1.084864375E1,1.727330069E0,3.828177935E-1,-7.372964716E-1,1.916722389E0
1.085869275E1,1.466103371E0,-1.974721670E-1,-3.436513889E-1,1.518733231E0
1.086874175E1,9.101565385E-1,-8.026660037E-1,4.781046410E-1,1.304316559E0
1.087879075E1,6.294089109E-1,-1.225193993E0,1.045567674E0,1.729296868E0
1.088883875E1,4.122310424E-1,-1.377975891E0,8.500086430E-1,1.670708437E0
1.089888775E1,2.432482642E-1,-1.440742242E0,1.829172047E-1,1.472537480E0
1.090893675E1,1.308548391E-1,-1.469701747E0,-3.957184323E-1,1.527658107E0
1.091898575E1,5.424403489E-2,-1.582217379E0,-5.747708467E-1,1.684255259E0
1.092903475E1,-1.494220877E-1,-1.597501416E0,-4.619441430E-1,1.669649702E0
1.093908275E1,6.072158039E-2,-1.310270981E0,-1.549078723E-1,1.320792793E0
1.094913175E1,3.232218021E-1,-9.971449810E-1,1.320617044E-1,1.056508751E0
1.095918075E1,4.445380783E-1,-7.672733921E-1,2.657934467E-1,9.257260489E-1
1.096922975E1,6.048511899E-1,-5.512649667E-1,2.406655856E-1,8.530286921E-1
1.097927775E1,7.600941807E-1,-3.012543976E-1,1.415506025E-1,8.297794579E-1
1.098932675E1,8.443133819E-1,-3.277773678E-2,3.543880463E-2,8.456922465E-1
1.099937575E1,8.311969078E-1,1.393286240E-1,-5.042404890E-2,8.443005091E-1
1.100942475E1,8.469908220E-1,2.260732377E-1,-1.438532178E-1,8.883672155E-1
1.101947375E1,8.225079453E-1,2.246699059E-1,-2.868737372E-1,8.996068184E-1
1.102952154E1,7.436874783E-1,1.152515441E-1,-3.901542950E-1,8.476876534E-1
1.103957054E1,6.390205640E-1,-1.242919242E-1,-4.458712435E-1,7.890481160E-1
1.104961954E1,4.844956112E-1,-3.854198045E-1,-4.659575987E-1,7.748554102E-1
1.105966854E1,3.674320149E-1,-5.829802644E-1,-5.295068926E-1,8.690511053E-1
1.106971754E1,2.962784171E-1,-7.139602339E-1,-5.937607759E-1,9.747163562E-1
1.107976554E1,2.127129346E-1,-7.790988010E-1,-6.115673018E-1,1.013043088E0
1.108981454E1,1.176237595E-1,-7.941226369E-1,-5.646574295E-1,9.814805774E-1
1.109986354E1,-3.645388126E-2,-6.553892595E-1,-4.496964920E-1,7.956700961E-1
1.110991254E1,-6.302421391E-2,-4.473283696E-1,-3.969820887E-1,6.013896412E-1
1.111996154E1,-4.387867570E-2,-3.014765918E-1,-4.130595928E-1,5.132559798E-1
1.113001054E1,-1.621555692E-1,-2.282788074E-1,-3.911722952E-1,4.810627891E-1
1.114005854E1,-2.868129444E-1,-1.929657179E-1,-2.925981796E-1,4.528919607E-1
1.115010754E1,-3.556750184E-1,-1.932329357E-1,-2.040175402E-1,4.532845054E-1
1.116015654E1,-4.272139478E-1,-2.836449230E-1,-1.331481171E-1,5.298062104E-1
1.117020554E1,-6.562388599E-1,-4.192459470E-1,-9.865890940E-2,7.849523461E-1
1.118025454E1,-8.521591759E-1,-5.762220526E-1,-8.333918612E-2,1.032062273E0
1.119030254E1,-9.350159758E-1,-7.572325534E-1,5.700686255E-2,1.204535511E0
1.120035154E1,-1.110717790E0,-1.013946370E0,4.775689995E-1,1.577926931E0
1.121040054E1,-1.349553160E0,-1.366805370E0,9.572313023E-1,2.146099349E0
1.122044954E1,-1.658389058E0,-1.663028823E0,1.172972510E0,2.625220684E0
1.123049754E1,-2.108835163E0,-1.861454671E0,1.145630856E0,3.037214068E0
1.124054654E1,-2.741370580E0,-2.189288757E0,1.038343951E0,3.658723285E0
1.125059554E1,-3.429309534E0,-2.677729484E0,9.124123943E-1,4.445547824E0
1.126064454E1,-3.327872037E0,-2.921332090E0,6.683344102E-1,4.478346163E0
1.127069354E1,-3.545975520E0,-3.304725249E0,3.843854320E-1,4.862396891E0
1.128074154E1,-3.853079472E0,-4.004204854E0,1.951018520E-1,5.560390513E0
1.129079054E1,-4.180423561E0,-4.360673924E0,2.202928995E-1,6.044828135E0
1.130083954E1,-4.417789527E0,-4.824039452E0,4.260341258E-1,6.555129748E0
1.131088854E1,-4.584663214E0,-5.242947430E0,7.104016185E-1,7.000878873E0
1.132093754E1,-4.749368169E0,-5.482272213E0,9.634118092E-1,7.317101129E0
1.133098654E1,-4.473714636E0,-5.360657728E0,1.045811795E0,7.060063472E0
1.134103454E1,-2.905257509E0,-4.250059222E0,1.254572743E0,5.298818487E0
1.135108354E1,-1.370068701E0,-2.716118209E0,1.031790172E0,3.212316506E0
1.136113254E1,-5.755905533E-1,-1.273315993E0,3.396799600E-1,1.438061396E0
1.137118154E1,-2.193933785E-1,3.334228545E-1,-7.419718321E-1,8.425119905E-1
1.138122954E1,2.485569513E-1,1.914353262E0,-2.224415320E0,2.945259324E0
1.139127854E1,1.382694009E0,3.507354076E0,-3.752084609E0,5.318976805E0
1.140132754E1,2.988075718E0,5.106135448E0,-4.277985524E0,7.300847612E0
1.141137654E1,4.503719623E0,6.825012197E0,-3.419226011E0,8.863147773E0
1.142142554E1,6.162282343E0,8.238517524E0,-1.100086894E0,1.034683941E1
1.143147354E1,7.320690023E0,9.884108781E0,1.143038128E0,1.235292050E1
1.144152254E1,8.151477626E0,1.138319688E1,2.343303248E0,1.419559188E1
1.145157154E1,8.798828133E0,1.309906582E1,1.915714932E0,1.589574992E1
1.146162054E1,9.565168310E0,1.486515884E1,1.134136181E-1,1.767705447E1
1.147166954E1,1.089460705E1,1.619974488E1,-1.930405477E0,1.961761102E1
1.148171754E1,1.333238610E1,1.725875866E1,-3.427492805E0,2.207634428E1
1.149176654E1,1.516169219E1,1.761069439E1,-4.181647968E0,2.361143042E1
1.150181554E1,1.365706327E1,1.579135195E1,-3.394044392E0,2.115187252E1
1.151186454E1,1.304647129E1,1.368056674E1,-1.681056958E0,1.897878478E1
1.152191354E1,1.274543791E1,1.212100206E1,-4.792331171E-1,1.759529889E1
1.153196154E1,1.228289275E1,1.049836463E1,-3.080745169E-1,1.616106507E1
1.154201054E1,1.192412631E1,9.154336506E0,-9.384104307E-1,1.506211404E1
1.155205954E1,1.136608676E1,8.054915537E0,-1.600838861E0,1.402256316E1
1.156210854E1,1.037574150E1,6.697516583E0,-1.626972553E0,1.245631486E1
1.157215754E1,8.957936134E0,4.868543780E0,-1.132344813E0,1.025814521E1
1.158220554E1,6.863458809E0,2.915562057E0,-1.365218874E-1,7.458297873E0
1.159225454E1,4.157335246E0,8.310805482E-1,1.608981839E0,4.534639322E0
1.160230354E1,1.381967200E0,-9.381839973E-1,3.318342830E0,3.715026473E0
1.161235254E1,-6.910707235E-2,-2.101222672E0,3.919136052E0,4.447419465E0
1.162240154E1,-1.273789617E0,-3.394511585E0,3.500043887E0,5.039400371E0
1.163244954E1,-2.417596216E0,-4.491298968E0,3.032487659E0,5.934013758E0
1.164249854E1,-3.625430995E0,-5.550533193E0,3.151258643E0,7.340476800E0
1.165254754E1,-5.123477120E0,-6.565142053E0,4.414015149E0,9.425212873E0
1.166259654E1,-6.363079237E0,-7.393197252E0,5.384191017E0,1.114170794E1
1.167264554E1,-6.559956742E0,-7.872038020E0,3.846868852E0,1.094533759E1
1.168269354E1,-6.642391958E0,-8.092666331E0,2.222033165E0,1.070280574E1
1.169274254E1,-6.887848130E0,-8.233510553E0,1.372615602E0,1.082207104E1
1.170279154E1,-7.279404588E0,-8.466847787E0,9.478408201E-1,1.120605394E1
1.171284054E1,-7.770987024E0,-8.855713356E0,3.173304400E-1,1.178611883E1
1.172288954E1,-8.462721992E0,-9.393420968E0,-9.585374241E-1,1.267962204E1
1.173293754E1,-8.771863698E0,-9.881499753E0,-2.498228735E0,1.344733345E1
1.174298654E1,-9.375102226E0,-1.077240609E1,-2.728494426E0,1.453898059E1
1.175303554E1,-1.027412859E1,-1.163638015E1,-3.101263779E0,1.582974726E1
1.176308454E1,-7.858169010E0,-1.013745460E1,-3.257814792E0,1.323375091E1
1.177313354E1,-6.852613978E0,-9.532297018E0,-2.241069945E0,1.195179481E1
1.178318154E1,-7.324253901E0,-9.682940004E0,-1.814891539E0,1.227590541E1
1.179323054E1,-9.031375408E0,-1.114009889E1,-8.142281418E-1,1.436420943E1
1.180327954E1,-8.613746801E0,-1.130322919E1,-1.347193662E0,1.427496252E1
1.181332854E1,-8.773755273E0,-1.120411888E1,-9.115434980E-1,1.425980270E1
1.182337754E1,-9.316885008E0,-1.111697198E1,-8.849920227E-1,1.453184858E1
1.183342554E1,-8.977320823E0,-1.037719629E1,-8.932775272E-1,1.375050678E1
1.184347454E1,-8.546331328E0,-9.879698811E0,-1.003576918E0,1.310173250E1
1.185352354E1,-7.886117531E0,-9.576220132E0,-1.347936990E0,1.247845246E1
1.186357254E1,-7.437058386E0,-9.265433604E0,-1.803345773E0,1.201707757E1
1.187362154E1,-7.303435475E0,-9.013886386E0,-2.128449647E0,1.179494025E1
1.188366954E1,-7.217898896E0,-8.946069210E0,-2.196395463E0,1.170275061E1
1.189371854E1,-7.491232254E0,-9.129068933E0,-2.039182983E0,1.198401967E1
1.190376754E1,-7.831870573E0,-9.301627868E0,-1.600497968E0,1.226458607E1
1.191381654E1,-8.303004127E0,-9.399068794E0,-1.135292467E0,1.259250812E1
1.192386554E1,-8.545211586E0,-9.297411441E0,-8.855615415E-1,1.265885934E1
1.193391354E1,-8.393904356E0,-9.293074561E0,-7.995465142E-1,1.254823254E1
1.194396254E1,-7.776171750E0,-9.228316648E0,-8.532414224E-1,1.209787982E1
1.195401154E1,-6.809120049E0,-8.927040031E0,-8.035039097E-1,1.125618844E1
1.196406054E1,-6.237107407E0,-8.420703315E0,-4.688221496E-1,1.048949700E1
1.197410954E1,-6.302165868E0,-7.866168585E0,-2.682761014E-1,1.008294971E1
1.198415754E1,-6.203606370E0,-7.516194018E0,-1.534227526E-1,9.746868371E0
1.199420654E1,-6.017132231E0,-7.121019303E0,-6.070466001E-2,9.323008166E0
1.200425554E1,-5.363895332E0,-6.344929479E0,1.940989083E-1,8.310666496E0
1.201430454E1,-5.111931792E0,-5.924586595E0,-1.552074398E0,7.977562780E0
1.202435337E1,-4.881136343E0,-4.356351078E0,-2.633718662E0,7.052642108E0
1.203440137E1,-2.635902597E0,3.620845023E0,-4.723528154E0,6.509241077E0
1.204445037E1,2.938066821E0,1.666171818E1,-7.160499119E0,1.837165853E1
1.205449937E1,1.089692956E1,4.286094209E1,-1.194324670E1,4.580878270E1
1.206454837E1,2.565345649E1,6.770695423E1,-1.597200285E1,7.414469877E1
1.207459738E1,4.699881078E1,6.849201076E1,-1.120482991E1,8.381880437E1
1.208464537E1,5.541228518E1,4.371801760E1,5.450355771E0,7.079189777E1
1.209469437E1,2.935927676E1,1.821713953E1,1.384317547E1,3.722183246E1
1.210474337E1,1.039838192E1,6.686346062E0,9.930305293E0,1.585700266E1
1.211479237E1,6.106690525E0,1.198202076E0,6.131370453E0,8.736192592E0
1.212484137E1,4.448582718E0,-2.736116272E0,3.904453109E0,6.520810880E0
1.213488937E1,5.909959785E0,-8.293690097E0,4.622817758E0,1.118406742E1
1.214493837E1,7.142033612E0,-1.023105683E1,5.860309322E0,1.378500611E1
1.215498737E1,7.553555971E0,-9.233507221E0,5.891693083E0,1.330510845E1
1.216503637E1,5.584275720E0,-6.074284671E0,4.154372461E0,9.237958656E0
1.217508537E1,4.713794294E0,-3.547549006E0,4.271856765E0,7.283798515E0
1.218513337E1,3.529609748E0,-1.619671134E0,3.643458838E0,5.325060738E0
1.219518237E1,2.610015219E0,2.094361550E-1,3.112836589E0,4.067652219E0
1.220523137E1,2.602454769E0,1.907502664E0,3.395371418E0,4.684003021E0
1.221528037E1,2.581328194E0,3.002778541E0,1.804244782E0,4.351463369E0
1.222532937E1,2.370482860E0,3.227319224E0,-1.135833335E0,4.162318552E0
1.223537737E1,1.110132483E0,2.525175628E0,-2.522839665E0,3.738131359E0
1.224542637E1,1.004691982E-1,1.571898213E0,-3.170181402E0,3.539916408E0
1.225547537E1,-7.100928855E-1,5.080692458E-1,-3.484169866E0,3.591908395E0
1.226552437E1,-1.484726753E0,-4.976214409E-1,-3.311440192E0,3.663014711E0
1.227557337E1,-2.080866176E0,-1.471039590E0,-2.588911448E0,3.632688261E0
1.228562137E1,-2.582315789E0,-2.279836984E0,-1.791729548E0,3.882821948E0
1.229567037E1,-3.053596693E0,-2.992973346E0,-1.250934021E0,4.455017187E0
1.230571937E1,-3.390005720E0,-3.556460162E0,-8.826391031E-1,4.991953471E0
1.231576837E1,-3.632590910E0,-3.877866404E0,-6.944369656E-1,5.358713210E0
1.232581637E1,-3.937495725E0,-3.938818949E0,-6.445403355E-1,5.606567537E0
1.233586537E1,-4.208466808E0,-3.791805915E0,-8.104083019E-1,5.722389936E0
1.234591437E1,-3.783484742E0,-3.283413903E0,-1.119554979E0,5.133124487E0
1.235596337E1,-2.135338837E0,-2.377783694E0,-1.356741435E0,3.471926636E0
1.236601237E1,-8.049592817E-1,-1.781610941E0,-1.635282908E0,2.548773662E0
1.237606037E1,-1.887165463E-1,-1.470761263E0,-1.821351104E0,2.348632042E0
1.238610937E1,-3.899046189E-1,-1.484012223E0,-1.857661582E0,2.409403338E0
1.239615837E1,-9.637158644E-1,-1.700059825E0,-1.708631843E0,2.595837909E0
1.240620737E1,-9.703881222E-1,-1.928859619E0,-1.381991320E0,2.563601479E0
1.241625637E1,-8.776735014E-1,-2.043774363E0,-7.800736780E-1,2.357082809E0
1.242630437E1,-8.180219615E-1,-1.962107472E0,-1.187877940E-1,2.129116296E0
1.243635337E1,-8.292199641E-1,-1.734019868E0,2.512058862E-1,1.938436238E0
1.244640237E1,-9.201459217E-1,-1.458770962E0,9.482195735E-2,1.727331017E0
1.245645137E1,-8.939422095E-1,-1.140701727E0,-4.099699241E-1,1.506123648E0
1.246650037E1,-6.368494928E-1,-7.683679909E-1,-9.006145404E-1,1.344274227E0
1.247654837E1,-5.442079622E-1,-3.652989507E-1,-1.192928472E0,1.361133340E0
1.248659737E1,-5.732914281E-1,9.004770577E-2,-1.104941910E0,1.248065814E0
1.249664637E1,-6.632999575E-1,6.428539985E-1,-6.214450032E-1,1.113293308E0
1.250669537E1,-7.895904601E-1,1.200291871E0,2.696501970E-2,1.436969305E0
1.251674437E1,-9.335769761E-1,1.633441327E0,5.249781875E-1,1.953278945E0
1.252679237E1,-1.144940958E0,2.014382749E0,8.004499090E-1,2.451397094E0
1.253684137E1,-1.291713088E0,2.227359393E0,1.036935795E0,2.775768076E0
1.254689037E1,-1.366384955E0,2.281596996E0,1.030689873E0,2.852194648E0
1.255693937E1,-1.458021349E0,2.075613037E0,9.434260992E-1,2.706297940E0
1.256698837E1,-1.383418479E0,1.673829800E0,1.193152421E0,2.477733962E0
1.257703637E1,-3.105836302E-1,8.351367617E-1,2.073954475E0,2.257255583E0
1.258708537E1,4.355316120E-1,-1.948409200E-2,2.815488131E0,2.849042090E0
1.259713437E1,8.329884946E-1,-4.860030234E-1,2.764529647E0,2.927916143E0
1.260718337E1,8.253637254E-1,-6.709948933E-1,2.218261710E0,2.460110656E0
1.261723237E1,6.722157919E-1,-6.190891600E-1,1.483998774E0,1.742813192E0
1.262728037E1,7.173574662E-1,-6.402560806E-1,8.265881324E-1,1.267981673E0
1.263732937E1,9.167504436E-1,-7.091333574E-1,3.986094419E-1,1.225639009E0
1.264737837E1,1.015858995E0,-7.909616321E-1,7.424556892E-2,1.289613200E0
1.265742737E1,8.844235271E-1,-8.055381560E-1,-2.092800343E-1,1.214452481E0
1.266747637E1,8.987509596E-1,-7.817101675E-1,-5.074693215E-1,1.294739042E0
1.267752437E1,9.397060275E-1,-7.474577630E-1,-8.820618367E-1,1.489890469E0
1.268757337E1,1.034647268E0,-6.673403835E-1,-1.371665576E0,1.843177856E0
1.269762237E1,1.113674142E0,-6.164199060E-1,-1.588021910E0,2.035204457E0
1.270767137E1,1.060620015E0,-6.492181081E-1,-1.508381079E0,1.954894485E0
1.271772037E1,9.297447109E-1,-7.207260472E-1,-1.232013600E0,1.703446147E0
1.272776837E1,8.565574515E-1,-7.375490713E-1,-9.181929517E-1,1.456278681E0
1.273781737E1,6.372851104E-1,-7.499276268E-1,-6.693032938E-1,1.190164130E0
1.274786637E1,4.470541352E-1,-7.775785249E-1,-5.025120521E-1,1.028107059E0
1.275791537E1,3.356266701E-1,-7.551562071E-1,-4.057113969E-1,9.206019207E-1
1.276796437E1,2.661494690E-1,-6.036337996E-1,-3.374545097E-1,7.410025978E-1
1.277801237E1,2.059313339E-1,-3.378708315E-1,-3.141176873E-1,5.052072194E-1
1.278806137E1,1.156374604E-1,-1.169969380E-1,-3.344817853E-1,3.727443768E-1
1.279811037E1,3.482391143E-1,7.047122777E-2,-3.913570672E-1,5.285802008E-1
1.280815937E1,3.166653192E-1,1.585495913E-1,-3.839562464E-1,5.223382969E-1
1.281820738E1,1.713608408E-1,1.684699774E-1,-4.100751740E-1,4.752981373E-1
1.282825637E1,2.180262995E-1,1.161566931E-1,-4.782490307E-1,5.382842929E-1
1.283830537E1,2.385471028E-1,4.203680277E-2,-5.034680718E-1,5.587055686E-1
1.284835437E1,2.282986879E-1,-5.018138945E-2,-4.653997743E-1,5.208026619E-1
1.285840337E1,2.464952230E-1,-1.841948944E-1,-4.005155611E-1,5.050746171E-1
1.286845137E1,2.487844080E-1,-2.652209312E-1,-3.365318191E-1,4.954689589E-1
1.287850037E1,2.259773433E-1,-3.608229071E-1,-2.610419261E-1,4.994014589E-1
1.288854937E1,1.516294116E-1,-5.613619387E-1,-1.260051584E-1,5.949756337E-1
1.289859837E1,-1.832692802E-2,-8.192107004E-1,-2.476529717E-2,8.197898315E-1
1.290864737E1,-1.774822909E-1,-1.137675793E0,-4.582579851E-2,1.152348114E0
1.291869537E1,-3.047972256E-1,-1.491016018E0,-8.735974073E-2,1.524356205E0
1.292874438E1,-5.542593259E-1,-1.794643800E0,-9.574232737E-2,1.880722298E0
1.293879337E1,-6.582888937E-1,-2.121831769E0,-5.199693164E-2,2.222210162E0
1.294884237E1,-6.335668659E-1,-2.431967502E0,2.698840857E-2,2.513284958E0
1.295889137E1,-6.134694010E-1,-2.690823154E0,1.921465413E-1,2.766549159E0
1.296893937E1,-5.857430738E-1,-2.940666493E0,3.853244583E-1,3.023092673E0
1.297898837E1,-6.122929412E-1,-3.154140735E0,5.937753940E-1,3.267426456E0
1.298903737E1,-8.088161051E-1,-3.228092811E0,7.917118299E-1,3.420756394E0
1.299908637E1,-8.572778285E-1,-3.205685111E0,7.461748838E-1,3.401193799E0
1.300913537E1,-9.076299566E-1,-3.084674644E0,5.269195362E-1,3.258320732E0
1.301918337E1,-1.163334544E0,-2.971493599E0,2.255071541E-1,3.199058447E0
1.302923275E1,-1.376768441E0,-2.999683025E0,4.899286978E-2,3.300907435E0
1.303928175E1,-1.702895139E0,-3.172582853E0,6.826514639E-2,3.601360014E0
1.304933075E1,-2.309022776E0,-3.367538964E0,3.170744781E-1,4.095417082E0
1.305937975E1,-2.908489850E0,-3.620727494E0,5.494243363E-1,4.676627834E0
1.306942775E1,-3.261401474E0,-3.796533388E0,6.015779916E-1,5.041061538E0
1.307947675E1,-3.406039370E0,-3.997581713E0,6.052570597E-1,5.286596244E0
1.308952575E1,-3.664971036E0,-4.035236612E0,5.858606029E-1,5.482552312E0
1.309957475E1,-4.149560788E0,-3.958790699E0,5.962380950E-1,5.765967256E0
1.310962375E1,-4.247491125E0,-3.407584205E0,2.888104995E-1,5.453092927E0
1.311967175E1,-3.187983835E0,-2.169881263E0,-1.581424789E-1,3.859615871E0
1.312972075E1,-2.165154959E0,-8.958314449E-1,-6.470422129E-1,2.430858614E0
1.313976975E1,-1.680078135E0,5.796596307E-1,-1.222742694E0,2.157259261E0
1.314981875E1,-8.056100768E-1,2.534465100E0,-2.393231599E0,3.577719724E0
1.315986775E1,5.030125737E-1,4.533302441E0,-3.113492646E0,5.522471288E0
1.316991575E1,2.153008538E0,6.647725203E0,-2.749163164E0,7.509034175E0
1.317996475E1,4.293166065E0,8.862713642E0,-1.547450273E0,9.968629310E0
1.319001375E1,6.712545097E0,1.085710768E1,-5.568888187E-3,1.276460262E1
1.320006275E1,9.111312693E0,1.229394165E1,7.648073289E-1,1.532129076E1
1.321011175E1,1.124052599E1,1.334953715E1,3.808331023E-1,1.745578988E1
1.322015975E1,1.337958950E1,1.436196383E1,-1.077815799E0,1.965810538E1
1.323020875E1,1.241149407E1,1.537611193E1,-2.734434028E0,1.994861230E1
1.324025775E1,1.065582898E1,1.615038619E1,-3.394332660E0,1.964441803E1
1.325030675E1,1.067365714E1,1.726534614E1,-3.291709640E0,2.056342594E1
1.326035575E1,1.160967474E1,1.710588672E1,-2.597494284E0,2.083609572E1
1.327040375E1,1.191502102E1,1.503587765E1,-2.492153770E0,1.934570167E1
1.328045275E1,1.074075862E1,1.196179758E1,-3.625398835E0,1.648004896E1
1.329050175E1,9.424911733E0,9.113252215E0,-4.710016408E0,1.393070643E1
1.330055075E1,8.796100992E0,7.326996245E0,-4.929347806E0,1.246413801E1
1.331059875E1,8.498256106E0,6.232410924E0,-4.429760531E0,1.143180131E1
1.332064775E1,8.146213962E0,5.486361755E0,-3.336085621E0,1.037258090E1
1.333069675E1,7.603158486E0,4.790847148E0,-1.797292589E0,9.164632890E0
1.334074575E1,7.148647397E0,3.557296899E0,-2.941849312E-2,7.984884864E0
1.335079475E1,6.051128528E0,1.941411252E0,1.540770561E0,6.539052533E0
1.336084275E1,3.580965843E0,3.520199239E-1,2.593889183E0,4.435706876E0
1.337089175E1,1.309711402E0,-9.738625377E-1,3.210096250E0,3.601176215E0
1.338094075E1,-5.271264911E-3,-2.143886881E0,3.360437520E0,3.986078157E0
1.339098975E1,-1.012567597E0,-3.289794384E0,2.758364342E0,4.410965209E0
1.340103875E1,-1.773938225E0,-4.445582512E0,1.630269797E0,5.056465199E0
1.341108675E1,-2.486655341E0,-5.528419608E0,4.646928459E-1,6.079705386E0
1.342113575E1,-3.204116303E0,-6.529142500E0,-2.921853662E-1,7.278834753E0
1.343118475E1,-3.902893072E0,-7.533861964E0,-5.056789041E-1,8.499844797E0
1.344123375E1,-4.519164459E0,-8.347714276E0,-2.350381887E-1,9.495389618E0
1.345128275E1,-4.905048532E0,-8.785385385E0,-1.933557272E-2,1.006195167E1
1.346133075E1,-4.988767211E0,-8.857293858E0,3.431968410E-2,1.016565938E1
1.347137975E1,-5.313332119E0,-9.061732982E0,2.782678235E-1,1.050827939E1
1.348142875E1,-6.295284864E0,-9.650468661E0,2.181368265E0,1.172691453E1
1.349147775E1,-7.345368782E0,-1.036406578E1,1.604315761E0,1.280398888E1
1.350152675E1,-8.793911210E0,-1.150821854E1,-1.647876348E0,1.457694977E1
1.351157475E1,-9.542141390E0,-1.221746358E1,-4.714359720E0,1.620321160E1
1.352162375E1,-6.835842994E0,-1.062241214E1,-5.291096327E0,1.369525792E1
1.353167275E1,-6.101071351E0,-1.016276252E1,-4.539020433E0,1.269281372E1
1.354172175E1,-7.927314674E0,-1.118742391E1,-4.078110736E0,1.430495575E1
1.355177075E1,-9.636207302E0,-1.278505514E1,-3.225831692E0,1.633156809E1
1.356181875E1,-8.926107985E0,-1.244811635E1,-3.402130507E0,1.569093676E1
1.357186775E1,-9.391469167E0,-1.271781216E1,-3.099035113E0,1.611044561E1
1.358191675E1,-9.337854293E0,-1.257855136E1,-2.508754892E0,1.586534993E1
1.359196575E1,-9.132963179E0,-1.204268679E1,-1.798589501E0,1.522078335E1
1.360201475E1,-8.327495189E0,-1.108171093E1,-1.131632695E0,1.390798641E1
1.361206275E1,-7.855098052E0,-1.039341530E1,-9.790595430E-1,1.306461651E1
1.362211175E1,-7.800254678E0,-9.969336627E0,-1.374333660E0,1.273265247E1
1.363216075E1,-8.117043373E0,-9.502487912E0,-1.753319188E0,1.261973842E1
1.364220975E1,-8.566987202E0,-9.107218473E0,-2.064597468E0,1.267269745E1
1.365225775E1,-8.922447043E0,-9.073585289E0,-2.105660124E0,1.289859743E1
1.366230675E1,-9.062430555E0,-8.922070482E0,-2.048649187E0,1.288130245E1
1.367235575E1,-8.953723800E0,-8.884879852E0,-1.948702145E0,1.276353007E1
1.368240475E1,-9.117389705E0,-8.825700767E0,-2.160868365E0,1.287202941E1
1.369245375E1,-9.304125214E0,-8.300294527E0,-2.499024541E0,1.271639724E1
1.370250275E1,-9.469535928E0,-7.781006813E0,-2.375172327E0,1.248429499E1
1.371255075E1,-9.015517175E0,-7.558817881E0,-1.909187831E0,1.191890414E1
1.372259975E1,-8.515260978E0,-7.272590243E0,-1.294248440E0,1.127276884E1
1.373264875E1,-7.821037436E0,-7.042440911E0,-6.477322575E-1,1.054438987E1
1.374269775E1,-6.984451734E0,-6.767913551E0,-2.369800490E-1,9.728482894E0
1.375274575E1,-6.339338956E0,-6.165055677E0,-5.033563900E-1,8.857115646E0
1.376279475E1,-5.714548761E0,-5.070089702E0,-1.899677335E0,7.872143997E0
1.377284375E1,-6.429916420E0,-3.318510645E0,-1.382220969E0,7.366605248E0
1.378289275E1,-7.212428241E0,-3.234118366E-1,-1.815575663E0,7.444463133E0
1.379294175E1,-6.107218528E0,1.049521415E1,-4.466270546E0,1.293813011E1
1.380298975E1,8.174196982E-1,3.099474531E1,-1.049520714E1,3.273364912E1
1.381303875E1,2.447082204E1,5.660107090E1,-2.187834905E1,6.543060840E1
1.382308775E1,6.480223992E1,6.004979144E1,-2.214455173E1,9.108067261E1
1.383313675E1,7.143428289E1,4.010265142E1,4.819042422E0,8.206279665E1
1.384318575E1,4.466741364E1,1.730111589E1,2.257004894E1,5.295199298E1
1.385323375E1,1.051559638E1,6.568067999E0,1.259380909E1,1.767261474E1
1.386328275E1,5.262763644E0,2.197311137E0,5.000612501E0,7.584918113E0
1.387333175E1,4.835099460E0,-2.093397928E0,3.189425173E-1,5.278468150E0
1.388338075E1,4.032671438E0,-4.080837293E0,-1.336282904E0,5.890782965E0
1.389342975E1,2.971736843E0,-5.546003355E0,-9.491182905E-1,6.363190914E0
1.390347775E1,8.902610949E-1,-7.569996003E0,4.034249602E0,8.623953511E0
1.391352675E1,7.563507932E-1,-8.918531163E0,1.337952401E1,1.609732672E1
1.392357575E1,3.673775189E0,-6.745394754E0,1.225993190E1,1.446730468E1
1.393362475E1,5.029239884E0,-4.465540228E0,9.667526743E0,1.177690013E1
1.394367375E1,3.963504140E0,-2.090984198E0,7.938362988E0,9.115875542E0
1.395372175E1,3.026045782E0,-1.265740925E-1,5.662759387E0,6.421823569E0
1.396377075E1,3.559227065E0,9.561969298E-1,3.310277473E0,4.953821436E0
1.397381975E1,3.818894895E0,7.941922188E-1,8.101305592E-1,3.983843750E0
1.398386875E1,2.514084045E0,-1.149030501E-1,-1.492321701E0,2.925892232E0
1.399391775E1,1.013421875E0,-1.385835718E0,-3.273419842E0,3.696328177E0
1.400396575E1,-1.250949808E0,-2.499267200E0,-3.521079830E0,4.495466064E0
1.401401475E1,-1.589068562E0,-3.024823714E0,-3.005582281E0,4.550628775E0
1.402406375E1,-2.024263959E0,-3.546681279E0,-2.662126189E0,4.874782920E0
1.403411200E1,-2.894623763E0,-3.968814581E0,-2.122143425E0,5.351058645E0
1.404416000E1,-3.611228693E0,-3.696372923E0,-1.738002407E0,5.452045288E0
1.405420900E1,-5.486872217E0,8.913746971E-1,-1.211501422E-1,5.560125262E0
1.406425800E1,-4.925061797E0,-1.684273512E0,-1.871945161E0,5.531472648E0
1.407430700E1,-5.507770751E0,-1.220473536E0,-3.834970645E0,6.821443699E0
1.408435600E1,-6.371809714E0,-1.010814017E-1,-5.321487231E0,8.302313101E0
1.409440400E1,-7.113540714E0,9.755728483E-2,-4.743955986E0,8.550853602E0
1.410445300E1,-6.373279704E0,-3.115250319E-1,-4.527578017E0,7.823982665E0
1.411450200E1,-3.398434482E0,-1.676911283E-1,-3.423494478E0,4.826778603E0
1.412455100E1,-1.204639276E0,-2.733175707E-1,-2.768906288E0,3.031946620E0
1.413460000E1,8.948941362E-1,-3.450231457E-1,-2.005549945E0,2.223085034E0
1.414464800E1,2.619044489E0,-2.163557500E-1,-1.302660829E0,2.933109116E0
1.415469700E1,3.675721727E0,1.277733564E-2,-4.799698663E-1,3.706948145E0
1.416474600E1,3.365835670E0,2.459888542E-1,7.084159771E-1,3.448363883E0
1.417479500E1,1.276979858E0,7.648625851E-2,2.008688146E0,2.381460849E0
1.418484400E1,4.788015926E-1,-3.689201313E-1,2.539514755E0,2.610457473E0
1.419489200E1,9.890226138E-1,-6.779647744E-1,1.877753785E0,2.227950009E0
1.420494100E1,8.587308615E-1,-8.429866487E-1,9.637661505E-1,1.541716697E0
1.421499000E1,2.482131350E-1,-8.170881611E-1,4.666381415E-1,9.731361562E-1
1.422503900E1,-4.469833839E-1,-7.794478798E-1,4.315794790E-1,9.967918486E-1
1.423508800E1,-9.502210754E-1,-6.204065377E-1,6.978395335E-1,1.332217842E0
1.424513600E1,-1.073685619E0,-2.363140512E-1,9.373812477E-1,1.444759060E0
1.425518500E1,-1.197865861E0,2.227321386E-1,1.186571891E0,1.700718989E0
1.426523400E1,-1.340481790E0,6.892019534E-1,1.406265889E0,2.061425360E0
1.427528300E1,-1.319574485E0,1.067162465E0,1.323203852E0,2.151971418E0
1.428533200E1,-1.353617560E0,1.315667376E0,7.347565142E-1,2.025617999E0
1.429538000E1,-8.140663201E-1,1.326696979E0,8.092319883E-2,1.558646019E0
1.430542900E1,-2.820229053E-1,9.836829364E-1,-1.810893651E-1,1.039212392E0
1.431547800E1,-2.776696533E-1,5.094404179E-1,-1.065655053E-1,5.899035367E-1
1.432552700E1,-1.448495650E-1,1.583320749E-1,3.058561563E-2,2.167623637E-1
1.433557500E1,1.600265980E-1,-5.516438663E-2,-1.519917928E-2,1.699489237E-1
1.434562400E1,3.499681360E-1,-1.789481878E-1,-1.899199764E-1,4.365429504E-1
1.435567300E1,4.515202385E-1,-2.858814830E-1,-3.677606285E-1,6.487269286E-1
1.436572200E1,4.581492269E-1,-3.837925243E-1,-5.420637516E-1,8.068646272E-1
1.437577100E1,4.381546730E-1,-4.827788687E-1,-6.661708673E-1,9.321151098E-1
1.438581900E1,4.415589219E-1,-5.992197365E-1,-6.787904012E-1,1.007370331E0
1.439586800E1,5.067413431E-1,-7.232508749E-1,-5.647954237E-1,1.048271190E0
1.440591700E1,4.505566174E-1,-7.775802791E-1,-4.350445390E-1,9.984468473E-1
1.441596600E1,4.336458850E-1,-7.275421464E-1,-3.764133382E-1,9.268512985E-1
1.442601500E1,4.915882838E-1,-5.801455343E-1,-4.288172543E-1,8.729903317E-1
1.443606300E1,7.314627045E-1,-4.500128263E-1,-5.055882722E-1,9.965785132E-1
1.444611200E1,8.409798843E-1,-4.295031327E-1,-5.410440338E-1,1.088323827E0
1.445616100E1,7.331075263E-1,-5.355809802E-1,-5.331421065E-1,1.052869478E0
1.446621000E1,6.935025805E-1,-6.554296052E-1,-5.305137831E-1,1.091777757E0
1.447625900E1,7.206658208E-1,-7.755928105E-1,-5.306324816E-1,1.184261062E0
1.448630700E1,7.720225006E-1,-8.904268634E-1,-5.468204981E-1,1.299188746E0
1.449635600E1,7.631698161E-1,-9.647753799E-1,-5.737434179E-1,1.357350806E0
1.450640500E1,8.404238141E-1,-1.004257534E0,-6.714059526E-1,1.471608418E0
1.451645400E1,6.815508717E-1,-1.046134708E0,-8.000803649E-1,1.482915375E0
1.452650300E1,5.529214829E-1,-1.075222852E0,-8.293591279E-1,1.466172879E0
1.453655100E1,4.801423591E-1,-1.049648300E0,-7.229596835E-1,1.361972446E0
1.454660000E1,3.923288745E-1,-9.493387306E-1,-5.563514596E-1,1.168200718E0
1.455664900E1,3.964096463E-1,-8.183219236E-1,-3.889714032E-1,9.889843936E-1
1.456669800E1,4.323203212E-1,-6.872554153E-1,-2.876818407E-1,8.613836006E-1
1.457674700E1,4.326986361E-1,-6.032420361E-1,-2.647437984E-1,7.881740560E-1
1.458679500E1,4.058365273E-1,-5.717957103E-1,-2.800026923E-1,7.550199527E-1
1.459684400E1,3.556177157E-1,-5.385899574E-1,-3.109403104E-1,7.163986170E-1
1.460689300E1,3.283088797E-1,-5.215201807E-1,-3.218857133E-1,6.952556593E-1
1.461694200E1,2.708629096E-1,-5.644293880E-1,-2.731234431E-1,6.830400172E-1
1.462699100E1,1.758778149E-1,-6.381668705E-1,-1.903911889E-1,6.887951547E-1
1.463703900E1,1.275874150E-1,-6.407267815E-1,-1.105521186E-1,6.625942408E-1
1.464708800E1,8.843855202E-2,-5.877819979E-1,-4.715426764E-2,5.962655277E-1
1.465713700E1,1.207216144E-2,-5.291987443E-1,2.909220021E-2,5.301352697E-1
1.466718600E1,-9.839636028E-2,-5.016776544E-1,1.452015674E-1,5.314563085E-1
1.467723400E1,-2.624809259E-1,-5.253957152E-1,2.930951564E-1,6.563853020E-1
1.468728300E1,-5.167880291E-1,-5.848683304E-1,4.647648032E-1,9.083761078E-1
1.469733200E1,-7.490283251E-1,-7.124838120E-1,5.721933575E-1,1.181559077E0
1.470738100E1,-1.087254667E0,-8.537811935E-1,6.585545035E-1,1.531260615E0
1.471743000E1,-1.555741187E0,-1.052532731E0,7.491745055E-1,2.022231003E0
1.472747800E1,-2.058188335E0,-1.261954853E0,7.922953089E-1,2.540944928E0
1.473752700E1,-2.575885021E0,-1.513517858E0,6.859661043E-1,3.065366119E0
1.474757600E1,-3.075402714E0,-1.876011314E0,5.136252701E-1,3.638864002E0
1.475762500E1,-3.527966681E0,-2.355439144E0,3.056339622E-1,4.253005358E0
1.476767400E1,-3.825963594E0,-2.812279764E0,1.284737067E-1,4.750096882E0
1.477772200E1,-4.089941992E0,-3.204851882E0,4.933646679E-2,5.196261654E0
1.478777100E1,-4.367094167E0,-3.603412719E0,5.380257010E-2,5.662065825E0
1.479782000E1,-4.660405707E0,-3.943018420E0,1.110349707E-1,6.105661666E0
1.480786900E1,-4.901709187E0,-4.249648747E0,1.959669475E-1,6.490352107E0
1.481791800E1,-4.890520540E0,-4.380749170E0,3.335881846E-1,6.574149034E0
1.482796600E1,-4.696626284E0,-4.396083493E0,4.711838400E-1,6.450260672E0
1.483801500E1,-4.044493339E0,-4.070799378E0,6.366438170E-1,5.773616656E0
1.484806400E1,-3.294304342E0,-3.263000103E0,8.013258219E-1,4.705500382E0
1.485811300E1,-2.686673970E0,-2.533543578E0,8.390474526E-1,3.786959297E0
1.486816200E1,-2.175735496E0,-1.721446016E0,6.844117682E-1,2.857555039E0
1.487821000E1,-1.621207783E0,-6.691308010E-1,-2.346696679E-1,1.769497261E0
1.488825900E1,-4.601939982E-1,3.509387738E-1,-1.371761470E0,1.488847228E0
1.489830800E1,8.345994025E-1,1.216906149E0,-2.055214441E0,2.530083623E0
1.490835700E1,1.687358503E0,2.217611500E0,-2.377581819E0,3.663041740E0
1.491840500E1,2.628821034E0,3.079117450E0,-2.291542525E0,4.652185663E0
1.492845400E1,3.942730737E0,3.969953619E0,-2.463227302E0,6.113358008E0
1.493850300E1,4.866782598E0,5.194364085E0,-2.934578372E0,7.699268883E0
1.494855200E1,6.503312425E0,6.959329172E0,-3.357088820E0,1.009927623E1
1.495860100E1,8.688758392E0,9.487105057E0,-3.261896149E0,1.327176142E1
1.496864900E1,1.181745438E1,1.254324821E1,-1.901030527E0,1.733779746E1
1.497869800E1,1.545367408E1,1.538852089E1,5.445558715E-1,2.181557147E1
1.498874700E1,1.869821218E1,1.775845937E1,2.591931535E0,2.591725539E1
1.499879600E1,2.116219377E1,1.878070938E1,1.960879118E0,2.836192054E1
1.500884500E1,1.741234397E1,1.738737987E1,-1.627795841E0,2.466090875E1
1.501889300E1,1.429752517E1,1.538977336E1,-4.394210337E0,2.146097469E1
1.502894287E1,1.430122997E1,1.363162788E1,-4.896398746E0,2.035488094E1
1.503899187E1,1.305453460E1,1.149082190E1,-4.104384030E0,1.786913064E1
1.504904087E1,1.168415892E1,9.181474019E0,-3.041606977E0,1.516807199E1
1.505908987E1,1.055150881E1,6.805515241E0,-2.318580050E0,1.276813178E1
1.506913787E1,9.748107222E0,4.827179992E0,-1.926501875E0,1.104711141E1
1.507918687E1,8.832620362E0,3.550951501E0,-1.492319216E0,9.635946018E0
1.508923587E1,7.455426829E0,2.537863501E0,-9.703688264E-1,7.935096471E0
1.509928487E1,5.472994435E0,1.533387866E0,-7.396610856E-2,5.684225314E0
1.510933387E1,2.956391995E0,6.672368878E-1,1.243500456E0,3.275935298E0
1.511938187E1,3.595809585E-1,-1.151433706E-1,2.471709273E0,2.500380609E0
1.512943087E1,-1.514460429E0,-8.062597024E-1,3.120291789E0,3.560879940E0
1.513947987E1,-2.487278654E0,-1.716308652E0,2.923334177E0,4.204539594E0
1.514952887E1,-2.524572195E0,-2.753569041E0,2.233441082E0,4.352455204E0
1.515957687E1,-3.292267756E0,-3.896437746E0,1.164411017E0,5.232313743E0
1.516962587E1,-3.954776586E0,-5.147551861E0,2.831689596E-1,6.497517423E0
1.517967487E1,-4.678097042E0,-6.206311292E0,-1.693435331E-1,7.773774439E0
1.518972387E1,-5.298347459E0,-7.101249867E0,-2.020797729E-1,8.862340081E0
1.519977287E1,-5.866989766E0,-7.738882887E0,-5.169516049E-2,9.711567826E0
1.520982087E1,-6.326807789E0,-8.008811411E0,-2.724334717E-2,1.020638522E1
1.521986987E1,-6.679730523E0,-7.934440675E0,2.298143228E-1,1.037434158E1
1.522991887E1,-6.882785611E0,-7.884089132E0,7.508479786E-1,1.049263417E1
1.523996787E1,-7.088157367E0,-7.973163276E0,1.556135874E0,1.078122750E1
1.525001687E1,-7.358843105E0,-8.118585284E0,2.634770576E0,1.126969453E1
1.526006487E1,-7.438404999E0,-8.343578541E0,9.417911446E-1,1.121749269E1
1.527011387E1,-9.426651279E0,-9.481056697E0,-1.708431283E0,1.347853582E1
1.528016287E1,-9.109226992E0,-9.196586148E0,-3.137182056E0,1.331905118E1
1.529021187E1,-8.715123487E0,-8.994593498E0,-3.547325057E0,1.301689689E1
1.530026087E1,-9.359539862E0,-9.456846301E0,-3.917112916E0,1.386999286E1
1.531030887E1,-1.082590343E1,-1.028019800E1,-3.255952454E0,1.528017940E1
1.532035787E1,-1.075900661E1,-1.060361334E1,-3.543425549E0,1.551607888E1
1.533040687E1,-1.035259822E1,-1.035180534E1,-4.258000910E0,1.524685986E1
1.534045587E1,-9.737102178E0,-1.009186386E1,-3.916032935E0,1.455995154E1
1.535050487E1,-9.605087251E0,-9.920877242E0,-3.038010939E0,1.413898924E1
1.536055287E1,-1.030451306E1,-9.805512262E0,-2.817490218E0,1.450066589E1
1.537060187E1,-1.079526285E1,-9.250652427E0,-2.241074768E0,1.439217449E1
1.538065087E1,-1.089264706E1,-8.859140993E0,-1.262241805E0,1.409707039E1
1.539069987E1,-1.054125045E1,-8.803674306E0,-6.335762215E-1,1.374860215E1
1.540074787E1,-1.012098533E1,-8.871108490E0,-5.386503299E-1,1.346926331E1
1.541079687E1,-9.560532053E0,-9.277425658E0,-7.434508123E-1,1.334268036E1
1.542084587E1,-9.501089843E0,-9.683349309E0,-1.094036999E0,1.361010209E1
1.543089487E1,-9.929068022E0,-9.791438599E0,-1.527498550E0,1.402825411E1
1.544094387E1,-1.012188113E1,-9.762547506E0,-1.387333775E0,1.413097684E1
1.545099187E1,-9.825917290E0,-9.641148199E0,-9.724480963E-1,1.380021900E1
1.546104087E1,-9.206668501E0,-9.285410031E0,-2.356158936E-1,1.307811528E1
1.547108987E1,-8.532647674E0,-9.018172395E0,1.164444419E0,1.246954051E1
1.548113887E1,-8.224066131E0,-8.459991342E0,1.686578484E0,1.191852609E1
1.549118787E1,-8.152447679E0,-7.946100023E0,1.417340516E0,1.147221700E1
1.550123587E1,-7.908408287E0,-7.500400688E0,1.162279122E0,1.096128756E1
1.551128487E1,-7.480689139E0,-7.103592846E0,9.833309340E-1,1.036285101E1
1.552133387E1,-6.986227534E0,-6.723416825E0,7.082336171E-1,9.721795298E0
1.553138287E1,-6.356837919E0,-6.074098729E0,-2.441507235E0,9.124966919E0
1.554143187E1,-5.548835746E0,-4.645642657E0,-6.938048816E0,1.002537257E1
1.555147987E1,-6.815314005E0,-2.680952470E0,-1.824298393E0,7.547454919E0
1.556152887E1,-7.026020760E0,2.887463263E0,-2.028852708E0,7.862484030E0
1.557157787E1,-3.247817223E0,1.660794134E1,-4.427982685E0,1.749225723E1
1.558162687E1,1.271496573E1,4.209324009E1,-1.139823475E1,4.542500380E1
1.559167587E1,5.638623952E1,6.201375891E1,-1.997427578E1,8.616313594E1
1.560172387E1,7.231584655E1,5.395589345E1,-5.147270025E0,9.037319563E1
1.561177287E1,5.922782261E1,2.966411784E1,2.104799297E1,6.950476866E1
1.562182187E1,1.862623763E1,9.993029544E0,1.362675481E1,2.514927066E1
1.563187087E1,7.133055797E0,2.622690228E0,1.530609415E0,7.752532116E0
1.564191887E1,6.019697989E0,-1.350761195E0,-2.095205010E0,6.515458827E0
1.565196787E1,3.896618425E0,-3.932960624E0,-3.323665550E0,6.457442769E0
1.566201687E1,2.183253261E0,-6.111650718E0,-2.669570572E0,7.017512119E0
1.567206587E1,1.522436031E0,-8.438438505E0,-1.503707692E0,8.705526560E0
1.568211487E1,3.429969100E0,-8.772107527E0,1.340564235E0,9.513762188E0
1.569216287E1,3.270221999E0,-5.683201838E0,3.286069416E0,7.334261194E0
1.570221188E1,2.760416130E0,-2.678217727E0,4.687775939E0,6.063661489E0
1.571226087E1,2.459748793E0,6.050745535E-1,6.545527568E0,7.018576101E0
1.572230987E1,2.537310939E0,2.058365505E0,7.554236003E0,8.230510126E0
1.573235887E1,3.568896021E0,2.697829288E0,6.865655608E0,8.194664643E0
1.574240687E1,3.805015360E0,3.146583794E0,5.533341794E0,7.415996418E0
1.575245587E1,2.461615224E0,2.897843240E0,3.859898787E0,5.418105167E0
1.576250487E1,5.230708623E-1,1.652299182E0,2.106079077E0,2.727501567E0
1.577255387E1,-1.295129031E0,6.664773345E-2,5.244847190E-1,1.398887182E0
1.578260287E1,-2.915888332E0,-1.289361337E0,-3.880560216E-1,3.211766632E0
1.579265087E1,-2.586214128E0,-2.177396105E0,-8.040038466E-1,3.475051006E0
1.580269987E1,-2.151515744E0,-2.903395756E0,-1.000844514E0,3.749722210E0
1.581274888E1,-3.045243945E0,-3.562694464E0,-8.991555870E-1,4.772293295E0
1.582279787E1,-3.625225757E0,-3.959147964E0,-8.360348940E-1,5.432869291E0
1.583284687E1,-4.161849296E0,-4.236228218E0,-8.719286120E-1,6.002239464E0
1.584289487E1,-4.691826305E0,-4.422220547E0,-1.169714441E0,6.552671250E0
1.585294387E1,-5.125623633E0,-4.544733748E0,-1.311106548E0,6.974641413E0
1.586299287E1,-5.606238447E0,-4.529175476E0,-1.481360511E0,7.357837249E0
1.587304187E1,-6.065532559E0,-4.346602600E0,-1.693317985E0,7.651860243E0
1.588308987E1,-6.390503848E0,-4.028452672E0,-1.851313991E0,7.777810351E0
1.589313887E1,-6.704769469E0,-3.556036239E0,-2.263904491E0,7.919885790E0
1.590318787E1,-5.948616897E0,-2.645633533E0,-2.551224974E0,6.992436531E0
1.591323687E1,-4.030786881E0,-1.522119112E0,-2.389200967E0,4.926699781E0
1.592328588E1,-2.603032474E0,-4.170836467E-1,-1.938705161E0,3.272356113E0
1.593333387E1,-1.733135185E0,7.164032006E-1,-1.080915189E0,2.164571265E0
1.594338287E1,-3.332187867E-1,1.994114546E0,6.413862012E-2,2.022780597E0
1.595343187E1,1.590757822E0,3.308542312E0,1.285056033E0,3.889515611E0
1.596348087E1,3.665283862E0,4.382809144E0,1.867562672E0,6.010916080E0
1.597352987E1,5.725221099E0,5.003996285E0,1.460135702E0,7.742747040E0
1.598357787E1,6.516855161E0,4.620538806E0,3.176143223E-1,7.994977105E0
1.599362687E1,3.438228877E0,2.955853466E0,-3.836849356E-1,4.550351817E0
1.600367587E1,6.834740210E-1,7.417573124E-1,-2.505204463E-1,1.039279145E0
1.601372487E1,-1.521182388E-1,-1.231228319E0,7.325508714E-2,1.242750756E0
1.602377387E1,-6.532860160E-1,-2.430753036E0,1.174775791E-1,2.519750765E0
1.603382137E1,-1.062545503E0,-3.103562320E0,2.528569937E-2,3.280509318E0
1.604387037E1,-1.459473213E0,-3.436856536E0,-1.347863607E-1,3.736336745E0
1.605391937E1,-1.644974960E0,-3.390182891E0,-1.777576947E-1,3.772383921E0
1.606396837E1,-1.757875339E0,-2.666511016E0,-1.621537419E-1,3.197921285E0
1.607401737E1,-9.846939200E-1,-1.717243622E0,-8.262108408E-2,1.981255667E0
1.608406537E1,-1.658632886E-1,-1.002177680E0,5.226716436E-2,1.017154162E0
1.609411437E1,3.403091204E-1,-4.256533259E-1,1.085887150E-1,5.556820677E-1
1.610416337E1,7.975210387E-1,1.007475257E-2,1.394912497E-1,8.096907536E-1
1.611421237E1,1.546111992E0,1.954250568E-1,1.778080539E-1,1.568524449E0
1.612426037E1,2.333606810E0,1.518305558E-1,2.763487673E-1,2.354812498E0
1.613430937E1,2.672806714E0,3.789405048E-2,4.772685257E-1,2.715348400E0
1.614435837E1,2.939092423E0,-8.259309053E-2,5.502803687E-1,2.991303123E0
1.615440737E1,2.545376589E0,-3.825494063E-1,5.012912265E-1,2.622323191E0
1.616445637E1,1.758071805E0,-7.965311050E-1,3.993543772E-1,1.970980008E0
1.617450437E1,1.037242847E0,-1.081223849E0,1.997875913E-1,1.511566346E0
1.618455338E1,4.891131574E-1,-1.166465728E0,-6.476485692E-2,1.266518244E0
1.619460237E1,-5.615899801E-2,-1.116674933E0,-2.390715615E-1,1.143359939E0
1.620465137E1,-6.033221430E-1,-9.787519795E-1,-4.398440067E-1,1.231022256E0
1.621470037E1,-9.515583336E-1,-8.290217435E-1,-6.173245434E-1,1.404930570E0
1.622474837E1,-1.122539690E0,-6.771555197E-1,-8.039640856E-1,1.537853441E0
1.623479737E1,-1.017826583E0,-5.307517648E-1,-9.539673865E-1,1.492555581E0
1.624484637E1,-8.739996958E-1,-2.339511913E-1,-1.013794928E0,1.358818893E0
1.625489537E1,-6.388960183E-1,2.238740999E-1,-9.439277172E-1,1.161596862E0
1.626494337E1,-2.428863215E-1,6.120251387E-1,-7.392014945E-1,9.899431221E-1
1.627499237E1,1.644453388E-1,6.935370791E-1,-4.505010688E-1,8.432005471E-1
1.628504137E1,4.007172900E-1,6.394561815E-1,-2.441960979E-1,7.931647300E-1
1.629509038E1,5.693995214E-1,4.472283822E-1,-2.122714698E-1,7.545119069E-1
1.630513937E1,6.196224260E-1,2.060582185E-1,-2.513975286E-1,6.997089807E-1
1.631518737E1,5.129867542E-1,-3.745726347E-2,-3.008708203E-1,5.958873275E-1
1.632523637E1,2.953083640E-1,-2.817048168E-1,-3.211477947E-1,5.193270066E-1
1.633528537E1,5.656537950E-2,-4.606582671E-1,-3.742522073E-1,5.962133812E-1
1.634533437E1,-7.138163924E-2,-5.131785429E-1,-5.326591265E-1,7.430836429E-1
1.635538337E1,-1.313927829E-1,-5.077850711E-1,-7.125896466E-1,8.848128312E-1
1.636543137E1,-1.841475320E-1,-5.522005212E-1,-8.029969561E-1,9.917861870E-1
1.637548037E1,-2.114008194E-1,-6.669831187E-1,-7.934718418E-1,1.057900917E0
1.638552937E1,-2.382062101E-1,-7.906891519E-1,-6.675695944E-1,1.061876027E0
1.639557837E1,-2.461227554E-1,-8.291854656E-1,-5.064238393E-1,1.002292399E0
1.640562738E1,-1.786803854E-1,-7.844700533E-1,-3.551166093E-1,8.794474122E-1
1.641567537E1,-1.345362461E-1,-7.174171078E-1,-2.117850363E-1,7.600264533E-1
1.642572437E1,6.975143552E-3,-6.777273774E-1,-5.079359293E-2,6.796639168E-1
1.643577337E1,6.167467654E-2,-6.884266126E-1,1.590711629E-1,7.092521424E-1
1.644582237E1,2.669370890E-2,-7.004438102E-1,3.771337152E-1,7.959672886E-1
1.645587137E1,-2.845079720E-2,-6.523259032E-1,6.566892417E-1,9.260557715E-1
1.646591937E1,-1.359430861E-1,-5.719816518E-1,9.038403761E-1,1.078225838E0
