"Time (s)","Linear Acceleration x (m/s^2)","Linear Acceleration y (m/s^2)","Linear Acceleration z (m/s^2)","Absolute acceleration (m/s^2)"
-3.185541667E-3,1.145998427E0,-5.761156332E-1,-2.752684357E0,3.036855740E0
6.843458337E-3,8.201515174E-1,-5.935590470E-1,-1.614174167E0,1.905392111E0
1.687345833E-2,3.456485054E-1,-4.135057354E-1,-4.450491250E-1,6.989482142E-1
2.690245833E-2,1.259987265E-2,-2.191010177E-1,2.190776289E-2,2.205537640E-1
3.693145834E-2,9.564875364E-3,1.256771296E-1,-9.726328683E-1,9.807654787E-1
4.696045833E-2,8.002148509E-2,7.793578327E-2,-2.555734931E0,2.558174830E0
5.699045833E-2,-7.794923186E-2,-3.957687914E-2,-3.677689315E0,3.678728192E0
6.701945834E-2,1.178468308E-1,1.002271235E-2,-4.161270422E0,4.162950859E0
7.704845833E-2,3.938155290E-1,-2.195366353E-1,-4.149870690E0,4.174292006E0
8.707845833E-2,1.002008110E-1,-8.089880133E-1,-4.013746925E0,4.095688732E0
9.710745834E-2,1.055963293E-1,-5.699935985E-1,-3.948716531E0,3.991040658E0
1.071364583E-1,-1.189206719E-2,-3.748632413E-1,-2.972883482E0,2.996447909E0
1.171664583E-1,-1.562725686E0,-7.482483065E-1,-1.176363895E0,2.094234732E0
1.271954583E-1,-3.438626488E0,-1.385474945E0,3.114285529E-1,3.720306532E0
1.372244583E-1,-3.871470135E0,-1.742098382E0,1.431308929E0,4.480159933E0
1.472544583E-1,-4.149818358E0,-1.439745292E0,2.136861452E0,4.884673558E0
1.572834583E-1,-5.241300269E0,-6.871881723E-1,2.157437804E0,5.709465297E0
1.673124583E-1,-4.894554826E0,2.462858927E-1,1.582036116E0,5.149773001E0
1.773424583E-1,-3.203991757E0,6.572919434E-1,8.138382787E-1,3.370449320E0
1.873714583E-1,-1.735189312E0,2.952917579E0,-2.467840755E-1,3.433876317E0
1.974004583E-1,-1.877032238E-1,5.407965796E0,4.500859165E-1,5.429908276E0
2.074294583E-1,-7.753157987E-1,6.963878891E0,4.101148766E0,8.118875845E0
2.174594583E-1,-2.917075317E0,8.222024283E0,8.928719351E0,1.248331050E1
2.274884583E-1,-6.626510920E0,8.047129970E0,1.313404153E1,1.676812436E1
2.375174583E-1,-8.634166448E0,7.189698944E0,1.523055953E1,1.892645093E1
2.475474583E-1,-7.114866863E0,6.730273855E0,1.498670842E1,1.790305409E1
2.575764583E-1,-4.833572752E0,7.229507373E0,1.282623006E1,1.549649573E1
2.676054583E-1,-2.788146551E0,8.559261276E0,9.779297440E0,1.329170317E1
2.776354583E-1,-1.300369890E0,1.054375306E1,6.399920788E0,1.240244639E1
2.876644583E-1,2.121377148E-1,1.172299378E1,3.907944481E0,1.235902972E1
2.976934583E-1,1.543431044E0,1.260842245E1,2.730615503E0,1.299271939E1
3.077234583E-1,2.233366092E0,1.244826136E1,2.338497421E0,1.286140370E1
3.177524583E-1,1.933075461E0,1.150461899E1,2.103244347E0,1.185397299E1
3.277814583E-1,-8.381755596E-1,8.709476246E0,2.484178753E0,9.095529607E0
3.378114583E-1,-7.118574290E-1,8.121779033E0,2.389325220E0,8.495817245E0
3.478404583E-1,9.780944601E-1,7.440197756E0,3.242172321E0,8.174649398E0
3.578694583E-1,-3.988473505E-1,3.495339802E0,4.045107297E0,5.360911544E0
3.678984583E-1,-4.136659491E-1,9.261112511E-1,3.749030316E0,3.883816406E0
3.779284583E-1,-9.755406886E-1,-1.843120726E0,3.010760868E0,3.662438348E0
3.879574583E-1,-1.816822289E0,-4.947693445E0,1.001229554E0,5.364976633E0
3.979864583E-1,4.678231528E-1,-7.957721364E0,-5.047246385E-1,7.987423538E0
4.080164583E-1,2.017297001E0,-9.249826216E0,-1.999639580E0,9.676121674E0
4.180454583E-1,2.983973896E0,-9.950012748E0,-4.476891721E0,1.131147264E1
4.280744583E-1,3.414301194E0,-1.100630992E1,-5.832950785E0,1.291586720E1
4.381044583E-1,3.312858142E0,-1.133022228E1,-6.328406417E0,1.339394242E1
4.481334583E-1,3.082540703E0,-1.154646400E1,-6.385945943E0,1.355002560E1
4.581624583E-1,2.808249570E0,-1.178075726E1,-6.545719941E0,1.376658842E1
4.681924583E-1,3.146984328E0,-1.169410503E1,-6.914513773E0,1.394511038E1
4.782214583E-1,3.541724887E0,-1.168135342E1,-7.607921628E0,1.438326474E1
4.882504583E-1,3.268512273E0,-1.155935595E1,-7.932730950E0,1.439548897E1
4.982804583E-1,2.745387909E0,-1.125132229E1,-8.003130841E0,1.407762449E1
5.083094583E-1,2.284060428E0,-1.120192150E1,-7.557230946E0,1.370444150E1
5.183384583E-1,2.046994571E0,-1.129726503E1,-6.711387348E0,1.329891364E1
5.283684583E-1,2.309285024E0,-1.129396486E1,-5.729659721E0,1.287305092E1
5.383974583E-1,2.827265593E0,-1.123451973E1,-4.799434953E0,1.253963477E1
5.484264583E-1,3.366494066E0,-1.073672521E1,-4.178819085E0,1.200304459E1
5.584554583E-1,3.366973538E0,-1.021987111E1,-4.125862023E0,1.152410576E1
5.684854583E-1,3.014319191E0,-9.669661562E0,-4.523584954E0,1.109284886E1
5.785144583E-1,2.502421773E0,-8.980629762E0,-5.007382992E0,1.058242458E1
5.885434583E-1,1.722635632E0,-8.512046179E0,-5.106968091E0,1.007489587E1
5.985734583E-1,1.116461509E0,-8.295523784E0,-4.356994271E0,9.436397630E0
6.086024583E-1,4.317383771E-1,-8.228847399E0,-2.805535001E0,8.704674272E0
6.186314583E-1,-2.676317382E-1,-8.048479507E0,-1.444961886E0,8.181537996E0
6.286614583E-1,-8.044420955E-1,-7.806469098E0,-6.136114883E-1,7.871760027E0
6.386904583E-1,-6.585833010E-1,-7.543873567E0,-1.838656962E-1,7.574798146E0
6.487194583E-1,-2.241188058E-1,-7.385452030E0,-3.889991775E-1,7.399084489E0
6.587494583E-1,3.196588013E-1,-7.120307697E0,-1.007241953E0,7.198298396E0
6.687784583E-1,5.199313460E-1,-6.611376572E0,-1.420816686E0,6.782281978E0
6.788074583E-1,-7.318945214E-2,-5.955952229E0,-1.383770481E0,6.115026116E0
6.888374583E-1,-1.203038235E0,-5.060527166E0,-9.990584823E-1,5.296636106E0
6.988664583E-1,-2.445358211E0,-4.052864798E0,-9.436110905E-1,4.826581786E0
7.088954583E-1,-3.277788589E0,-2.960657539E0,-9.182444072E-1,4.511381594E0
7.189244583E-1,-2.852076498E0,-1.215397568E0,-4.055353957E-1,3.126658049E0
7.289544583E-1,-1.043533501E0,1.070660854E0,6.203483579E-1,1.618675050E0
7.389834583E-1,1.244388794E0,3.757282199E0,2.861434382E0,4.884002428E0
7.490124583E-1,2.679012656E0,6.966749289E0,5.871341264E0,9.496596901E0
7.590424583E-1,1.899628657E0,1.057458192E1,8.729100671E0,1.384296104E1
7.690714583E-1,-7.310538380E-1,1.379799052E1,1.067961195E1,1.746347885E1
7.791004583E-1,-2.406520420E0,1.656373756E1,1.132362662E1,2.020824738E1
7.891304583E-1,-1.403976997E0,1.888486232E1,1.111935531E1,2.196017392E1
7.991594583E-1,1.411084726E0,2.125312967E1,1.118273094E1,2.405701877E1
8.091884583E-1,3.016387936E0,2.308891682E1,1.158616660E1,2.600838197E1
8.192184583E-1,2.091836722E0,2.375295703E1,1.264560255E1,2.699055414E1
8.292477083E-1,1.133934452E0,2.428553547E1,1.463661223E1,2.837786916E1
8.392767083E-1,8.343982583E-1,2.385587271E1,1.658797076E1,2.906818978E1
8.493067083E-1,4.595266847E-1,2.235811310E1,1.766992551E1,2.850127460E1
8.593357083E-1,-5.114177269E-1,1.998116614E1,1.703865076E1,2.626450395E1
8.693647083E-1,-1.533311560E0,1.689000986E1,1.487529440E1,2.255876461E1
8.793947083E-1,-2.295667005E0,1.337462872E1,1.211551737E1,1.819166132E1
8.894237083E-1,-3.041293859E0,9.164927568E0,8.909788406E0,1.313886202E1
8.994527083E-1,-3.439548594E0,4.566928024E0,5.222619585E0,7.743583243E0
9.094827083E-1,-3.423892381E0,2.198436141E-2,1.219398817E0,3.634619076E0
9.195117083E-1,-2.956167462E0,-4.135721013E0,-2.312118585E0,5.584711873E0
9.295407083E-1,-2.365989567E0,-7.732522286E0,-4.718367694E0,9.362307473E0
9.395707083E-1,-2.230128927E0,-1.095548709E1,-5.658002093E0,1.253032961E1
9.495997083E-1,-2.423769706E0,-1.361183857E1,-4.753413273E0,1.462025125E1
9.596287083E-1,-2.358004317E0,-1.530477590E1,-3.276553657E0,1.582820753E1
9.696577083E-1,-1.433832588E0,-1.666934295E1,-2.859537545E0,1.697350363E1
9.796877083E-1,6.544852799E-1,-1.739617174E1,-3.469751801E0,1.775089631E1
9.897167083E-1,3.591250803E0,-1.724557436E1,-5.270932789E0,1.838721430E1
9.997457083E-1,6.471791840E0,-1.658677676E1,-7.628600891E0,1.937010079E1
1.009775708E0,8.418228773E0,-1.555730077E1,-9.560934926E0,2.010740310E1
1.019804708E0,9.373884251E0,-1.475294960E1,-1.081993343E1,2.055699850E1
1.029833708E0,9.110611027E0,-1.450604390E1,-1.116708496E1,2.044828427E1
1.039863708E0,6.818217148E0,-1.439265119E1,-9.601636809E0,1.859644920E1
1.049892708E0,4.676526773E0,-1.389817204E1,-6.886662900E0,1.620046958E1
1.059921708E0,3.333578335E0,-1.319048353E1,-4.758391008E0,1.441332319E1
1.069951708E0,2.397699456E0,-1.235627764E1,-3.187523074E0,1.298410040E1
1.079980708E0,2.006488131E0,-1.107942350E1,-2.242419043E0,1.148076926E1
1.090009708E0,1.484216875E0,-9.696937069E0,-2.074712712E0,1.002685998E1
1.100039708E0,-1.906086760E0,-6.744162746E0,-2.243081387E0,7.358553662E0
1.110068708E0,4.228794068E-1,-8.217680971E0,-1.365689429E0,8.341115942E0
1.120097708E0,2.489521646E0,-8.264017816E0,-1.676691427E0,8.792212613E0
1.130127708E0,2.004522005E0,-5.749435004E0,-2.176155033E0,6.466046865E0
1.140156708E0,8.089298335E-1,-4.610936508E0,-7.572810853E-1,4.742212311E0
1.150185708E0,-9.372387949E-1,-5.245128441E0,-4.002837190E-1,5.343221498E0
1.160215708E0,-8.168691829E-1,-4.828775112E0,2.399644679E-1,4.903256804E0
1.170244708E0,8.438409269E-3,-4.095652968E0,2.547713721E-1,4.103578060E0
1.180273708E0,3.482595795E-1,-3.871646721E0,-3.037210456E-1,3.899125484E0
1.190302708E0,6.769002888E-1,-3.620139264E0,-4.823105067E-1,3.714327088E0
1.200332708E0,5.334692582E-1,-3.377866316E0,-2.354624042E-1,3.427829173E0
1.210361708E0,1.806079200E-1,-3.002002031E0,-7.637223780E-2,3.008399597E0
1.220390708E0,-5.958879930E-1,-2.655083218E0,-5.273241270E-1,2.771753981E0
1.230420708E0,-1.447165993E0,-2.023973352E0,-1.250285272E0,2.784595268E0
1.240449708E0,-1.809599224E0,-1.333875021E0,-1.717794722E0,2.829256197E0
1.250478708E0,-2.367071302E0,-2.951382101E-1,-1.659514062E0,2.905876810E0
1.260508708E0,-1.907885364E0,1.646543183E0,-7.380914006E-1,2.626006461E0
1.270537708E0,-7.332221317E-1,4.311466681E0,8.136336261E-1,4.448410875E0
1.280566708E0,9.869914372E-1,8.068565862E0,2.635274021E0,8.545207799E0
1.290596708E0,1.691372470E0,1.314814618E1,4.142578627E0,1.388868052E1
1.300625708E0,4.944601437E-1,1.795163618E1,5.558874246E0,1.879911740E1
1.310654708E0,-1.570928452E0,2.129513607E1,7.115759148E0,2.250743576E1
1.320684708E0,-2.343743397E0,2.375683959E1,8.529986022E0,2.535036926E1
1.330713708E0,-2.879099405E0,2.562333865E1,1.020127462E1,2.772923910E1
1.340742708E0,-5.587654241E0,2.669432870E1,1.185396791E1,2.973761288E1
1.350772708E0,-9.320641844E0,2.677911099E1,1.245374371E1,3.096919247E1
1.360801708E0,-1.103159094E1,2.597775242E1,1.201601413E1,3.067448802E1
1.370830708E0,-1.053544767E1,2.461773684E1,1.118325017E1,2.901885093E1
1.380860708E0,-9.624049187E0,2.212111141E1,1.020908650E1,2.619525415E1
1.390889708E0,-8.824724282E0,1.883401259E1,9.795671398E0,2.299023634E1
1.400918708E0,-7.187242529E0,1.505418061E1,9.373839812E0,1.913514259E1
1.410948708E0,-5.226303915E0,1.063263425E1,7.857399516E0,1.421639514E1
1.420977708E0,-3.485691896E0,6.017115274E0,6.104991324E0,9.253466555E0
1.431006708E0,-2.142220133E0,1.817887652E0,4.388860427E0,5.211134086E0
1.441036708E0,-1.379255992E0,-2.132958435E0,2.694452229E0,3.702962543E0
1.451065708E0,-1.024890458E0,-5.826949203E0,1.013715990E0,6.002612562E0
1.461094708E0,-7.103677046E-1,-8.903864592E0,-7.590305722E-1,8.964349076E0
1.471123708E0,-6.048127444E-1,-1.161602716E1,-2.313123136E0,1.185952883E1
1.481153708E0,-5.957431282E-1,-1.383057355E1,-3.591525915E0,1.430170385E1
1.491182708E0,2.591114679E-1,-1.543950978E1,-4.912931748E0,1.620439753E1
1.501211708E0,1.951956267E0,-1.644018356E1,-6.294390240E0,1.771183551E1
1.511241708E0,3.994985841E0,-1.703811047E1,-7.639986005E0,1.909519590E1
1.521270708E0,6.028251881E0,-1.731115206E1,-8.637581806E0,2.026385022E1
1.531299708E0,7.624597887E0,-1.706048426E1,-9.266225901E0,2.085803343E1
1.541329708E0,8.106319579E0,-1.671068862E1,-9.598224374E0,2.090658849E1
1.551358708E0,7.524008237E0,-1.632838947E1,-9.383960173E0,2.028018026E1
1.561387708E0,6.354610130E0,-1.569610431E1,-8.621296141E0,1.900198694E1
1.571417708E0,5.432586667E0,-1.494526101E1,-7.794956515E0,1.770974793E1
1.581446708E0,4.784913686E0,-1.398713860E1,-6.990276146E0,1.635235169E1
1.591475708E0,4.036485285E0,-1.287596180E1,-6.051786339E0,1.478877019E1
1.601505708E0,3.033087584E0,-1.165333123E1,-5.085175518E0,1.307129523E1
1.611534708E0,1.680091583E0,-1.041825310E1,-4.095272899E0,1.131962745E1
1.621563708E0,2.882463893E-1,-9.128639748E0,-3.038752366E0,9.625443655E0
1.631593708E0,-8.202339631E-1,-7.755959680E0,-2.025787159E0,8.058008931E0
1.641622708E0,-1.549778635E0,-6.588278900E0,-1.129895780E0,6.861770701E0
1.651651708E0,-2.131100775E0,-5.675751901E0,-2.214945754E-1,6.066696795E0
1.661681708E0,-2.456845943E0,-4.969091915E0,3.819892430E-1,5.556427110E0
1.671710708E0,-2.509594553E0,-4.497798733E0,4.477262726E-1,5.169982309E0
1.681739708E0,-2.460337023E0,-4.301497178E0,5.044463110E-1,4.981024224E0
1.691768708E0,-2.013957510E0,-4.242849605E0,7.963831705E-1,4.763614571E0
1.701798708E0,-1.419606897E0,-4.135389476E0,9.175787017E-1,4.467513909E0
1.711827708E0,-1.036494988E0,-4.024274837E0,7.509631687E-1,4.222920258E0
1.721856708E0,-8.615892729E-1,-3.930819374E0,5.052046949E-1,4.055725435E0
1.731886708E0,-1.074663858E0,-3.636774593E0,1.111810049E-1,3.793862552E0
1.741915708E0,-1.325043386E0,-3.097701071E0,-3.642189699E-1,3.388826841E0
1.751944708E0,-1.877719432E0,-2.224179093E0,-6.333791703E-1,2.978921294E0
1.761974708E0,-2.974288276E0,-8.352700782E-1,-7.818259424E-1,3.186741071E0
1.772003708E0,-3.634108555E0,9.589515531E-1,-6.817134243E-1,3.819825423E0
1.782032708E0,-2.530195170E0,3.491232718E0,3.112297475E-1,4.322899194E0
1.792062708E0,7.325904863E-1,6.760959458E0,2.271089257E0,7.169735562E0
1.802091708E0,5.007170153E0,1.115538819E1,4.732081753E0,1.311133236E1
1.812120708E0,6.737212161E0,1.562750244E1,6.495425116E0,1.821536186E1
1.822150500E0,4.155542782E0,1.891140868E1,7.317757645E0,2.069926305E1
1.832179500E0,1.843445539E0,2.278406404E1,7.221875587E0,2.397222044E1
1.842208500E0,8.829149455E-1,2.614103475E1,6.456496108E0,2.694103893E1
1.852238500E0,-7.420761319E-1,2.796655653E1,5.734338663E0,2.855803916E1
1.862267500E0,-3.075026153E0,2.911897724E1,6.387541648E0,2.996950633E1
1.872296500E0,-5.026385273E0,2.895079729E1,8.082767580E0,3.047530712E1
1.882326500E0,-5.483399556E0,2.757487494E1,1.044919306E1,2.999378326E1
1.892355500E0,-4.447725517E0,2.496479482E1,1.260081171E1,2.831613848E1
1.902384500E0,-2.577961367E0,2.174125289E1,1.289420277E1,2.540843221E1
1.912414500E0,-1.048851032E0,1.783056139E1,1.059825379E1,2.076901517E1
1.922443500E0,-2.575853446E-1,1.343180046E1,7.261698634E0,1.527127633E1
1.932472500E0,-3.387312493E-1,8.730760696E0,3.715399178E0,9.494477987E0
1.942502500E0,-1.098313068E0,3.815333356E0,1.693276177E-1,3.973881233E0
1.952531500E0,-1.536072177E0,-8.071940875E-1,-3.007293177E0,3.472015593E0
1.962560500E0,-1.593619596E0,-5.253242038E0,-5.091146110E0,7.487051759E0
1.972589500E0,-1.580635123E0,-9.371389244E0,-5.783756406E0,1.112533963E1
1.982619500E0,-1.494096770E0,-1.288052380E1,-5.529460997E0,1.409663638E1
1.992648500E0,-1.110614805E0,-1.575582894E1,-5.067323969E0,1.658786855E1
2.002677500E0,1.470055796E-1,-1.781681810E1,-4.816077299E0,1.845684746E1
2.012707500E0,2.532127383E0,-1.881587219E1,-5.119919089E0,1.966373024E1
2.022736500E0,5.377171435E0,-1.896310508E1,-6.028186977E0,2.061194715E1
2.032765500E0,7.865390321E0,-1.851883715E1,-7.272086213E0,2.139380593E1
2.042795500E0,9.120424410E0,-1.770773829E1,-8.214100136E0,2.154570903E1
2.052824500E0,8.798256276E0,-1.671850634E1,-8.310747010E0,2.063943516E1
2.062853500E0,7.372374732E0,-1.572997139E1,-7.519478983E0,1.892951329E1
2.072883500E0,5.692954409E0,-1.474830574E1,-6.111674107E0,1.694918324E1
2.082912500E0,3.917043918E0,-1.383060746E1,-4.625753353E0,1.510054734E1
2.092941500E0,1.665447524E0,-1.281062033E1,-3.095262197E0,1.328406402E1
2.102971500E0,-4.772798547E-1,-1.153976660E1,-1.953318961E0,1.171364436E1
2.113000500E0,-1.568163743E0,-1.020028293E1,-1.203327745E0,1.039003884E1
2.123029500E0,-1.679148135E0,-9.335071603E0,-8.469265026E-1,9.522624890E0
2.133059500E0,-1.320188297E0,-8.828418553E0,-4.200462846E-1,8.936459599E0
2.143088500E0,-9.250264464E-1,-8.443910914E0,4.514600122E-1,8.506416495E0
2.153117500E0,-8.512092957E-1,-8.006536260E0,1.132927269E0,8.130971918E0
2.163147500E0,-1.327747870E0,-7.610314309E0,1.489199288E0,7.867497239E0
2.173176500E0,-1.742740113E0,-7.465526724E0,1.488681225E0,7.809443269E0
2.183205500E0,-1.718652947E0,-7.344235007E0,8.111231241E-1,7.586137127E0
2.193234500E0,-2.375771374E0,-6.616866522E0,-1.176228824E-1,7.031432809E0
2.203264500E0,-1.266370524E0,-7.501715727E0,-7.275383458E-1,7.642561429E0
2.213293500E0,-4.863738830E-1,-7.744972177E0,-8.539472544E-1,7.807072402E0
2.223322500E0,-6.710162356E-1,-6.466804165E0,-9.184759569E-1,6.566080793E0
2.233352500E0,-1.173208006E0,-6.945159030E0,-8.492232889E-1,7.094563494E0
2.243381500E0,-2.724032708E0,-5.986417977E0,-7.921796072E-1,6.624583226E0
2.253410500E0,-2.752630563E0,-4.993101752E0,-1.121254764E0,5.810787586E0
2.263440500E0,-1.791615966E0,-4.087909500E0,-2.178816394E0,4.966702400E0
2.273469500E0,-2.183101818E-1,-2.554125777E0,-3.294856904E0,4.174601758E0
2.283498500E0,-1.803820713E-1,-7.506672996E-1,-4.275268323E0,4.344416914E0
2.293528500E0,-2.190686534E0,1.367092468E0,-3.072354560E0,4.013404023E0
2.303557500E0,-4.419796291E0,4.423836717E0,1.339174937E0,6.395179440E0
2.313586500E0,-5.368614035E0,8.470808106E0,5.974856862E0,1.167371068E1
2.323616500E0,-5.183750803E0,1.174611134E1,8.933529856E0,1.564130300E1
2.333645500E0,-4.192675817E0,1.414642377E1,9.983458822E0,1.781486138E1
2.343674500E0,-1.906667681E0,1.597905576E1,8.463428920E0,1.818227801E1
2.353704500E0,1.357776977E0,1.750077141E1,5.262461928E0,1.832523025E1
2.363733500E0,4.839622282E0,1.919772812E1,2.049242095E0,1.990412274E1
2.373762500E0,7.456297479E0,2.102387906E1,6.111158967E-1,2.231531594E1
2.383792500E0,8.596121539E0,2.233814602E1,1.793740698E0,2.400215780E1
2.393821500E0,8.258648318E0,2.287030346E1,5.360605688E0,2.489964148E1
2.403850500E0,5.857328412E0,2.281349191E1,1.104401159E1,2.601410966E1
2.413879500E0,3.526194097E-1,2.207525755E1,1.728601721E1,2.804010926E1
2.423909500E0,-6.567880889E0,2.064553146E1,2.113146315E1,3.026406720E1
2.433938500E0,-1.100836112E1,1.812570896E1,2.144151994E1,3.015732278E1
2.443967500E0,-1.121100223E1,1.432930362E1,1.824754973E1,2.576797594E1
2.453997500E0,-7.875484954E0,1.014041680E1,1.298493285E1,1.826088161E1
2.464026500E0,-4.382648930E0,5.762984757E0,7.067365837E0,1.011767092E1
2.474055500E0,-2.011601521E0,1.407684424E0,1.593629975E0,2.927075779E0
2.484085500E0,-5.544626628E-1,-2.667097492E0,-2.131323554E0,3.458811641E0
2.494114500E0,5.472865212E-1,-6.473933675E0,-3.692518731E0,7.473020430E0
2.504143500E0,1.275365588E0,-9.764506908E0,-3.605275642E0,1.048666606E1
2.514173500E0,1.618698304E0,-1.215525505E1,-2.977658318E0,1.261890877E1
2.524202500E0,1.584120794E0,-1.386280808E1,-2.535981283E0,1.418161090E1
2.534231500E0,1.828514528E0,-1.500928686E1,-2.661512817E0,1.535271337E1
2.544261500E0,2.683672594E0,-1.529944090E1,-3.358145996E0,1.589188897E1
2.554290500E0,4.185239036E0,-1.498616580E1,-4.643473924E0,1.623771046E1
2.564319500E0,5.951179731E0,-1.431158656E1,-6.027510454E0,1.663036176E1
2.574349500E0,7.204431589E0,-1.367060075E1,-7.154479410E0,1.702867390E1
2.584378500E0,7.451203970E0,-1.299332243E1,-7.376289443E0,1.669600295E1
2.594407500E0,6.632239437E0,-1.246891607E1,-6.880268970E0,1.570982396E1
2.604437500E0,5.394489718E0,-1.202105677E1,-6.082312898E0,1.451209342E1
2.614466500E0,4.538086633E0,-1.134458771E1,-5.243950227E0,1.329634968E1
2.624495500E0,3.938578629E0,-1.044216353E1,-4.430748711E0,1.200761071E1
2.634524500E0,3.107690454E0,-9.479775572E0,-3.620036938E0,1.061266000E1
2.644554500E0,2.013789111E0,-8.516565492E0,-2.701689035E0,9.158949613E0
2.654583500E0,9.493711826E-1,-7.648874942E0,-1.670714988E0,7.886563389E0
2.664612500E0,-3.160117467E-1,-7.092801225E0,-8.210302077E-1,7.147152107E0
2.674642500E0,-1.779937468E0,-6.844029096E0,-3.937596881E-1,7.082651930E0
2.684671500E0,-3.186900930E0,-6.946980438E0,-4.734138219E-1,7.657740880E0
2.694700500E0,-3.735240535E0,-7.342815303E0,-1.038659481E0,8.303479508E0
2.704730500E0,-3.192838778E0,-7.612698804E0,-1.912430551E0,8.473770893E0
2.714759500E0,-2.347575516E0,-7.748427297E0,-2.948122570E0,8.616302169E0
2.724788500E0,-1.650221374E0,-7.959793033E0,-3.824845899E0,8.983929088E0
2.734818500E0,-1.328720408E0,-8.103043385E0,-4.173460112E0,9.211003166E0
2.744847500E0,-1.196429493E0,-7.918989993E0,-3.472806972E0,8.729389114E0
2.754876500E0,-1.112029905E0,-7.629089718E0,-2.311820231E0,8.048859125E0
2.764906500E0,-8.760566001E-1,-7.556360296E0,-1.237244666E0,7.706933920E0
2.774935500E0,-2.006229392E-1,-7.232923901E0,-3.742899218E-1,7.245379953E0
2.784964500E0,4.766118103E-1,-6.602909803E0,-1.821398905E-1,6.622594026E0
2.794994500E0,8.335790634E-1,-5.441064545E0,-1.146365924E0,5.622649933E0
2.805023500E0,7.462921205E-1,-4.016329640E0,-2.600404150E0,4.842515612E0
2.815052500E0,3.310974169E-1,-2.272006393E0,-3.260369149E0,3.987686740E0
2.825083208E0,5.287104287E-1,1.965459681E-1,-3.193206860E0,3.242643225E0
2.835112208E0,1.407462230E0,3.226128146E0,-1.948442529E0,4.023093465E0
2.845141208E0,3.309735436E0,7.398349818E0,6.406159768E-1,8.130210177E0
2.855170208E0,5.737984986E0,1.245833261E1,3.830447239E0,1.424102697E1
2.865200208E0,5.779145876E0,1.768094167E1,7.041787777E0,1.988972097E1
2.875229208E0,1.292176041E0,2.146488074E1,9.881621375E0,2.366552905E1
2.885258208E0,-4.088189582E0,2.448789123E1,1.240673795E1,2.775422954E1
2.895288208E0,-6.168204988E0,2.706665367E1,1.367675085E1,3.094679317E1
2.905317208E0,-5.777830253E0,2.860987187E1,1.345644063E1,3.214006666E1
2.915346208E0,-5.605470707E0,2.917805283E1,1.340695213E1,3.259641751E1
2.925376208E0,-6.554010124E0,2.831758827E1,1.441523196E1,3.244441041E1
2.935405208E0,-6.850591426E0,2.594231830E1,1.575582544E1,3.111559925E1
2.945434208E0,-6.179769611E0,2.252279408E1,1.599985781E1,2.831009105E1
2.955464208E0,-5.502721095E0,1.868695278E1,1.442215741E1,2.423800256E1
2.965493208E0,-4.123409116E0,1.475116854E1,1.154575532E1,1.918082224E1
2.975522208E0,-2.289947697E0,1.090051624E1,7.721537706E0,1.355312729E1
2.985552208E0,-7.327015834E-1,6.979775131E0,3.737123631E0,7.951113477E0
2.995581208E0,4.441837370E-2,3.000059001E0,3.913781172E-1,3.025806311E0
3.005610208E0,-1.971757132E-1,-1.217223068E0,-2.178050701E0,2.502881363E0
3.015640208E0,-7.636681451E-1,-5.495552409E0,-3.997119783E0,6.838219934E0
3.025669208E0,-7.098882329E-1,-9.214009096E0,-5.401372476E0,1.070405202E1
3.035698208E0,4.036544926E-1,-1.218933262E1,-6.569368420E0,1.385277475E1
3.045728208E0,1.750591608E0,-1.460757846E1,-7.383268679E0,1.646081942E1
3.055757208E0,2.940157785E0,-1.633463196E1,-7.765957249E0,1.832415949E1
3.065786208E0,4.061104109E0,-1.715664757E1,-7.620492557E0,1.920716088E1
3.075815208E0,5.272159535E0,-1.729467694E1,-7.424538327E0,1.954546715E1
3.085845208E0,6.347184166E0,-1.707216817E1,-7.321401629E0,1.963029787E1
3.095874208E0,7.297939677E0,-1.627965410E1,-7.370931639E0,1.930330786E1
3.105903208E0,7.587218392E0,-1.526209122E1,-7.494133642E0,1.861879025E1
3.115933208E0,6.787581831E0,-1.418651695E1,-7.292719283E0,1.733529016E1
3.125962208E0,5.652754217E0,-1.284068321E1,-6.833438035E0,1.560553270E1
3.135991208E0,4.326607461E0,-1.125492768E1,-6.329724964E0,1.361830927E1
3.146021208E0,3.010378168E0,-9.661966041E0,-5.505537699E0,1.152071655E1
3.156050208E0,1.574309605E0,-8.401479424E0,-4.262543027E0,9.551574755E0
3.166079208E0,-3.756529078E-2,-7.229606776E0,-2.647858399E0,7.699336295E0
3.176109208E0,-1.367014408E0,-5.832757242E0,-1.070493624E0,6.085699798E0
3.186138208E0,-2.148822955E0,-4.633758191E0,-8.967713848E-2,5.108541578E0
3.196167208E0,-2.377989223E0,-3.973505217E0,2.400621164E-1,4.636939322E0
3.206197208E0,-2.240612400E0,-3.728196979E0,2.599002573E-1,4.357447049E0
3.216226208E0,-2.165365166E0,-3.723621533E0,4.244327196E-1,4.328314540E0
3.226255208E0,-2.279762140E0,-3.777508303E0,6.135673419E-1,4.454587442E0
3.236285208E0,-2.297223680E0,-3.936318680E0,5.348725900E-1,4.588892031E0
3.246314208E0,-2.073372677E0,-4.152513632E0,2.984079731E-1,4.650945177E0
3.256343208E0,-1.718311908E0,-3.997334375E0,-3.481917518E-1,4.364918718E0
3.266372208E0,-1.990009508E0,-3.950878247E0,-1.328201175E0,4.618841318E0
3.276402208E0,-2.832956103E0,-4.165757575E0,-1.679439326E0,5.310338304E0
3.286431208E0,-3.747914375E0,-4.458913579E0,-7.004987741E-1,5.866810974E0
3.296460208E0,-5.118931494E0,-5.271183050E0,8.309463546E-1,7.394545438E0
3.306490208E0,-6.195368228E0,-5.924797679E0,1.539686779E0,8.709560861E0
3.316519208E0,-5.970035248E0,-6.187668030E0,7.374216020E-3,8.598174858E0
3.326548208E0,-4.341248304E0,-6.211759143E0,-3.408224475E0,8.309535640E0
3.336578208E0,-2.196215369E0,-5.463060016E0,-6.655228935E0,8.885969776E0
3.346607208E0,-1.083047742E0,-3.958648612E0,-8.014616527E0,9.004330587E0
3.356636208E0,-7.552311245E-1,-1.917699038E0,-8.235835991E0,8.489813786E0
3.366666208E0,1.087546370E0,1.534613442E0,-8.357839900E0,8.566871267E0
3.376695208E0,3.716821806E0,5.765076891E0,-6.722718083E0,9.604468455E0
3.386724208E0,4.882191474E0,9.082087140E0,-1.469281040E0,1.041531983E1
3.396754208E0,4.912817143E0,1.192238735E1,6.887294399E0,1.461895743E1
3.406783208E0,4.896430905E0,1.459473681E1,1.423306547E1,2.096572276E1
3.416812208E0,4.881783923E0,1.666347118E1,1.656521925E1,2.399811607E1
3.426842208E0,4.595194342E0,1.914067099E1,1.472072676E1,2.458009140E1
3.436871208E0,3.339460342E0,2.184556254E1,1.157146670E1,2.494552945E1
3.446900208E0,1.579151684E0,2.421215291E1,9.086711118E0,2.590927223E1
3.456930208E0,-1.120570640E-1,2.562541792E1,8.025930889E0,2.685312211E1
3.466959208E0,-2.294390704E0,2.540563278E1,8.475425652E0,2.688016454E1
3.476988208E0,-5.010913541E0,2.419666247E1,9.843579390E0,2.659856734E1
3.487018208E0,-7.626237447E0,2.158948958E1,1.032540867E1,2.511731718E1
3.497047208E0,-8.379489216E0,1.825781159E1,8.842274700E0,2.194878916E1
3.507076208E0,-7.781408517E0,1.440186991E1,5.222098598E0,1.718238892E1
3.517105208E0,-6.199933149E0,9.608231299E0,1.016809460E0,1.148003403E1
3.527135208E0,-4.333774393E0,4.356344646E0,-2.213903196E0,6.531516403E0
3.537164208E0,-2.883971890E0,-1.038516955E0,-4.183568194E0,5.186333403E0
3.547193208E0,-2.027735305E0,-6.270047697E0,-4.766887597E0,8.133168260E0
3.557223208E0,-1.359415366E0,-1.068239873E1,-3.968327508E0,1.147646618E1
3.567252208E0,-6.566320851E-1,-1.408804984E1,-2.709512025E0,1.436125933E1
3.577281208E0,5.733189100E-1,-1.637691084E1,-2.119052587E0,1.652338606E1
3.587311208E0,2.423565200E0,-1.745988768E1,-2.557740526E0,1.781188880E1
3.597340208E0,5.010808876E0,-1.761060200E1,-3.812900330E0,1.870239871E1
3.607369208E0,7.552778292E0,-1.725155022E1,-5.911588234E0,1.973847310E1
3.617399208E0,9.461316497E0,-1.660521186E1,-8.221687483E0,2.080494451E1
3.627428208E0,1.009597562E1,-1.592681673E1,-9.527945520E0,2.112756401E1
3.637457208E0,9.173980812E0,-1.546683499E1,-9.383423399E0,2.028382467E1
3.647487208E0,7.493454781E0,-1.499782514E1,-7.847773245E0,1.851146046E1
3.657516208E0,5.651036890E0,-1.453466251E1,-5.275817553E0,1.646283339E1
3.667545208E0,4.130637444E0,-1.419665954E1,-2.614621655E0,1.501477786E1
3.677574208E0,2.903286998E0,-1.351732885E1,-4.343082283E-1,1.383242127E1
3.687604208E0,1.795355845E0,-1.255900997E1,1.348788198E0,1.275818418E1
3.697633208E0,7.370429948E-1,-1.146940004E1,2.600325213E0,1.178355044E1
3.707662208E0,6.065959990E-2,-1.028987631E1,3.197418317E0,1.077537554E1
3.717692208E0,3.412961304E-1,-9.140716587E0,3.096907019E0,9.657122545E0
3.727721208E0,8.951610616E-1,-8.314365267E0,2.642969542E0,8.770135182E0
3.737750208E0,1.044432291E0,-7.448232999E0,2.196128537E0,7.835176716E0
3.747780208E0,8.154056248E-1,-6.396569164E0,2.151212712E0,6.797698106E0
3.757809208E0,2.084071912E-1,-5.661744896E0,2.252638661E0,6.096980380E0
3.767838208E0,-4.317519718E-1,-5.013616124E0,2.322499878E0,5.542270481E0
3.777868208E0,-9.643116957E-1,-4.414416268E0,2.389211930E0,5.111291586E0
3.787897208E0,-1.244949396E0,-3.918874097E0,2.337366423E0,4.729773249E0
3.797926208E0,-1.671591486E0,-3.240788870E0,2.184867823E0,4.250950247E0
3.807956208E0,-2.386080016E0,-2.550793449E0,1.660826031E0,3.867592037E0
3.817985208E0,-2.800252626E0,-2.067745609E0,9.351767743E-1,3.604378209E0
3.828014083E0,-2.300666374E0,-1.083695467E0,-2.234069073E-1,2.552914467E0
3.838044083E0,-1.935128126E0,2.233630532E-1,-1.888970791E0,2.713452150E0
3.848073083E0,-2.513064875E0,1.105475176E0,-3.132806877E0,4.165579114E0
3.858102083E0,-3.499683114E0,2.400750972E0,-2.422297669E0,4.886605481E0
3.868131083E0,-5.239132122E0,3.586786162E0,-7.681855577E-1,6.395596095E0
3.878161083E0,-7.403576059E0,4.336541296E0,1.023678184E0,8.640974823E0
3.888190083E0,-8.514681519E0,5.848337148E0,2.970571493E0,1.074835540E1
3.898219083E0,-7.510369021E0,7.744974516E0,3.819951780E0,1.144475009E1
3.908249083E0,-4.256457538E0,9.613046481E0,2.902371324E0,1.090650506E1
3.918278083E0,1.399487943E-1,1.185519231E1,1.143567155E0,1.191104178E1
3.928307083E0,4.349240863E0,1.487903311E1,1.797951570E-1,1.550270456E1
3.938337083E0,7.484409138E0,1.774734265E1,8.359854850E-1,1.927909290E1
3.948366083E0,9.535766171E0,2.034096403E1,2.842328020E0,2.264430354E1
3.958395083E0,9.369481298E0,2.211139100E1,5.653012664E0,2.467098182E1
3.968425083E0,6.815064329E0,2.267920008E1,9.072494198E0,2.535944339E1
3.978454083E0,3.390542202E0,2.215410608E1,1.248950879E1,2.565712421E1
3.988483083E0,1.275512792E0,2.070807562E1,1.456932715E1,2.535185638E1
3.998513083E0,1.088161863E0,1.880218386E1,1.454709837E1,2.379756889E1
4.008542083E0,1.155999943E0,1.722940096E1,1.302325550E1,2.162854080E1
4.018571083E0,7.062294839E-1,1.546576495E1,1.021684225E1,1.854919165E1
4.028601083E0,2.351205979E-1,1.294029988E1,6.604102635E0,1.452999705E1
4.038630083E0,-3.809128437E-1,9.528847160E0,3.252076043E0,1.007571444E1
4.048659083E0,-1.085642517E0,5.506824086E0,9.564568385E-1,5.693728205E0
4.058689083E0,-1.627014506E0,1.071511624E0,-5.608242872E-1,2.027273352E0
4.068718083E0,-1.855433208E0,-3.433288565E0,-1.762370386E0,4.282061669E0
4.078747083E0,-1.580856440E0,-7.422465490E0,-2.591892066E0,8.019351938E0
4.088777083E0,-9.921247078E-1,-1.039837724E1,-2.886393807E0,1.083705818E1
4.098806083E0,-1.012825313E0,-1.262653244E1,-2.716327540E0,1.295505971E1
4.108835083E0,-1.329735192E0,-1.424864947E1,-2.549306502E0,1.453585811E1
4.118864083E0,-1.234894816E0,-1.510162959E1,-2.728230424E0,1.539569494E1
4.128894083E0,-4.447429867E-1,-1.536192308E1,-3.238235683E0,1.570581571E1
4.138923083E0,1.119030484E0,-1.509218283E1,-4.075776528E0,1.567284805E1
4.148952083E0,3.062152631E0,-1.456319693E1,-5.283654576E0,1.579178550E1
4.158982083E0,4.787529730E0,-1.351665876E1,-6.689209444E0,1.582295889E1
4.169011083E0,5.760771586E0,-1.219256964E1,-8.008989167E0,1.568404129E1
4.179040083E0,5.320114889E0,-1.108326863E1,-8.555913745E0,1.497818834E1
4.189070083E0,4.038901062E0,-1.015627328E1,-7.970317436E0,1.352732674E1
4.199099083E0,2.415126936E0,-9.373717021E0,-6.761176389E0,1.180732464E1
4.209128083E0,2.945479336E-1,-8.872825817E0,-5.210274943E0,1.029372437E1
4.219158083E0,-1.737977995E0,-8.427187877E0,-3.432909957E0,9.264066807E0
4.229187083E0,-2.911524847E0,-8.028223583E0,-1.687754652E0,8.705048339E0
4.239216083E0,-3.251861450E0,-7.820346295E0,-4.605655888E-1,8.482012717E0
4.249246083E0,-2.769213851E0,-7.840575907E0,-1.144533992E-2,8.315245451E0
4.259275083E0,-1.970080297E0,-8.036082240E0,-1.034331518E-1,8.274692294E0
4.269304083E0,-9.557105877E-1,-7.915843606E0,-6.365588862E-1,7.998698015E0
4.279334083E0,-2.693100353E-1,-7.599005794E0,-1.674945156E0,7.786068214E0
4.289363083E0,-2.665176974E-1,-7.375079654E0,-2.706759741E0,7.860622105E0
4.299392083E0,-5.228078838E-1,-6.927012781E0,-3.465423985E0,7.763117772E0
4.309421083E0,-9.648206958E-1,-6.679714150E0,-3.869868290E0,7.779803384E0
4.319451083E0,-1.056372013E0,-6.491793410E0,-3.865307170E0,7.628886093E0
4.329480083E0,-7.681781025E-1,-6.553740567E0,-3.535720673E0,7.486182852E0
4.339509083E0,-7.287150979E-2,-6.773331581E0,-2.676101620E0,7.283189607E0
4.349539083E0,8.501358931E-1,-6.763172629E0,-1.474273100E0,6.974002884E0
4.359568083E0,1.587527967E0,-6.316722511E0,-3.638839245E-1,6.523315096E0
4.369597083E0,1.628440642E0,-5.528338332E0,1.331127414E-1,5.764725721E0
4.379627083E0,1.060696906E0,-4.356908902E0,-2.119872952E-1,4.489172721E0
4.389656083E0,-1.925971971E-1,-3.069664257E0,-8.540583515E-1,3.192075813E0
4.399685083E0,-2.067680705E0,-1.661409144E0,-9.547629002E-1,2.819070066E0
4.409715083E0,-3.849809124E0,-2.398463541E-1,-1.171273309E-1,3.859051098E0
4.419744083E0,-3.874993667E0,1.245345837E0,1.634492949E0,4.386117802E0
4.429773083E0,-7.923689838E-1,3.505810411E0,3.448184639E0,4.980816454E0
4.439803083E0,4.099014532E0,6.691938339E0,4.255621094E0,8.927164710E0
4.449832083E0,8.140677234E0,1.039701133E1,3.570315140E0,1.367902119E1
4.459861083E0,1.001938762E1,1.447458822E1,2.574179973E0,1.779124040E1
4.469891083E0,9.866485273E0,1.830112309E1,2.149829991E0,2.090216273E1
4.479920083E0,8.554455450E0,2.115190735E1,2.356171800E0,2.293759879E1
4.489949083E0,7.027282004E0,2.309831914E1,3.176327703E0,2.435167545E1
4.499978083E0,5.124838936E0,2.459866088E1,5.113891779E0,2.564195742E1
4.510008083E0,1.870434825E0,2.533412367E1,9.362292146E0,2.707339769E1
4.520037083E0,-2.323677799E0,2.510878835E1,1.494737186E1,2.931338698E1
4.530066083E0,-5.525853850E0,2.398568323E1,1.869450972E1,3.090845766E1
4.540096083E0,-7.395676471E0,2.233856468E1,1.922794536E1,3.038784931E1
4.550125083E0,-7.951705164E0,1.998606143E1,1.697231643E1,2.739948524E1
4.560154083E0,-7.375787752E0,1.717568376E1,1.354616732E1,2.308473536E1
4.570184083E0,-6.380333201E0,1.380863597E1,1.007168278E1,1.824351592E1
4.580213083E0,-5.127177238E0,9.860753832E0,6.669061693E0,1.296143497E1
4.590242083E0,-4.163107032E0,5.583698600E0,3.513136095E0,7.800722751E0
4.600272083E0,-3.560018778E0,1.052073140E0,8.258253631E-1,3.802969777E0
4.610301083E0,-2.468451204E0,-3.251962899E0,-1.667892537E0,4.410258446E0
4.620330083E0,-9.009955595E-1,-6.807005112E0,-3.910690626E0,7.901937279E0
4.630360083E0,2.548039703E-1,-9.726915743E0,-5.236006200E0,1.104959619E1
4.640389083E0,8.845604981E-1,-1.209287461E1,-5.712331497E0,1.340338744E1
4.650418083E0,1.255864393E0,-1.384514013E1,-5.687046382E0,1.502023959E1
4.660448083E0,1.804733756E0,-1.513611179E1,-5.444262972E0,1.618638142E1
4.670477083E0,2.884221274E0,-1.610036209E1,-5.414571980E0,1.722956708E1
4.680506083E0,4.213459745E0,-1.649638348E1,-5.817568515E0,1.799244326E1
4.690535083E0,5.589228312E0,-1.637926960E1,-6.544165167E0,1.850259559E1
4.700565083E0,6.698630478E0,-1.589060376E1,-7.508338283E0,1.880845772E1
4.710594083E0,7.097901167E0,-1.508779625E1,-8.470366641E0,1.870210971E1
4.720623083E0,6.607404558E0,-1.427422870E1,-8.989641491E0,1.811698248E1
4.730653083E0,5.315699072E0,-1.347220706E1,-8.926405023E0,1.701286943E1
4.740682083E0,3.915168132E0,-1.265578723E1,-8.433074854E0,1.570395630E1
4.750711083E0,2.791315742E0,-1.191613901E1,-7.829601853E0,1.452888425E1
4.760741083E0,1.617376979E0,-1.100065449E1,-6.791608808E0,1.302905437E1
4.770770083E0,2.936888315E-1,-9.943199573E0,-5.445043575E0,1.134028088E1
4.780799083E0,-1.196280827E0,-9.021994720E0,-4.197659399E0,1.002236604E1
4.790829083E0,-2.296986429E0,-8.395190159E0,-3.336203150E0,9.321245406E0
4.800858083E0,-2.664622366E0,-8.179633723E0,-2.817106056E0,9.052221094E0
4.810887083E0,-2.605958421E0,-8.185511929E0,-2.578249927E0,8.968890540E0
4.820917083E0,-2.178003484E0,-8.286544799E0,-2.310101295E0,8.873955819E0
4.830945958E0,-1.621242866E0,-8.338922403E0,-2.046751181E0,8.738148870E0
4.840974958E0,-1.103409355E0,-8.186004850E0,-1.915974694E0,8.479336450E0
4.851004958E0,-8.653162882E-1,-8.018586786E0,-1.848646345E0,8.274297531E0
4.861033958E0,-8.912087823E-1,-7.710292341E0,-1.381414931E0,7.883601226E0
4.871062958E0,-1.077618310E0,-7.276209669E0,-7.421680793E-1,7.392922415E0
4.881092958E0,-1.049349069E0,-6.728752994E0,-3.273429197E-1,6.817947177E0
4.891121958E0,-6.151367345E-1,-5.946179193E0,-5.851396412E-1,6.006482214E0
4.901150958E0,-3.225068338E-1,-5.351041982E0,-9.603215557E-1,5.446088362E0
4.911179958E0,-1.530907770E-1,-4.360897872E0,-1.138934113E0,4.509771386E0
4.921209958E0,-3.205331062E-1,-3.031904107E0,-7.045120105E-1,3.129140643E0
4.931238958E0,-6.676592030E-1,-9.820989257E-1,4.465819725E-1,1.268748426E0
4.941267958E0,-8.492227042E-1,1.472070454E0,1.433537303E0,2.223330795E0
4.951297958E0,-3.433197787E-1,3.841559873E0,2.902459032E0,4.826978264E0
4.961326958E0,2.170308549E0,6.942828915E0,5.045791597E0,8.852859729E0
4.971355958E0,6.361226839E0,1.027192302E1,6.638752066E0,1.378588548E1
4.981385958E0,1.012506318E1,1.355260276E1,6.294591969E0,1.805025856E1
4.991414958E0,1.103313577E1,1.690154992E1,6.415230553E0,2.117894374E1
5.001443958E0,8.149377891E0,2.024233787E1,9.274085144E0,2.371019312E1
5.011473958E0,2.831737543E0,2.257564589E1,1.294337669E1,2.617650712E1
5.021502958E0,-1.369986840E0,2.465167876E1,1.532013887E1,2.905664786E1
5.031531958E0,-3.695077180E0,2.642684899E1,1.610590525E1,3.116780594E1
5.041561958E0,-5.363128762E0,2.702654878E1,1.563216267E1,3.167904669E1
5.051590958E0,-6.521205490E0,2.641112934E1,1.459547239E1,3.087234504E1
5.061619958E0,-6.701179864E0,2.460622952E1,1.323441483E1,2.873190002E1
5.071649958E0,-6.344707285E0,2.182142056E1,1.149979972E1,2.546910087E1
5.081678958E0,-5.672572185E0,1.808148062E1,9.057255185E0,2.100361607E1
5.091707958E0,-4.505543370E0,1.417674275E1,5.846795822E0,1.598327180E1
5.101737958E0,-3.080030785E0,1.041796542E1,1.940002073E0,1.103558794E1
5.111766958E0,-1.785479021E0,6.493375082E0,-1.922607191E0,7.003447273E0
5.121795958E0,-1.170282352E0,2.364810476E0,-4.479798371E0,5.199084806E0
5.131824958E0,-1.416656099E0,-1.789311140E0,-5.250195054E0,5.724779206E0
5.141854958E0,-1.763745066E0,-5.688952575E0,-5.392698716E0,8.034685899E0
5.151883958E0,-1.455383086E0,-9.103693771E0,-5.644758149E0,1.081011909E1
5.161912958E0,-3.344528416E-1,-1.184663199E1,-6.334176450E0,1.343786960E1
5.171942958E0,1.009049035E0,-1.370246573E1,-7.236884805E0,1.552894873E1
5.181971958E0,1.593665643E0,-1.504756858E1,-8.211023916E0,1.721598106E1
5.192000958E0,1.701508180E0,-1.598660217E1,-8.816985492E0,1.833591591E1
5.202030958E0,2.325988473E0,-1.610794008E1,-9.498367964E0,1.884396323E1
5.212059958E0,2.616810268E0,-1.624081923E1,-1.030315417E1,1.941048405E1
5.222088958E0,2.805812159E0,-1.604000596E1,-1.078012909E1,1.952858306E1
5.232118958E0,3.503948073E0,-1.554189920E1,-1.021752520E1,1.892686198E1
5.242147958E0,4.154327730E0,-1.499950096E1,-8.486315507E0,1.772740868E1
5.252176958E0,3.895805662E0,-1.443476634E1,-6.419081529E0,1.627096767E1
5.262206958E0,3.089893869E0,-1.367152928E1,-4.988212895E0,1.487751407E1
5.272235958E0,1.816883393E0,-1.224977412E1,-4.217990168E0,1.308241080E1
5.282264958E0,3.123100206E-1,-1.045044787E1,-3.966016688E0,1.118206987E1
5.292293958E0,-1.244188673E0,-8.708600333E0,-3.709634993E0,9.547204670E0
5.302323958E0,-2.535564376E0,-7.051568999E0,-3.439216472E0,8.245115038E0
5.312352958E0,-3.214742155E0,-5.736636618E0,-3.548227867E0,7.472180928E0
5.322381958E0,-3.323631929E0,-4.698290986E0,-3.915338870E0,6.960628266E0
5.332411958E0,-3.161781584E0,-4.008849297E0,-4.117399347E0,6.559017675E0
5.342440958E0,-2.847832589E0,-3.829933854E0,-3.570727369E0,5.960590384E0
5.352469958E0,-2.199340413E0,-4.141650674E0,-2.406934403E0,5.271024737E0
5.362499958E0,-7.169185596E-1,-4.674275887E0,-1.214984170E0,4.882521257E0
5.372528958E0,6.058819078E-1,-5.297643455E0,-3.713420480E-1,5.345092513E0
5.382557958E0,1.390013846E0,-5.761071548E0,-1.815554613E-1,5.929169103E0
5.392587958E0,1.363776512E0,-5.868505365E0,-7.363784587E-1,6.069719501E0
5.402616958E0,8.228426984E-1,-5.616719581E0,-1.797796619E0,5.954551338E0
5.412645958E0,-1.306633428E-3,-5.285883535E0,-3.106583576E0,6.131184874E0
5.422675958E0,-6.876664015E-1,-4.793770756E0,-4.423891096E0,6.559263340E0
5.432704958E0,-1.041662684E0,-4.117076581E0,-5.296147152E0,6.788560627E0
5.442733958E0,-1.190104194E0,-3.846890779E0,-5.128621500E0,6.520557886E0
5.452763958E0,-3.439359290E-1,-3.513176733E0,-3.753069280E0,5.152303534E0
5.462792958E0,1.130008923E0,-3.005551291E0,-1.292954451E0,3.461501111E0
5.472821958E0,2.571237069E0,-1.909969604E0,9.160949707E-2,3.204315255E0
5.482850958E0,3.891452994E0,9.774474657E-1,2.468700296E-1,4.019919746E0
5.492880958E0,4.056571348E0,5.165785818E0,6.091114712E-1,6.596372564E0
5.502909958E0,2.164983489E0,9.580211442E0,2.051231902E0,1.003370107E1
5.512938958E0,-8.529330549E-1,1.402699790E1,5.458723721E0,1.507586911E1
5.522968958E0,-2.700737986E0,1.778364918E1,9.460839365E0,2.032386886E1
5.532997958E0,-1.890631400E0,2.030891427E1,1.172540284E1,2.352682634E1
5.543026958E0,-1.178972265E-2,2.173491451E1,1.312308267E1,2.538940619E1
5.553056958E0,9.531858330E-1,2.275216631E1,1.615524406E1,2.792062940E1
5.563085958E0,3.610980186E-1,2.301092900E1,2.121392292E1,3.129958100E1
5.573114958E0,-6.025245827E-1,2.229253774E1,2.574116472E1,3.405771331E1
5.583144958E0,-9.138731018E-1,2.119413126E1,2.705630877E1,3.438124792E1
5.593173958E0,-6.474583885E-1,2.001327905E1,2.500667959E1,3.203567644E1
5.603202958E0,-6.733943713E-1,1.880704524E1,2.122397545E1,2.836574597E1
5.613232958E0,-1.388898928E0,1.719193084E1,1.722479102E1,2.437590925E1
5.623261958E0,-2.094512115E0,1.511143654E1,1.328962892E1,2.023256613E1
5.633290958E0,-2.752955083E0,1.247000950E1,9.374877108E0,1.584197650E1
5.643320958E0,-2.893783518E0,9.374325131E0,5.523489820E0,1.125881408E1
5.653349958E0,-2.601572424E0,5.775242275E0,2.042099136E0,6.655206330E0
5.663378958E0,-2.193973838E0,1.773425424E0,-4.395743769E-1,2.855133022E0
5.673407958E0,-1.867414007E0,-2.325286222E0,-1.842788604E0,3.505718319E0
5.683437958E0,-1.741587920E0,-6.362509133E0,-2.613562140E0,7.095446287E0
5.693466958E0,-1.613337284E0,-9.962379609E0,-3.475194682E0,1.067374549E1
5.703495958E0,-1.188555705E0,-1.270828237E1,-5.174852511E0,1.377287929E1
5.713525958E0,-4.219362509E-1,-1.459365858E1,-7.476195554E0,1.640263396E1
5.723554958E0,6.510316220E-1,-1.573100050E1,-9.705807295E0,1.849569988E1
5.733583958E0,2.161861807E0,-1.622017856E1,-1.140804872E1,1.994771702E1
5.743613958E0,3.412933822E0,-1.645794038E1,-1.219146218E1,2.076399935E1
5.753642958E0,3.855835265E0,-1.657593719E1,-1.199021505E1,2.081812711E1
5.763671958E0,3.735052255E0,-1.675875741E1,-1.130472374E1,2.055731850E1
5.773701958E0,3.617675248E0,-1.677984831E1,-1.043051120E1,2.008597639E1
5.783730958E0,3.630829436E0,-1.627109143E1,-9.349621230E0,1.911404604E1
5.793759958E0,3.274011580E0,-1.548470174E1,-8.017899739E0,1.774209278E1
5.803789958E0,2.429942319E0,-1.434799366E1,-7.047936709E0,1.616919768E1
5.813818958E0,1.199786087E0,-1.309430619E1,-6.155700717E0,1.451871181E1
5.823847958E0,-1.318303008E-1,-1.164163329E1,-4.990368179E0,1.266683778E1
5.833878708E0,-1.361204907E0,-1.017346292E1,-3.676462569E0,1.090268791E1
5.843907708E0,-2.258025116E0,-9.078252536E0,-2.226272981E0,9.616113452E0
5.853936708E0,-2.550216329E0,-8.276127985E0,-7.782032999E-1,8.695027206E0
5.863966708E0,-2.261231875E0,-7.508302031E0,2.849722409E-1,7.846590225E0
5.873995708E0,-1.908958328E0,-7.051761373E0,6.276719955E-1,7.332491561E0
5.884024708E0,-1.774384221E0,-6.761497402E0,2.655951530E-1,6.995486206E0
5.894053708E0,-1.653302711E0,-6.506710827E0,-2.990032196E-1,6.720126380E0
5.904083708E0,-1.481495143E0,-6.423062314E0,-7.655244899E-1,6.636006713E0
5.914112708E0,-1.271003565E0,-6.429728140E0,-9.819726259E-1,6.627301430E0
5.924141708E0,-7.845313029E-1,-6.335140656E0,-1.059231886E0,6.470816693E0
5.934171708E0,-2.206300646E-1,-6.357720848E0,-1.242415212E0,6.481734920E0
5.944200708E0,3.287864511E-1,-6.292262439E0,-1.374807431E0,6.449090060E0
5.954229708E0,9.048639312E-1,-5.975700030E0,-1.512395777E0,6.230177411E0
5.964259708E0,1.040312928E0,-5.379712635E0,-1.895151005E0,5.797857911E0
5.974288708E0,7.850762634E-1,-4.564170477E0,-2.003542596E0,5.046006324E0
5.984317708E0,2.269275159E-1,-3.533888156E0,-1.481195619E0,3.838463502E0
5.994347708E0,-5.582979977E-2,-2.380793256E0,-8.557136983E-1,2.530521572E0
6.004376708E0,-1.677174407E-1,-1.207927750E0,-1.322657722E-1,1.226667364E0
6.014405708E0,1.076218779E0,9.731573635E-1,6.420907907E-1,1.586682923E0
6.024435708E0,4.632360122E0,4.177054396E0,-1.453632429E-2,6.237527958E0
6.034464708E0,9.235126900E0,7.935678531E0,-2.088044364E0,1.235404759E1
6.044493708E0,1.219894778E1,1.306501631E1,-3.710576980E0,1.825588562E1
6.054523708E0,1.067165155E1,1.801254428E1,-3.038380483E0,2.115579481E1
6.064552708E0,5.539952071E0,2.176934760E1,7.872679460E-1,2.247699612E1
6.074581708E0,7.489064106E-1,2.520092410E1,6.066742347E0,2.593169487E1
6.084610708E0,-2.452050495E0,2.802620982E1,1.047017170E1,3.001841908E1
6.094640708E0,-5.363840953E0,2.921278296E1,1.438589531E1,3.300168877E1
6.104669708E0,-7.738723258E0,2.940824602E1,1.756531415E1,3.511798731E1
6.114698708E0,-9.298249347E0,2.861461513E1,1.796484621E1,3.504267883E1
6.124728708E0,-9.800288944E0,2.654251159E1,1.704609777E1,3.303210611E1
6.134757708E0,-9.215092585E0,2.351824746E1,1.617703079E1,2.999536997E1
6.144786708E0,-8.385246384E0,1.948629991E1,1.475131355E1,2.583852729E1
6.154816708E0,-7.589648495E0,1.476490949E1,1.227179590E1,2.064466738E1
6.164845708E0,-7.501421612E0,9.772633368E0,8.978099087E0,1.524407926E1
6.174874708E0,-6.953659127E0,4.894715917E0,5.236646470E0,9.986695421E0
6.184904708E0,-5.643336107E0,1.983562660E-1,1.613121376E0,5.872712167E0
6.194933708E0,-3.865697764E0,-3.811944895E0,-1.208618014E0,5.561951149E0
6.204962708E0,-2.003632059E0,-6.916615262E0,-2.868560384E0,7.751306134E0
6.214992708E0,-4.795893587E-1,-9.483700808E0,-3.603270632E0,1.015648297E1
6.225021708E0,6.744099596E-1,-1.160939642E1,-4.095381072E0,1.232903322E1
6.235050708E0,1.807345853E0,-1.334620190E1,-4.587673361E0,1.422794261E1
6.245080708E0,2.962801128E0,-1.459460817E1,-5.158070417E0,1.576028136E1
6.255109708E0,3.734586232E0,-1.555958352E1,-5.473497296E0,1.691173990E1
6.265138708E0,4.450744434E0,-1.615259995E1,-5.471748978E0,1.762542618E1
6.275167708E0,5.219567923E0,-1.630349437E1,-5.340274919E0,1.793227130E1
6.285197708E0,5.993906506E0,-1.620861744E1,-5.223582621E0,1.805358718E1
6.295226708E0,6.381099186E0,-1.641450960E1,-5.222120233E0,1.836913422E1
6.305255708E0,6.726808210E0,-1.642766584E1,-5.204846388E0,1.849888049E1
6.315285708E0,6.568536361E0,-1.632178913E1,-4.944748787E0,1.827558511E1
6.325314708E0,5.747154590E0,-1.607869933E1,-4.393917099E0,1.763124685E1
6.335343708E0,4.808102866E0,-1.553929953E1,-3.581096236E0,1.665568772E1
6.345373708E0,4.145788164E0,-1.475109603E1,-2.796624429E0,1.557573439E1
6.355402708E0,3.461717435E0,-1.378120551E1,-2.125169944E0,1.436737485E1
6.365431708E0,2.821421301E0,-1.263606808E1,-1.313504491E0,1.301368237E1
6.375461708E0,2.225324855E0,-1.142449810E1,-4.723638082E-1,1.164879200E1
6.385490708E0,1.463603540E0,-1.025308797E1,4.964356256E-1,1.036891492E1
6.395519708E0,6.093718185E-1,-9.088047792E0,1.660931427E0,9.258652163E0
6.405549708E0,-4.661890022E-1,-8.070691910E0,2.934112057E0,8.600140327E0
6.415578708E0,-1.464827508E0,-7.203701856E0,4.074501835E0,8.404796563E0
6.425607708E0,-2.166846851E0,-6.405780868E0,4.605983332E0,8.181951861E0
6.435637708E0,-2.595859694E0,-5.441587871E0,4.139048663E0,7.313076640E0
6.445666708E0,-2.766474431E0,-4.175018980E0,2.962216991E0,5.818839554E0
6.455695708E0,-3.184794179E0,-2.621568148E0,1.790260727E0,4.496728476E0
6.465724708E0,-3.968476320E0,-9.118224102E-1,1.079170453E0,4.212461664E0
6.475754708E0,-5.151360737E0,7.947903889E-1,1.081429086E0,5.323316454E0
6.485783708E0,-6.608684514E0,1.891960765E0,1.744089943E0,7.091972664E0
6.495812708E0,-7.249555721E0,2.310436633E0,3.357288210E0,8.316583416E0
6.505842708E0,-6.469920146E0,2.282827250E0,4.184377449E0,8.036179539E0
6.515871708E0,-3.785172833E0,1.919628620E0,2.685978736E0,5.022647627E0
6.525900708E0,-4.942391190E-1,2.394647648E0,-2.596374249E-1,2.458865848E0
6.535930708E0,2.119219671E0,3.852499428E0,-2.744903467E0,5.183371384E0
6.545959708E0,3.989183649E0,6.094623041E0,-3.756478207E0,8.195678417E0
6.555988708E0,5.225479458E0,8.579956326E0,-3.007477364E0,1.048647730E1
6.566018708E0,5.930620337E0,1.085309182E1,-3.537951386E-1,1.237283438E1
6.576047708E0,6.454563603E0,1.326418885E1,2.946271049E0,1.504262644E1
6.586076708E0,6.867954149E0,1.521960536E1,4.029396998E0,1.717676400E1
6.596106708E0,7.791713065E0,1.717718065E1,2.599704823E0,1.904008384E1
6.606135708E0,9.052624190E0,1.943242132E1,3.163701810E-2,2.143758391E1
6.616164708E0,9.052268679E0,2.054540374E1,-2.291610938E0,2.256786795E1
6.626194708E0,7.756923886E0,2.105460500E1,-2.527591113E0,2.257996849E1
6.636223708E0,4.504710434E0,2.113468613E1,-4.059856679E-1,2.161324127E1
6.646252708E0,-3.852894846E-1,2.013942922E1,2.796013395E0,2.033624223E1
6.656282708E0,-4.379489972E0,1.846955213E1,5.220290054E0,1.968643484E1
6.666311708E0,-6.338803936E0,1.597370439E1,5.550186453E0,1.805946391E1
6.676340708E0,-6.733326101E0,1.282818303E1,4.469523937E0,1.516168211E1
6.686369708E0,-6.420949130E0,9.317554514E0,2.947835180E0,1.169338027E1
6.696399708E0,-5.989574888E0,5.562422921E0,1.743419268E0,8.357934364E0
6.706428708E0,-5.709021388E0,1.861331295E0,1.317151984E0,6.147549817E0
6.716457708E0,-5.366248836E0,-1.453318434E0,1.331028596E0,5.716677196E0
6.726487708E0,-4.604111638E0,-4.131234444E0,9.730655622E-1,6.261932497E0
6.736516708E0,-3.596611238E0,-6.415722304E0,1.920588148E-1,7.357580558E0
6.746545708E0,-2.308778071E0,-8.216588711E0,-5.202887571E-1,8.550642468E0
6.756575708E0,-8.106720114E-1,-9.600352761E0,-1.017336001E0,9.688082100E0
6.766604708E0,6.301794277E-1,-1.089550050E1,-1.205443268E0,1.098007973E1
6.776633708E0,1.798301818E0,-1.184320084E1,-9.254668880E-1,1.201464875E1
6.786663708E0,2.491055955E0,-1.233471662E1,-5.556667507E-1,1.259600569E1
6.796692708E0,2.811895602E0,-1.270222231E1,-5.843029777E-1,1.302284986E1
6.806721708E0,3.304114215E0,-1.288637218E1,-1.097249971E0,1.334839752E1
6.816751708E0,3.952576863E0,-1.287021749E1,-1.848030049E0,1.358972322E1
6.826779583E0,4.351602846E0,-1.276879754E1,-2.481034412E0,1.371620099E1
6.836808583E0,4.777267574E0,-1.249420878E1,-3.142949749E0,1.374065762E1
6.846838583E0,5.236274003E0,-1.220822147E1,-3.635943704E0,1.377241168E1
6.856867583E0,5.422522439E0,-1.193092077E1,-3.770601572E0,1.363701053E1
6.866896583E0,5.210132856E0,-1.159637116E1,-3.529740726E0,1.319395233E1
6.876925583E0,4.586647174E0,-1.099154687E1,-2.845974344E0,1.224544833E1
6.886955583E0,3.737296416E0,-1.026192194E1,-1.932825201E0,1.109099814E1
6.896984583E0,2.812664511E0,-9.721558524E0,-1.163460259E0,1.018692405E1
6.907013583E0,1.932558275E0,-9.333975835E0,-5.575670958E-1,9.548233734E0
6.917043583E0,1.343983980E0,-8.843463439E0,1.397706644E-1,8.946098276E0
6.927072583E0,9.064567128E-1,-8.344713485E0,8.033466196E-1,8.432157062E0
6.937101583E0,4.737610003E-1,-8.096743594E0,1.309916639E0,8.215691567E0
6.947131583E0,1.811534652E-1,-7.808226771E0,1.733529872E0,8.000396722E0
6.957160583E0,1.193823096E-1,-7.336237770E0,1.964265679E0,7.595589273E0
6.967189583E0,2.100849035E-1,-6.906118340E0,1.937119980E0,7.175725749E0
6.977219583E0,2.026025140E-1,-6.621139668E0,1.683568922E0,6.834833033E0
6.987248583E0,1.103121087E-1,-6.392365016E0,1.383966509E0,6.541396071E0
6.997277583E0,-1.744434929E-1,-6.177853478E0,1.109786767E0,6.279166409E0
7.007307583E0,-7.546591938E-1,-6.176408631E0,9.152493171E-1,6.289293712E0
7.017336583E0,-1.537711443E0,-6.312359319E0,9.756218188E-1,6.569800194E0
7.027365583E0,-1.808164463E0,-5.680285247E0,8.624567074E-1,6.023199381E0
7.037395583E0,-1.705081852E0,-4.226707782E0,4.926387361E-1,4.584218114E0
7.047424583E0,-1.623264541E0,-2.211774809E0,1.010094810E0,2.923564109E0
7.057453583E0,-1.640437082E0,6.365086001E-1,2.603664558E0,3.142490437E0
7.067482583E0,-1.392408427E0,5.077742538E0,4.128533908E0,6.690819287E0
7.077512583E0,-1.790820744E0,9.524740661E0,4.516146711E0,1.069220766E1
7.087541583E0,-2.148602076E0,1.341682223E1,3.681341486E0,1.407763776E1
7.097570583E0,-6.498604247E-1,1.745155540E1,2.201268825E0,1.760183765E1
7.107600583E0,1.463443180E0,2.060329819E1,1.142576929E0,2.068678429E1
7.117629583E0,3.328811977E0,2.303833373E1,9.112248248E-1,2.329541029E1
7.127658583E0,4.412872603E0,2.470759685E1,1.796879776E0,2.516282106E1
7.137688583E0,3.824448288E0,2.478878427E1,3.896209997E0,2.538288169E1
7.147717583E0,1.663131442E0,2.381094036E1,6.674897799E0,2.478469584E1
7.157746583E0,-8.313306628E-1,2.295643996E1,9.499530391E0,2.485820436E1
7.167776583E0,-2.599474443E0,2.231521558E1,1.181207845E1,2.538210612E1
7.177805583E0,-3.856382564E0,2.130814028E1,1.328189422E1,2.540309514E1
7.187834583E0,-5.276182419E0,1.908748822E1,1.398369342E1,2.424281314E1
7.197864583E0,-6.086156858E0,1.593796386E1,1.374215663E1,2.190677672E1
7.207893583E0,-5.676316742E0,1.253703964E1,1.248385921E1,1.858076090E1
7.217922583E0,-5.170668828E0,8.840739221E0,9.916531591E0,1.425594911E1
7.227952583E0,-4.947487038E0,5.040800414E0,6.341852090E0,9.492438293E0
7.237981583E0,-4.608633875E0,1.257656565E0,2.835037712E0,5.555055810E0
7.248010583E0,-4.014653243E0,-2.261455677E0,2.700244188E-2,4.607857591E0
7.258040583E0,-3.397101901E0,-5.558787122E0,-1.866682667E0,6.776792735E0
7.268069583E0,-2.615698128E0,-8.234511597E0,-2.746307091E0,9.065939586E0
7.278098583E0,-1.618081861E0,-9.953289528E0,-3.088661276E0,1.054637330E1
7.288128583E0,-5.284023535E-1,-1.130666501E1,-3.344597121E0,1.180280529E1
7.298157583E0,7.752874397E-1,-1.227257826E1,-3.969195819E0,1.292175542E1
7.308186583E0,2.374047031E0,-1.280115252E1,-4.920823735E0,1.391833724E1
7.318215583E0,3.736473713E0,-1.311252260E1,-6.092508688E0,1.493379212E1
7.328245583E0,4.615837644E0,-1.323341496E1,-7.371755512E0,1.583578252E1
7.338274583E0,4.768480963E0,-1.317979014E1,-8.362423532E0,1.632101119E1
7.348303583E0,4.594803163E0,-1.296297305E1,-8.987862768E0,1.642962457E1
7.358333583E0,4.321085351E0,-1.263538045E1,-9.132603575E0,1.617804271E1
7.368362583E0,3.967364472E0,-1.239410913E1,-8.780218785E0,1.569860388E1
7.378391583E0,3.821787221E0,-1.216892701E1,-7.778826386E0,1.493984545E1
7.388421583E0,3.639995824E0,-1.183842484E1,-6.210793183E0,1.385538972E1
7.398450583E0,3.159023160E0,-1.133950064E1,-4.619926602E0,1.264545072E1
7.408479583E0,2.455994296E0,-1.085568798E1,-3.171628003E0,1.157311945E1
7.418509583E0,1.793964208E0,-1.029508267E1,-1.967059625E0,1.063373680E1
7.428538583E0,1.091365114E0,-9.725487853E0,-1.280123321E0,9.869899063E0
7.438567583E0,3.273522753E-1,-9.362655258E0,-1.023064665E0,9.424072066E0
7.448597583E0,3.783733249E-2,-8.981050762E0,-6.676616880E-1,9.005913423E0
7.458626583E0,1.334268831E-1,-8.553442712E0,-2.263293457E-1,8.557476844E0
7.468655583E0,4.397996409E-1,-8.275318145E0,-6.829547882E-4,8.286996717E0
7.478684583E0,7.777650511E-1,-7.775436755E0,2.043714429E-1,7.816911340E0
7.488714583E0,9.970885554E-1,-7.046914616E0,9.084719557E-1,7.174852785E0
7.498743583E0,7.472136417E-1,-6.239749764E0,1.713123089E0,6.513646910E0
7.508772583E0,3.597236305E-2,-5.472679271E0,2.287978501E0,5.931809002E0
7.518802583E0,-9.061254680E-1,-4.813573521E0,2.216633115E0,5.376338510E0
7.528831583E0,-1.962708858E0,-4.225272875E0,1.581626810E0,4.920030518E0
7.538860583E0,-2.921063118E0,-3.561727334E0,9.171018612E-1,4.696763478E0
7.548890583E0,-3.604790908E0,-3.358406197E0,-8.736668430E-2,4.927579793E0
7.558919583E0,-3.639849059E0,-3.200734858E0,-1.074190233E0,4.964583513E0
7.568948583E0,-3.341698363E0,-2.497449886E0,-1.406300973E0,4.402486378E0
7.578978583E0,-2.678049327E0,-1.664799360E0,-1.174628441E0,3.365004767E0
7.589007583E0,-1.438899492E0,-1.603850323E-1,-1.638027298E-1,1.457047165E0
7.599036583E0,1.076695911E0,2.624717458E0,5.281263649E-1,2.885711919E0
7.609066583E0,4.171503634E0,6.169141712E0,-5.374468267E-1,7.466498585E0
7.619095583E0,6.215035338E0,1.015182004E1,-3.366130954E0,1.237000210E1
7.629124583E0,6.097270076E0,1.398795721E1,-5.878639759E0,1.635231037E1
7.639154583E0,4.287629921E0,1.738736934E1,-5.246472716E0,1.866091796E1
7.649183583E0,3.315952781E0,2.043259224E1,-2.455863318E0,2.084508654E1
7.659212583E0,3.546265250E0,2.277463833E1,7.036422372E-1,2.305981918E1
7.669241583E0,4.451288225E0,2.574598049E1,3.559096672E0,2.636923676E1
7.679271583E0,2.402702773E0,2.812888927E1,6.470669174E0,2.896337259E1
7.689300583E0,-3.245584756E0,2.832191521E1,8.762042130E0,2.982344856E1
7.699329583E0,-8.662776874E0,2.730482713E1,8.588125471E0,2.990573836E1
7.709359583E0,-1.162488569E1,2.500587969E1,5.657053674E0,2.815020858E1
7.719388583E0,-1.136261468E1,2.140682023E1,1.959673861E0,2.431463111E1
7.729417583E0,-8.382914515E0,1.704606269E1,-3.828581393E-2,1.899586731E1
7.739447583E0,-5.179296395E0,1.227277941E1,6.189862490E-2,1.332103813E1
7.749476583E0,-3.092226908E0,7.336731859E0,1.444117840E0,8.091661014E0
7.759505583E0,-1.831406999E0,2.741572309E0,2.777466027E0,4.310984557E0
7.769535583E0,-1.150255639E0,-1.123316200E0,2.946808993E0,3.356875119E0
7.779564583E0,-1.294432335E0,-4.264041084E0,1.894999563E0,4.842378009E0
7.789593583E0,-2.015548245E0,-7.080212755E0,1.305595547E-1,7.362668890E0
7.799623583E0,-2.221931423E0,-9.776475574E0,-1.510968618E0,1.013900784E1
7.809652583E0,-1.601515091E0,-1.208368162E1,-2.491722538E0,1.244141846E1
7.819681583E0,1.161476299E-2,-1.378536171E1,-3.136225451E0,1.413761799E1
7.829711583E0,2.565007153E0,-1.471973391E1,-3.811033899E0,1.541991593E1
7.839740583E0,5.467989219E0,-1.486399992E1,-4.760453905E0,1.653781488E1
7.849769583E0,7.610499081E0,-1.467481560E1,-6.019166477E0,1.759261988E1
7.859798583E0,8.325865570E0,-1.451517024E1,-7.078741595E0,1.816917134E1
7.869828583E0,8.007654247E0,-1.397729071E1,-7.522038310E0,1.777830820E1
7.879857583E0,7.077786160E0,-1.333026239E1,-7.477214139E0,1.684338694E1
7.889886583E0,5.853107892E0,-1.287823403E1,-7.155609677E0,1.585277684E1
7.899916583E0,4.643805169E0,-1.224121380E1,-6.636761674E0,1.467851652E1
7.909945583E0,3.407421360E0,-1.134509291E1,-5.849325913E0,1.321121748E1
7.919974583E0,2.028747604E0,-1.042090774E1,-4.978026461E0,1.172569326E1
7.930004583E0,9.824911277E-1,-9.484917029E0,-4.135674235E0,1.039387999E1
7.940033583E0,4.562955134E-1,-8.588084541E0,-3.295954426E0,9.210142087E0
7.950062583E0,2.181204396E-1,-7.892039591E0,-2.403229168E0,8.252719301E0
7.960092583E0,4.255895913E-2,-7.375068544E0,-1.495680342E0,7.525324377E0
7.970121583E0,-2.675118703E-1,-7.106281396E0,-5.385988744E-1,7.131681893E0
7.980150583E0,-4.049335711E-1,-6.905777448E0,3.884334594E-1,6.928536202E0
7.990179583E0,-6.494908807E-1,-6.783822656E0,1.117178378E0,6.905807394E0
8.000209583E0,-8.656957725E-1,-6.703563189E0,1.613539159E0,6.949150827E0
8.010238583E0,-6.918475261E-1,-6.747743581E0,1.821613498E0,7.023458704E0
8.020267583E0,-2.436780345E-1,-6.945756031E0,1.691939796E0,7.153010981E0
8.030297583E0,9.716084361E-2,-7.314215986E0,1.538497748E0,7.474902745E0
8.040326583E0,1.753053725E-2,-7.711124400E0,1.345467126E0,7.827645151E0
8.050355583E0,-3.887752292E-1,-7.997432730E0,1.289960092E0,8.110121669E0
8.060385583E0,-6.960731627E-1,-7.882209837E0,1.158802514E0,7.997285354E0
8.070414583E0,-1.108851943E0,-7.527770920E0,8.382872415E-1,7.655038416E0
8.080443583E0,-1.463847076E0,-7.077948128E0,5.791503382E-1,7.250904294E0
8.090473583E0,-1.726517598E0,-6.683282706E0,2.396773696E-1,6.906849932E0
8.100502583E0,-1.560931760E0,-6.148836086E0,-5.054999793E-1,6.363978583E0
8.110531583E0,-1.053444897E0,-5.211712189E0,-1.705179793E0,5.583845289E0
8.120561583E0,-4.459450646E-1,-4.044577539E0,-2.442714246E0,4.745980126E0
8.130590583E0,3.371302816E-1,-1.957403972E0,-2.135874442E0,2.916684207E0
8.140619583E0,1.320122808E0,9.016652119E-1,-1.587068375E0,2.252667399E0
8.150649583E0,2.779561669E0,5.326373749E0,-6.065153074E-1,6.038549594E0
8.160678583E0,4.133842887E0,1.113467501E1,1.671449983E0,1.199430655E1
8.170707583E0,4.230949059E0,1.737855759E1,4.908396063E0,1.854744041E1
8.180736583E0,2.462644919E0,2.303857697E1,7.198546951E0,2.426231083E1
8.190766583E0,-3.044903930E-1,2.765800130E1,7.882806838E0,2.876102213E1
8.200795583E0,-2.837156158E0,3.111549032E1,7.355095040E0,3.209860769E1
8.210824583E0,-5.103014789E0,3.318510762E1,6.807865822E0,3.425841743E1
8.220854583E0,-6.928293321E0,3.418340509E1,6.532062015E0,3.548484558E1
8.230883583E0,-8.620313809E0,3.347099203E1,5.836803516E0,3.505260893E1
8.240912583E0,-9.220470854E0,3.128882986E1,5.442128738E0,3.306999730E1
8.250942583E0,-8.037920605E0,2.793108264E1,4.699672683E0,2.944215462E1
8.260971583E0,-6.499071440E0,2.338975606E1,3.149576983E0,2.447934749E1
8.271000583E0,-5.114511584E0,1.820904230E1,2.191168198E0,1.904018562E1
8.281030583E0,-3.793691642E0,1.274734644E1,1.620994944E0,1.339830445E1
8.291059583E0,-3.052339249E0,7.225560502E0,9.059079516E-1,7.895959010E0
8.301088583E0,-3.125756012E0,1.813751332E0,3.101901126E-1,3.627156247E0
8.311118583E0,-3.480899518E0,-3.091632246E0,-3.406587839E-2,4.655750410E0
8.321147583E0,-3.313386145E0,-7.310900030E0,-2.416361868E-2,8.026728529E0
8.331176583E0,-2.419138565E0,-1.065426777E1,4.638011456E-3,1.092545993E1
8.341205583E0,-8.252717780E-1,-1.306005437E1,-3.063660336E-1,1.308968883E1
8.351235583E0,1.286847619E0,-1.448261762E1,-9.405350896E-1,1.457006507E1
8.361264583E0,3.307575182E0,-1.533823601E1,-1.907233692E0,1.580629867E1
8.371293583E0,5.142775855E0,-1.591134266E1,-3.070727280E0,1.700142155E1
8.381323583E0,6.451963931E0,-1.621662111E1,-4.258561658E0,1.796502119E1
8.391352583E0,7.347831044E0,-1.606505894E1,-5.200925830E0,1.841538404E1
8.401381583E0,7.785686924E0,-1.564126211E1,-5.820923647E0,1.841600264E1
8.411411583E0,7.523933392E0,-1.517062089E1,-6.021642773E0,1.797268743E1
8.421440583E0,6.663996835E0,-1.436809288E1,-5.492606581E0,1.676364143E1
8.431469583E0,5.241067550E0,-1.361111819E1,-4.394623443E0,1.523299191E1
8.441499583E0,3.868833333E0,-1.288133539E1,-3.226963128E0,1.383148451E1
8.451528583E0,2.823249140E0,-1.200263453E1,-2.013496311E0,1.249352388E1
8.461557583E0,2.049777407E0,-1.106272151E1,-8.715350944E-1,1.128472278E1
8.471587583E0,1.434767411E0,-1.005551406E1,1.126452939E-1,1.015798255E1
8.481616583E0,1.336433470E0,-8.940288067E0,8.007609808E-1,9.075021945E0
8.491645583E0,1.290674476E0,-8.047839237E0,1.080301743E0,8.221958942E0
8.501674583E0,1.028705474E0,-7.236549760E0,9.122631441E-1,7.366010550E0
8.511704583E0,5.555158925E-1,-6.632244700E0,5.372737491E-1,6.677119944E0
8.521733583E0,-1.341197781E-1,-6.374041012E0,4.542175591E-2,6.375613702E0
8.531762583E0,-5.063194665E-1,-6.290720528E0,-4.956363112E-1,6.330495993E0
8.541792583E0,-4.260252088E-1,-6.510125601E0,-8.372050680E-1,6.577548566E0
8.551821583E0,-4.070276052E-2,-7.026432989E0,-7.097005373E-1,7.062300766E0
8.561850583E0,3.420474976E-2,-7.515086555E0,-3.249962859E-1,7.522188410E0
8.571880583E0,5.657181144E-4,-7.837957524E0,1.541004449E-1,7.839472266E0
8.581909583E0,-3.103585124E-2,-7.750103109E0,5.925447012E-1,7.772783970E0
8.591938583E0,-3.763811785E-1,-7.427832649E0,4.982171260E-1,7.454031188E0
8.601968583E0,-1.200470503E0,-6.989552261E0,-3.480655982E-1,7.100430965E0
8.611997583E0,-2.191979645E0,-6.290282571E0,-1.425751736E0,6.812136053E0
8.622026583E0,-3.729403260E0,-5.826667952E0,-1.998563692E0,7.200886399E0
8.632056583E0,-5.404517108E0,-5.850952608E0,-1.853705795E0,8.177938418E0
8.642085583E0,-5.834806691E0,-5.235665308E0,-8.144709474E-1,7.881657393E0
8.652114583E0,-6.008796440E0,-4.150066572E0,7.727194887E-1,7.343417639E0
8.662143583E0,-7.374835240E0,-2.747042379E0,2.238785437E0,8.182090007E0
8.672173583E0,-8.781534993E0,-9.448901689E-1,3.322031546E0,9.436316435E0
8.682202583E0,-7.945310065E0,1.963644705E0,3.190416861E0,8.784225196E0
8.692231583E0,-4.438692153E0,5.989272587E0,1.147611966E0,7.542571669E0
8.702261583E0,4.989345793E-1,1.012377095E1,-1.623987695E0,1.026533048E1
8.712290583E0,4.102762305E0,1.395949179E1,-2.687198465E0,1.479598274E1
8.722319583E0,5.695390359E0,1.786408348E1,-3.552823779E-1,1.875337771E1
8.732349583E0,6.368020134E0,2.179949818E1,5.186331764E0,2.329523210E1
8.742378583E0,6.672160133E0,2.499253635E1,1.028269242E1,2.783663696E1
8.752407583E0,6.472672430E0,2.722801109E1,1.229350895E1,3.056780069E1
8.762437583E0,5.185161152E0,2.899301185E1,1.171489890E1,3.169731043E1
8.772466583E0,7.189277360E-1,2.917972981E1,9.898015798E0,3.082116490E1
8.782495583E0,-4.540391605E0,2.771783936E1,7.633892621E0,2.910618648E1
8.792525583E0,-8.550972848E0,2.439159694E1,5.915939732E0,2.651541968E1
8.802554583E0,-1.086311511E1,2.010098027E1,5.151647251E0,2.342212943E1
8.812583583E0,-1.130676792E1,1.580254937E1,4.795555910E0,2.001401818E1
8.822612583E0,-9.786019399E0,1.109465199E1,4.417765553E0,1.543936951E1
8.832642458E0,-7.372059567E0,6.056423181E0,4.441840294E0,1.052413746E1
8.842671458E0,-5.523795630E0,1.561407139E0,4.901809467E0,7.548380387E0
8.852700458E0,-4.984777071E0,-2.327985297E0,5.369106370E0,7.687315605E0
8.862730458E0,-5.236070520E0,-5.772346149E0,5.313478884E0,9.432363034E0
8.872759458E0,-5.098929924E0,-8.610422074E0,4.264028220E0,1.087751770E1
8.882788458E0,-3.891961410E0,-1.062813540E1,2.041638960E0,1.150099627E1
8.892818458E0,-1.691567621E0,-1.203639870E1,-6.797179158E-1,1.217367286E1
8.902847458E0,1.086674039E0,-1.283515057E1,-3.277767831E0,1.329156547E1
8.912876458E0,4.487312921E0,-1.275322173E1,-5.691214862E0,1.466869347E1
8.922906458E0,7.770473639E0,-1.212868764E1,-8.102182090E0,1.652666570E1
8.932935458E0,1.031936967E1,-1.125663390E1,-1.055350855E1,1.856280528E1
8.942964458E0,1.121221728E1,-1.047351864E1,-1.186777552E1,1.939722931E1
8.952994458E0,9.449305147E0,-1.013214650E1,-1.055666722E1,1.741817968E1
8.963023458E0,6.005261214E0,-1.021925949E1,-7.256877020E0,1.389815422E1
8.973052458E0,2.796946318E0,-1.036591818E1,-3.734001510E0,1.136740673E1
8.983081458E0,3.297174740E-1,-1.069779562E1,-8.521487240E-1,1.073674542E1
8.993111458E0,-8.915447049E-1,-1.097030159E1,1.130355517E0,1.106436047E1
9.003140458E0,-8.260161285E-1,-1.099524465E1,2.085333302E0,1.122168982E1
9.013169458E0,4.708205818E-1,-1.067886116E1,2.193333130E0,1.091194107E1
9.023199458E0,1.923112244E0,-9.881378131E0,1.574955576E0,1.018923351E1
9.033228458E0,2.884333833E0,-9.010076340E0,8.402742715E-1,9.497732265E0
9.043257458E0,3.069858676E0,-8.262557766E0,4.195521949E-1,8.824393304E0
9.053287458E0,2.366273157E0,-7.638882635E0,5.116167516E-1,8.013334404E0
9.063316458E0,1.129200546E0,-7.308610260E0,7.242495793E-1,7.430707588E0
9.073345458E0,-1.634362556E-1,-7.367046164E0,8.698224449E-1,7.420018307E0
9.083375458E0,-9.917183264E-1,-7.790624898E0,7.716074945E-1,7.891306588E0
9.093404458E0,-8.839830856E-1,-8.309451851E0,2.712980886E-1,8.360742719E0
9.103433458E0,-2.109951688E-1,-8.743223451E0,-7.034617044E-1,8.774014683E0
9.113462458E0,4.198569810E-1,-8.929561350E0,-1.596456957E0,9.080860125E0
9.123492458E0,7.184528690E-1,-8.685414954E0,-1.984646149E0,8.938200478E0
9.133521458E0,4.882112244E-1,-8.325415919E0,-2.195063467E0,8.623758117E0
9.143550458E0,-4.001520105E-1,-8.032835281E0,-2.345688912E0,8.377876865E0
9.153580458E0,-1.495620408E0,-7.524277793E0,-2.664298430E0,8.120968097E0
9.163609458E0,-1.983495563E0,-6.634378933E0,-3.650487483E0,7.827853943E0
9.173638458E0,-2.080007805E0,-5.815181097E0,-4.891232146E0,7.878255871E0
9.183668458E0,-1.879330925E0,-4.933745497E0,-4.920686910E0,7.217124706E0
9.193697458E0,-1.653139281E0,-3.818427118E0,-3.106403482E0,5.192590657E0
9.203726458E0,-5.519881577E-1,-1.889190938E0,1.655393529E-1,1.975129516E0
9.213756458E0,1.510309637E0,1.241278514E0,4.063704366E0,4.509490073E0
9.223785458E0,4.259539605E0,5.299880015E0,6.987098769E0,9.749459217E0
9.233814458E0,7.553027383E0,9.746400420E0,6.756463534E0,1.406023980E1
9.243844458E0,1.080016516E1,1.443001723E1,3.446692137E0,1.835071256E1
9.253873458E0,1.292176889E1,1.972690347E1,-1.174986291E-1,2.358254943E1
9.263902458E0,1.257540205E1,2.497513269E1,-1.704411322E0,2.801433576E1
9.273931458E0,9.398754798E0,2.822893279E1,-1.086721986E0,2.977230597E1
9.283961458E0,4.779300066E0,3.011034459E1,1.433096423E0,3.052094897E1
9.293990458E0,4.418123987E-1,3.136477115E1,5.269742880E0,3.180745601E1
9.304019458E0,-4.248524913E0,3.080462894E1,9.105494714E0,3.240193146E1
9.314049458E0,-7.816569579E0,2.827401950E1,1.156367704E1,3.153153287E1
9.324078458E0,-8.292010192E0,2.479483731E1,1.178887319E1,2.867959068E1
9.334107458E0,-6.853534915E0,2.065092025E1,9.879869549E0,2.389651168E1
9.344137458E0,-5.183437977E0,1.612059112E1,6.985000203E0,1.831752481E1
9.354166458E0,-4.212891688E0,1.123554884E1,4.308275270E0,1.274940194E1
9.364195458E0,-3.762793785E0,6.150178022E0,2.189797026E0,7.535152141E0
9.374225458E0,-3.577420092E0,1.236275051E0,3.910682148E-1,3.805160294E0
9.384254458E0,-3.629059777E0,-3.093171233E0,-1.045051877E0,4.881589553E0
9.394283458E0,-3.834381246E0,-6.742892731E0,-2.325709561E0,8.098024875E0
9.404313458E0,-3.852195958E0,-9.890876348E0,-3.942680451E0,1.132314346E1
9.414342458E0,-3.231664290E0,-1.232024710E1,-5.995719727E0,1.407767018E1
9.424371458E0,-1.518076201E0,-1.388021641E1,-8.455068571E0,1.632339265E1
9.434400458E0,9.750411171E-1,-1.472100392E1,-1.112644915E1,1.847854248E1
9.444430458E0,3.369318271E0,-1.516025846E1,-1.290402025E1,2.019156954E1
9.454459458E0,5.133632564E0,-1.552309807E1,-1.369688281E1,2.132897924E1
9.464488458E0,5.679547913E0,-1.593831470E1,-1.375173437E1,2.180360837E1
9.474518458E0,5.375038955E0,-1.596462249E1,-1.263225336E1,2.105549904E1
9.484547458E0,4.120526438E0,-1.588448055E1,-1.050736934E1,1.948589929E1
9.494576458E0,2.602250701E0,-1.593374101E1,-8.096052454E0,1.806105967E1
9.504606458E0,1.287284699E0,-1.592288507E1,-5.510813642E0,1.689865195E1
9.514635458E0,2.200765526E-1,-1.552955924E1,-2.785422333E0,1.577891699E1
9.524664458E0,-8.748888380E-1,-1.484207871E1,-1.123548335E-1,1.486826669E1
9.534694458E0,-1.823774629E0,-1.386676314E1,2.254800376E0,1.416677093E1
9.544723458E0,-2.402522240E0,-1.254846276E1,4.095712609E0,1.341681380E1
9.554752458E0,-2.255034850E0,-1.107939543E1,5.315476293E0,1.249369735E1
9.564781458E0,-1.841321246E0,-9.754954897E0,5.992613686E0,1.159573317E1
9.574811458E0,-1.200648259E0,-8.472411413E0,6.264495766E0,1.060505627E1
9.584840458E0,-6.648531242E-1,-7.198196118E0,6.418704969E0,9.667255583E0
9.594869458E0,-7.047501384E-1,-6.169393142E0,6.334849464E0,8.870648355E0
9.604899458E0,-1.001686221E0,-5.329742330E0,5.826054579E0,7.959424637E0
9.614928458E0,-1.144161524E0,-4.705314077E0,5.060117276E0,7.003847014E0
9.624957458E0,-1.113639351E0,-4.376156766E0,4.194179136E0,6.162960269E0
9.634987458E0,-6.920375606E-1,-4.337895511E0,3.654307469E0,5.714036798E0
9.645016458E0,-9.161958352E-2,-4.615087447E0,3.540521822E0,5.817449704E0
9.655045458E0,4.249111681E-1,-5.010307769E0,3.760559564E0,6.278976164E0
9.665075458E0,6.451117547E-1,-5.266069660E0,4.253003295E0,6.799683512E0
9.675104458E0,2.332650205E-1,-5.305517315E0,4.559675723E0,6.999540646E0
9.685133458E0,-7.452513161E-1,-5.418225905E0,3.853421534E0,6.690398270E0
9.695162458E0,-1.600414938E0,-5.468775085E0,1.750011418E0,5.960819479E0
9.705192458E0,-2.028189633E0,-5.575767437E0,-1.111317129E0,6.036369891E0
9.715221458E0,-2.362867885E0,-6.012398910E0,-3.375744361E0,7.288877505E0
9.725250458E0,-2.365767519E0,-6.575331411E0,-3.865945686E0,7.986073826E0
9.735280458E0,-1.394342393E0,-5.902825012E0,-2.214287943E0,6.456826227E0
9.745309458E0,-9.719709635E-2,-3.974654195E0,-6.744804186E-1,4.032647652E0
9.755338458E0,2.303633690E0,-9.292055976E-1,2.618441641E-2,2.484116914E0
9.765368458E0,6.192079169E0,4.627840224E0,1.075759041E-1,7.731126836E0
9.775397458E0,9.441414914E0,1.097365322E1,-9.850665338E-1,1.450971180E1
9.785426458E0,1.058378544E1,1.625193830E1,-1.110133653E0,1.942612697E1
9.795456458E0,1.007320773E1,2.062816757E1,3.689654472E-1,2.295924534E1
9.805485458E0,8.398031906E0,2.365853152E1,2.035597471E0,2.518723309E1
9.815514458E0,4.285118835E0,2.621041313E1,6.951618449E0,2.745310546E1
9.825544458E0,-2.981484444E0,2.802310612E1,1.480893786E1,3.183533205E1
9.835573583E0,-9.517028768E0,2.857486810E1,1.970231242E1,3.598997136E1
9.845602583E0,-1.257483838E1,2.882351744E1,1.943927426E1,3.697035436E1
9.855631583E0,-1.315214918E1,2.808888730E1,1.530304161E1,3.458536830E1
9.865661583E0,-1.207199538E1,2.595360108E1,9.498351592E0,3.015860017E1
9.875690583E0,-1.007961979E1,2.248111279E1,4.296280292E0,2.500914216E1
9.885719583E0,-7.653393670E0,1.826136670E1,6.722197388E-1,1.981170936E1
9.895749583E0,-6.291482420E0,1.343021469E1,-1.180391457E0,1.487772636E1
9.905778583E0,-5.786371865E0,8.476374071E0,-1.170490221E0,1.032962071E1
9.915807583E0,-5.435834795E0,3.699970715E0,-6.425271392E-1,6.606884617E0
9.925837583E0,-4.896827931E0,-8.519328886E-1,-1.908092648E-1,4.974044794E0
9.935866583E0,-3.958497754E0,-4.779826316E0,-5.098755238E-1,6.227071312E0
9.945895583E0,-2.201702688E0,-7.841419660E0,-1.198637694E0,8.232380539E0
9.955925583E0,9.117768019E-2,-1.012384579E1,-1.529643894E0,1.023915902E1
9.965954583E0,2.269792930E0,-1.186215518E1,-1.697539675E0,1.219607832E1
9.975983583E0,3.878874464E0,-1.330292549E1,-1.800675788E0,1.397340069E1
9.986013583E0,4.711469733E0,-1.447241072E1,-1.749672280E0,1.532024713E1
9.996042583E0,4.951681246E0,-1.527392599E1,-1.716405131E0,1.614800325E1
1.000607158E1,4.914582417E0,-1.603818514E1,-1.993809906E0,1.689235865E1
1.001610058E1,4.942709863E0,-1.680029720E1,-2.466604069E0,1.768514920E1
1.002613058E1,5.545808643E0,-1.728637506E1,-2.917594550E0,1.838714535E1
1.003615958E1,6.398334439E0,-1.744960594E1,-3.154937711E0,1.885155333E1
1.004618858E1,6.963416376E0,-1.720442517E1,-3.120906331E0,1.882077228E1
1.005621858E1,6.951646516E0,-1.645176572E1,-2.964110320E0,1.810447278E1
1.006624758E1,6.408373523E0,-1.547939481E1,-2.474127681E0,1.693517708E1
1.007627658E1,5.561562796E0,-1.433372412E1,-1.727820066E0,1.547165117E1
1.008630658E1,4.531523718E0,-1.325010642E1,-1.062462546E0,1.404381907E1
1.009633558E1,3.542285635E0,-1.228830025E1,-4.685590249E-1,1.279725198E1
1.010636458E1,2.873734585E0,-1.152938897E1,-6.177181341E-2,1.188229675E1
1.011639358E1,2.430657287E0,-1.093290514E1,1.933257602E-2,1.119986087E1
1.012642358E1,2.192656461E0,-1.032465204E1,-1.843523307E-1,1.055652253E1
1.013645258E1,2.228296848E0,-9.583665977E0,-3.800532299E-1,9.846644142E0
1.014648158E1,2.037816197E0,-8.799377187E0,-4.938860933E-1,9.045753545E0
1.015651158E1,1.989379178E0,-7.869547107E0,-6.251066758E-1,8.141139941E0
1.016654058E1,1.626232587E0,-6.666315256E0,-7.313315807E-1,6.900669344E0
1.017656958E1,6.116974023E-1,-5.419989426E0,-4.560797511E-1,5.473432910E0
1.018659958E1,-5.217985082E-1,-4.265768936E0,1.029577732E-1,4.298797344E0
1.019662858E1,-1.618906319E0,-3.320496944E0,5.526221055E-1,3.735230758E0
1.020665758E1,-2.447956713E0,-2.396533375E0,8.678110027E-1,3.533972301E0
1.021668758E1,-3.017595971E0,-1.382960057E0,1.320122954E0,3.572280585E0
1.022671658E1,-3.349874817E0,-7.052619159E-2,1.397847068E0,3.630511212E0
1.023674558E1,-3.225942205E0,1.910425687E0,1.129904258E0,3.915751913E0
1.024677558E1,-2.895379223E0,4.797345158E0,5.931915495E-1,5.634679905E0
1.025680458E1,-2.059275917E0,8.565188599E0,9.579873472E-2,8.809781520E0
1.026683358E1,-4.997733624E-1,1.355721739E1,7.627751291E-1,1.358785276E1
1.027686258E1,4.887611550E-1,1.847217753E1,2.700712843E0,1.867495864E1
1.028689258E1,6.704443780E-1,2.235013048E1,5.099590659E0,2.293433350E1
1.029692158E1,3.697635922E-1,2.529113026E1,7.243438949E0,2.631055687E1
1.030695058E1,-2.796037661E-1,2.730795422E1,8.677052851E0,2.865473413E1
1.031698058E1,-2.802271670E0,2.831404252E1,9.746148405E0,3.007532442E1
1.032700958E1,-6.321714279E0,2.870083350E1,1.088035154E1,3.133821891E1
1.033703858E1,-9.325887966E0,2.801494575E1,1.166536830E1,3.174728633E1
1.034706858E1,-1.066516114E1,2.646693516E1,1.254892001E1,3.117241910E1
1.035709758E1,-1.067259996E1,2.437186376E1,1.315318882E1,2.967993446E1
1.036712658E1,-1.048470086E1,2.160080979E1,1.301436656E1,2.731112727E1
1.037715658E1,-1.042820272E1,1.833190166E1,1.198760251E1,2.425919711E1
1.038718558E1,-1.013027305E1,1.428630788E1,1.010101358E1,2.021760372E1
1.039721458E1,-9.006187942E0,9.752972690E0,7.256926137E0,1.512927211E1
1.040724458E1,-7.765255584E0,4.639544011E0,3.960714433E0,9.874807427E0
1.041727358E1,-6.695726750E0,-6.464617306E-1,8.642462477E-1,6.782152392E0
1.042730258E1,-5.289034014E0,-5.604659699E0,-2.074336005E0,7.980536386E0
1.043733158E1,-3.224014962E0,-9.897612340E0,-4.803523327E0,1.146432898E1
1.044736158E1,-8.401098186E-1,-1.354233271E1,-7.181763103E0,1.535181687E1
1.045739058E1,1.769847805E0,-1.628691868E1,-8.808103572E0,1.860050456E1
1.046741958E1,4.528447790E0,-1.796639689E1,-9.785306624E0,2.095353150E1
1.047744958E1,6.416086586E0,-1.914221231E1,-9.887656871E0,2.248012940E1
1.048747858E1,7.073946294E0,-1.999635253E1,-9.215059256E0,2.312600587E1
1.049750758E1,6.984873903E0,-2.043221100E1,-8.184168824E0,2.309208369E1
1.050753758E1,6.706680340E0,-2.039801414E1,-7.350262316E0,2.269548189E1
1.051756658E1,6.604188005E0,-1.997976515E1,-7.011747122E0,2.218041731E1
1.052759558E1,6.825808003E0,-1.932391220E1,-7.047895778E0,2.167205741E1
1.053762458E1,6.979419621E0,-1.825041019E1,-7.153943805E0,2.080789951E1
1.054765458E1,6.607340823E0,-1.688745228E1,-6.748829409E0,1.934915233E1
1.055768358E1,5.692983645E0,-1.548256634E1,-5.723345312E0,1.746071604E1
1.056771258E1,4.135544427E0,-1.405709702E1,-4.334976581E0,1.528059967E1
1.057774258E1,2.189796003E0,-1.264950031E1,-2.808114792E0,1.314117853E1
1.058777158E1,3.332069461E-1,-1.132719108E1,-1.240697300E0,1.139980765E1
1.059780058E1,-9.407500479E-1,-1.014727558E1,9.948321149E-2,1.019127614E1
1.060783058E1,-1.590967299E0,-9.322284327E0,8.497132856E-1,9.495165859E0
1.061785958E1,-1.640189160E0,-8.720616361E0,7.897495043E-1,8.908595539E0
1.062788858E1,-1.027331670E0,-8.485896261E0,-4.807992938E-1,8.561367512E0
1.063791858E1,1.928620760E-1,-8.768358877E0,-2.623797399E0,9.154541276E0
1.064794758E1,1.796324875E0,-8.730570661E0,-4.001664823E0,9.770515262E0
1.065797658E1,2.245966257E0,-8.461729719E0,-3.588753165E0,9.461732587E0
1.066800658E1,6.836035368E-1,-8.589190834E0,-1.497050344E0,8.745437251E0
1.067803558E1,-1.319491455E0,-8.466935495E0,1.101462524E0,8.639633908E0
1.068806458E1,-3.073865773E0,-8.024807639E0,2.446418019E0,8.934827898E0
1.069809358E1,-4.402007892E0,-7.113743613E0,2.056625959E0,8.614681190E0
1.070812358E1,-4.620929984E0,-5.816585013E0,4.568721950E-1,7.442740580E0
1.071815258E1,-4.186447655E0,-4.650263711E0,-1.257001677E0,6.382111701E0
1.072818158E1,-3.724622869E0,-3.726465619E0,-2.233469734E0,5.722564859E0
1.073821158E1,-3.093671462E0,-3.132763900E0,-1.560110226E0,4.671076609E0
1.074824058E1,-2.027654467E0,-2.000435386E0,8.588571614E-1,2.975022688E0
1.075826958E1,-8.141402873E-1,-1.728904724E-1,3.306685821E0,3.409822083E0
1.076829958E1,4.644539872E-1,2.563392445E0,4.423424488E0,5.133554571E0
1.077832858E1,1.809407727E0,7.340625520E0,4.392737716E0,8.743848352E0
1.078835758E1,2.348565157E0,1.294194880E1,4.037937441E0,1.375916915E1
1.079838758E1,1.067375596E0,1.830236621E1,3.875686562E0,1.873864578E1
1.080841658E1,-2.169361738E0,2.295418995E1,4.057991636E0,2.341085780E1
1.081844558E1,-5.948716300E0,2.694158874E1,3.829045369E0,2.785494602E1
1.082847458E1,-9.468705039E0,3.023247655E1,3.566001064E0,3.188064267E1
1.083850475E1,-1.341070253E1,3.255476374E1,5.897780035E0,3.569934725E1
1.084853375E1,-1.870039319E1,3.364147111E1,1.062673674E1,3.992969844E1
1.085856275E1,-2.316908215E1,3.265937043E1,1.358820880E1,4.228569809E1
1.086859275E1,-2.381750796E1,3.059927707E1,1.361221396E1,4.109600724E1
1.087862175E1,-2.086085634E1,2.751865981E1,1.215890605E1,3.660998445E1
1.088865075E1,-1.659369519E1,2.316827757E1,1.023493119E1,3.027992110E1
1.089868075E1,-1.188759174E1,1.812982423E1,8.466824983E0,2.327428815E1
1.090870975E1,-7.439489073E0,1.240564101E1,7.178006267E0,1.614836526E1
1.091873875E1,-3.665189137E0,6.477795176E0,6.346052145E0,9.780992771E0
1.092876875E1,-1.118716781E0,9.210744596E-1,4.950003095E0,5.157754942E0
1.093879775E1,6.918744233E-1,-4.091851108E0,3.167922915E0,5.220887980E0
1.094882675E1,2.259596263E0,-8.165859438E0,1.307494723E0,8.573014527E0
1.095885675E1,3.186402455E0,-1.147944088E1,-6.320378190E-1,1.193022193E1
1.096888575E1,3.483858209E0,-1.414884919E1,-2.401016582E0,1.476794102E1
1.097891475E1,3.710630774E0,-1.630965616E1,-3.996242115E0,1.719719791E1
1.098894375E1,4.657510750E0,-1.811228024E1,-5.655186659E0,1.953786677E1
1.099897375E1,6.475314787E0,-1.942234891E1,-7.054469803E0,2.165462729E1
1.100900275E1,8.721711545E0,-2.022474945E1,-8.111578565E0,2.347139641E1
1.101903175E1,1.065803572E1,-2.049466628E1,-8.529858552E0,2.462485651E1
1.102906175E1,1.172922575E1,-2.027382162E1,-8.417786724E0,2.488898779E1
1.103909075E1,1.159504033E1,-1.973673381E1,-8.035902146E0,2.426024207E1
1.104911975E1,1.038864046E1,-1.890083224E1,-7.718211810E0,2.290711905E1
1.105914975E1,8.521007037E0,-1.795982696E1,-7.259535164E0,2.116279273E1
1.106917875E1,6.694960765E0,-1.674616133E1,-6.825451323E0,1.928323637E1
1.107920775E1,4.916197418E0,-1.548181322E1,-6.347318652E0,1.743972453E1
1.108923675E1,2.824364789E0,-1.424573054E1,-5.709658150E0,1.560506556E1
1.109926675E1,1.062822808E0,-1.278252797E1,-4.803451406E0,1.369656012E1
1.110929575E1,-2.101509771E-1,-1.132377630E1,-3.777218281E0,1.193898870E1
1.111932475E1,-1.134781128E0,-1.009242285E1,-2.802859899E0,1.053568939E1
1.112935475E1,-1.505376779E0,-8.869843152E0,-2.001840472E0,9.216704512E0
1.113938375E1,-1.656707691E0,-7.861004909E0,-1.372984707E0,8.150163530E0
1.114941275E1,-1.749859976E0,-6.928430731E0,-7.016261172E-1,7.180351073E0
1.115944275E1,-1.394275004E0,-6.169351627E0,3.304963231E-2,6.325029214E0
1.116947175E1,-8.983048171E-1,-5.595543889E0,5.131414130E-1,5.690375829E0
1.117950075E1,-5.423044011E-1,-5.235207471E0,6.958622244E-1,5.309022091E0
1.118953075E1,-3.575630844E-1,-5.034349766E0,8.965105990E-1,5.126037473E0
1.119955975E1,-2.578522700E-1,-4.698939443E0,1.290880736E0,4.879845567E0
1.120958875E1,-3.842983085E-1,-4.422424030E0,1.656511517E0,4.738095598E0
1.121961875E1,-4.854729733E-1,-4.057729681E0,1.805042196E0,4.467553190E0
1.122964775E1,-8.204041171E-1,-3.373796654E0,1.763460892E0,3.894272858E0
1.123967675E1,-1.517404502E0,-2.644430761E0,1.545337528E0,3.418127930E0
1.124970575E1,-2.303119428E0,-1.989982318E0,1.203853118E0,3.273171406E0
1.125973575E1,-2.591947030E0,-1.030078254E0,1.028745381E0,2.972804682E0
1.126976475E1,-2.349058370E0,2.424442720E-1,1.333684986E0,2.712115427E0
1.127979375E1,-1.830398355E0,1.812166151E0,2.021712819E0,3.274389564E0
1.128982375E1,-1.051864687E0,4.014229320E0,3.500205855E0,5.428802573E0
1.129985275E1,3.215535915E-1,7.618073564E0,5.290047922E0,9.280250457E0
1.130988175E1,2.210077216E0,1.246542411E1,5.759024438E0,1.390818471E1
1.131991175E1,3.993324355E0,1.771898131E1,5.445654609E0,1.896217531E1
1.132994075E1,3.924461111E0,2.241177650E1,5.457360735E0,2.339811760E1
1.133996975E1,1.159796102E0,2.618974440E1,6.973692273E0,2.712711231E1
1.134999975E1,-3.691608027E0,2.860451348E1,9.539118964E0,3.037829739E1
1.136002875E1,-8.429344915E0,3.052229263E1,1.134128872E1,3.363464037E1
1.137005775E1,-1.214087090E1,3.147682018E1,1.196833594E1,3.579709513E1
1.138008675E1,-1.441659203E1,3.099289759E1,1.237437244E1,3.635275671E1
1.139011675E1,-1.501423828E1,2.894678142E1,1.249639564E1,3.492138900E1
1.140014575E1,-1.315570546E1,2.563272928E1,1.187467991E1,3.116275693E1
1.141017475E1,-9.792930808E0,2.155137977E1,1.065108689E1,2.595783342E1
1.142020475E1,-6.100983642E0,1.700754357E1,9.493426482E0,2.041087176E1
1.143023375E1,-2.873457427E0,1.219904602E1,8.897889322E0,1.537029328E1
1.144026275E1,-9.668015863E-1,6.951933029E0,7.943989763E0,1.060052128E1
1.145029275E1,-3.305694133E-1,1.492379004E0,6.595866832E0,6.770666917E0
1.146032175E1,-4.508526327E-1,-3.704336246E0,4.944413157E0,6.194561856E0
1.147035075E1,-9.487987402E-1,-8.381158011E0,2.808615606E0,8.890014076E0
1.148038075E1,-1.716636096E0,-1.245999088E1,3.106654912E-1,1.258152317E1
1.149040975E1,-2.033661019E0,-1.567585073E1,-2.498235459E0,1.600341381E1
1.150043875E1,-1.298512961E0,-1.783146303E1,-5.437220585E0,1.868717682E1
1.151046775E1,4.749645035E-1,-1.927460731E1,-8.013265235E0,2.087937973E1
1.152049775E1,3.265073818E0,-1.966630527E1,-9.920492495E0,2.226747497E1
1.153052675E1,6.469140127E0,-1.933734209E1,-1.119719227E1,2.326283920E1
1.154055575E1,8.794323438E0,-1.905408308E1,-1.142162595E1,2.389250397E1
1.155058575E1,9.845634102E0,-1.860294466E1,-1.068120707E1,2.360284401E1
1.156061475E1,9.468322046E0,-1.807787873E1,-9.153005095E0,2.236596352E1
1.157064375E1,7.970611551E0,-1.756856286E1,-7.302075997E0,2.062778135E1
1.158067375E1,6.353024949E0,-1.678150658E1,-5.541495152E0,1.877999089E1
1.159070275E1,4.894776728E0,-1.582631362E1,-4.347082656E0,1.712682602E1
1.160073175E1,3.138655554E0,-1.491938825E1,-3.339377604E0,1.560739400E1
1.161076175E1,1.144885629E0,-1.379119840E1,-2.327112892E0,1.403293878E1
1.162079075E1,-5.751434606E-1,-1.259171461E1,-1.505694283E0,1.269445478E1
1.163081975E1,-1.704063706E0,-1.149701995E1,-1.092794831E0,1.167388116E1
1.164084875E1,-2.280595807E0,-1.047052487E1,-9.151301801E-1,1.075502076E1
1.165087875E1,-2.292779796E0,-9.393249060E0,-7.951518200E-1,9.701661379E0
1.166090775E1,-2.083063267E0,-8.533917689E0,-5.533635324E-1,8.801881327E0
1.167093675E1,-1.887854996E0,-8.064412585E0,-1.872991081E-1,8.284553566E0
1.168096675E1,-1.599301335E0,-7.887685170E0,4.444948089E-1,8.060453941E0
1.169099575E1,-1.383091766E0,-7.784129811E0,1.165035499E0,7.991428374E0
1.170102475E1,-1.362600052E0,-7.668352602E0,1.600448851E0,7.951210415E0
1.171105475E1,-1.596479323E0,-7.656900830E0,1.525490617E0,7.968939589E0
1.172108375E1,-1.778614682E0,-7.630697118E0,1.426985060E0,7.964125505E0
1.173111275E1,-1.866447024E0,-7.173492801E0,1.192172427E0,7.507589397E0
1.174114275E1,-2.169211465E0,-6.658753636E0,8.095873529E-1,7.049816313E0
1.175117175E1,-2.527136784E0,-5.894662299E0,5.357360776E-1,6.435874229E0
1.176120075E1,-2.867175179E0,-5.102151740E0,7.003232114E-1,5.894327653E0
1.177122975E1,-2.789089122E0,-4.271351858E0,1.335787499E0,5.273309498E0
1.178125975E1,-2.137459914E0,-3.163448918E0,2.077112263E0,4.346324803E0
1.179128875E1,-1.407807362E0,-1.717962829E0,2.543514251E0,3.376800645E0
1.180131775E1,-1.187147476E0,3.954600585E-1,2.956769140E0,3.210637248E0
1.181134775E1,-1.182987767E0,3.311470597E0,2.968277630E0,4.601735506E0
1.182137675E1,-3.774238832E-1,7.134166183E0,1.794527441E0,7.366077969E0
1.183140596E1,8.292595790E-1,1.136877648E1,2.219508044E-1,1.140114083E1
1.184143596E1,2.206639492E0,1.509246116E1,-1.301882565E0,1.530838136E1
1.185146496E1,3.781726192E0,1.828073151E1,-2.310650641E0,1.881025528E1
1.186149396E1,5.792633649E0,2.148184234E1,-2.100279517E0,2.234804978E1
1.187152396E1,7.547485392E0,2.386750399E1,-1.167946170E0,2.505965644E1
1.188155296E1,8.398831805E0,2.504582553E1,-3.579079970E-1,2.641896763E1
1.189158196E1,7.854479417E0,2.575671598E1,9.638053999E-1,2.694494731E1
1.190161196E1,5.276429172E0,2.625897777E1,3.086298416E0,2.696108040E1
1.191164096E1,5.873422873E-1,2.635061767E1,5.453753588E0,2.691548719E1
1.192166996E1,-5.088096787E0,2.587312001E1,6.959220414E0,2.727155692E1
1.193169896E1,-1.039174533E1,2.384404964E1,7.396320249E0,2.704131334E1
1.194172896E1,-1.441180784E1,2.053383093E1,7.476962709E0,2.617715395E1
1.195175796E1,-1.583041720E1,1.693450015E1,7.070635600E0,2.423578535E1
1.196178696E1,-1.478212954E1,1.309446640E1,5.864182518E0,2.060012235E1
1.197181696E1,-1.273270619E1,8.783752257E0,4.148048698E0,1.601506848E1
1.198184596E1,-1.047809117E1,4.259475578E0,2.775801909E0,1.164639871E1
1.199187496E1,-8.341929041E0,-1.916278750E-1,2.002861980E0,8.581139638E0
1.200190496E1,-6.488542943E0,-4.356500182E0,1.687937962E0,7.995587403E0
1.201193396E1,-4.789171043E0,-8.123942503E0,1.712517318E0,9.584743952E0
1.202196296E1,-3.241876160E0,-1.122136583E1,2.102382906E0,1.186797481E1
1.203199296E1,-1.924906901E0,-1.360900618E1,2.462262511E0,1.396327513E1
1.204202196E1,-4.941391316E-1,-1.541456322E1,2.498323460E0,1.562352562E1
1.205205096E1,1.154930049E0,-1.649483163E1,2.494285372E0,1.672228434E1
1.206208096E1,2.662813237E0,-1.704298939E1,2.271403691E0,1.739865904E1
1.207210996E1,3.841101451E0,-1.748462842E1,1.567288853E0,1.797004968E1
1.208213896E1,5.052555656E0,-1.778407486E1,4.071246690E-1,1.849236025E1
1.209216796E1,6.224276277E0,-1.789930477E1,-8.896474296E-1,1.897151019E1
1.210219796E1,7.263203123E0,-1.801742788E1,-2.055411200E0,1.953475217E1
1.211222696E1,8.429102256E0,-1.795979421E1,-3.015997342E0,2.006739178E1
1.212225596E1,9.664752824E0,-1.775951889E1,-3.771018771E0,2.056765764E1
1.213228596E1,1.031421242E1,-1.773744214E1,-3.905692134E0,2.088670062E1
1.214231496E1,1.014173359E1,-1.777257923E1,-3.193719953E0,2.071036407E1
1.215234396E1,8.975562565E0,-1.777407144E1,-1.827785965E0,1.999547800E1
1.216237396E1,7.191204602E0,-1.783955792E1,-2.369737633E-1,1.923588851E1
1.217240296E1,5.701251608E0,-1.765070221E1,1.147058820E0,1.858406043E1
1.218243196E1,5.168200133E0,-1.698196200E1,2.112394363E0,1.787622824E1
1.219246196E1,5.071631028E0,-1.629517962E1,2.747384441E0,1.728590297E1
1.220249096E1,4.919017530E0,-1.545316186E1,3.058193189E0,1.650301459E1
1.221251996E1,4.839587783E0,-1.436969619E1,3.011554627E0,1.545895338E1
1.222254996E1,4.906812052E0,-1.278255370E1,2.833683497E0,1.398214024E1
1.223257896E1,4.638330714E0,-1.073172467E1,2.799271463E0,1.202164493E1
1.224260796E1,3.560890013E0,-7.957437190E0,2.863803674E0,9.176171086E0
1.225263796E1,1.200422848E0,-4.455854900E0,3.663757154E0,5.892263945E0
1.226266696E1,-3.871239755E0,-3.440238565E-1,5.216252552E0,6.504932001E0
1.227269596E1,-1.130421854E1,4.317226188E0,6.743102646E0,1.385255327E1
1.228272596E1,-1.803305164E1,8.829368725E0,7.718794777E0,2.151112494E1
1.229275496E1,-2.145922297E1,1.146596422E1,7.292284250E0,2.539968495E1
1.230278396E1,-2.050193788E1,1.185192840E1,6.091411166E0,2.445205418E1
1.231281296E1,-1.646258541E1,1.148705395E1,5.629110416E0,2.084840548E1
1.232284296E1,-1.191747802E1,1.091475421E1,6.039996014E0,1.725223736E1
1.233287196E1,-6.787629193E0,1.085257141E1,5.667823661E0,1.399908716E1
1.234290096E1,-5.521454112E-1,1.215430780E1,3.833500071E0,1.275648013E1
1.235293096E1,5.899538877E0,1.493364610E1,1.436647876E0,1.612086542E1
1.236295996E1,9.915912956E0,1.830319066E1,-2.541784644E-1,2.081818255E1
1.237298896E1,1.012013749E1,2.131693917E1,-1.452439305E0,2.364188356E1
1.238301896E1,8.065610095E0,2.362198408E1,-2.654890845E0,2.510180558E1
1.239304796E1,6.377662777E0,2.515399668E1,-3.715948232E0,2.621462193E1
1.240307696E1,5.413503109E0,2.646605106E1,-3.277533942E0,2.721213155E1
1.241310696E1,2.195118138E0,2.709579619E1,-1.052632719E0,2.720493982E1
1.242313596E1,-3.606316447E0,2.642646775E1,1.431886050E0,2.670981119E1
1.243316496E1,-8.003294563E0,2.386936574E1,2.638011687E0,2.531320704E1
1.244319496E1,-1.156941082E1,2.035390509E1,3.599065899E0,2.368725384E1
1.245322396E1,-1.392918567E1,1.599788613E1,3.893244581E0,2.156645375E1
1.246325296E1,-1.407345519E1,1.091200135E1,3.605954504E0,1.816966764E1
1.247328296E1,-1.229986254E1,5.617918260E0,3.266481535E0,1.391105768E1
1.248331196E1,-9.597623865E0,2.896926981E-1,2.535225822E0,9.931046052E0
1.249334096E1,-6.936097600E0,-4.531876305E0,1.573547128E0,8.433469234E0
1.250337096E1,-4.827447209E0,-8.535975325E0,4.747219171E-1,9.817967315E0
1.251339996E1,-3.030158129E0,-1.157967970E1,-8.003709716E-1,1.199630918E1
1.252342896E1,-1.346578389E0,-1.375441357E1,-2.014723642E0,1.396625495E1
1.253345796E1,2.763090793E-1,-1.529807733E1,-3.195113345E0,1.563061950E1
1.254348796E1,1.593967213E0,-1.644928182E1,-4.180719430E0,1.704693576E1
1.255351696E1,3.140003337E0,-1.681173435E1,-4.949989647E0,1.780439357E1
1.256354596E1,5.035330344E0,-1.657012038E1,-5.446560928E0,1.815457152E1
1.257357596E1,6.216837450E0,-1.647596384E1,-5.611241325E0,1.848222069E1
1.258360496E1,6.561648926E0,-1.631286394E1,-5.303633342E0,1.836554637E1
1.259363396E1,6.088006332E0,-1.607234457E1,-4.700196594E0,1.781785423E1
1.260366396E1,5.134790897E0,-1.567918247E1,-4.055954466E0,1.698980892E1
1.261369296E1,4.323398217E0,-1.514826932E1,-3.561758325E0,1.615078815E1
1.262372196E1,3.477380079E0,-1.453276217E1,-3.165303655E0,1.527457023E1
1.263375196E1,2.750894817E0,-1.389089109E1,-2.797657047E0,1.443437433E1
1.264378096E1,2.273460596E0,-1.331227401E1,-2.371176340E0,1.371159144E1
1.265380996E1,1.706035533E0,-1.265258413E1,-1.833947614E0,1.289813189E1
1.266383996E1,1.162909963E0,-1.192549923E1,-1.395369018E0,1.206304051E1
1.267386896E1,7.072864413E-1,-1.137286017E1,-9.924186766E-1,1.143796736E1
1.268389796E1,4.205264872E-1,-1.086622349E1,-6.565236193E-1,1.089415801E1
1.269392796E1,4.455263308E-1,-1.033380410E1,-1.867723471E-1,1.034508989E1
1.270395696E1,6.642786352E-1,-9.865918093E0,3.016626064E-1,9.892856324E0
1.271398596E1,6.640567334E-1,-9.551040267E0,5.539160943E-1,9.590107641E0
1.272401496E1,4.504719789E-1,-9.428520049E0,6.246288121E-1,9.459919475E0
1.273404496E1,1.661720216E-1,-9.373314148E0,6.672060438E-1,9.398499623E0
1.274407396E1,-2.979934055E-1,-9.380957043E0,6.465581366E-1,9.407932426E0
1.275410296E1,-2.990761636E-1,-9.440194016E0,2.624670388E-1,9.448576536E0
1.276413296E1,6.631518768E-1,-9.257324100E0,-3.787628956E-1,9.288771783E0
1.277416196E1,1.991654914E0,-8.793338183E0,-1.069348300E0,9.079261615E0
1.278419096E1,3.033663535E0,-8.092255272E0,-1.833237762E0,8.834504543E0
1.279422096E1,3.245815721E0,-7.093977685E0,-2.555848367E0,8.209275240E0
1.280424996E1,2.005416044E0,-5.742962721E0,-2.796368905E0,6.694997638E0
1.281427896E1,-9.237220788E-1,-3.422636692E0,-2.276140959E0,4.212899485E0
1.282430896E1,-4.148744224E0,-1.856795025E-1,-9.058044559E-1,4.250533758E0
1.283433808E1,-6.775109135E0,3.175535113E0,5.949764121E-1,7.506005860E0
1.284436708E1,-7.201939505E0,7.262914270E0,2.144787937E0,1.045074024E1
1.285439708E1,-5.744998137E0,1.235297514E1,4.152470947E0,1.424233174E1
1.286442608E1,-3.167386433E0,1.716289824E1,5.930620337E0,1.843284217E1
1.287445508E1,-6.372950506E-1,2.110015949E1,7.254930482E0,2.232166866E1
1.288448508E1,5.108762017E-1,2.420859547E1,7.938522617E0,2.548209627E1
1.289451408E1,-1.805728367E-1,2.666691929E1,8.892532103E0,2.811110667E1
1.290454308E1,-2.119221279E0,2.914960262E1,1.120411771E1,3.130052213E1
1.291457308E1,-5.652075940E0,3.119767410E1,1.418628307E1,3.473458592E1
1.292460208E1,-9.954805126E0,3.188681758E1,1.648715190E1,3.725175779E1
1.293463108E1,-1.358291356E1,3.166996073E1,1.800696721E1,3.888100849E1
1.294466108E1,-1.584118543E1,3.022790403E1,1.738342130E1,3.829951271E1
1.295469008E1,-1.677387012E1,2.708431460E1,1.443130713E1,3.497406813E1
1.296471908E1,-1.613122721E1,2.287827438E1,1.095646825E1,3.006120634E1
1.297474908E1,-1.421846029E1,1.814864992E1,7.837617216E0,2.435090041E1
1.298477808E1,-1.128897134E1,1.285960363E1,5.442567864E0,1.795638673E1
1.299480708E1,-8.233656149E0,7.084398192E0,3.731415871E0,1.148500134E1
1.300483708E1,-5.357979119E0,1.027034193E0,2.495812081E0,5.999318079E0
1.301486608E1,-2.956799546E0,-4.557686500E0,1.711535570E0,5.696009462E0
1.302489508E1,-1.254965530E0,-9.162841866E0,9.296985179E-1,9.294995905E0
1.303492408E1,-2.765484497E-2,-1.280440007E1,-7.652631193E-2,1.280465861E1
1.304495408E1,1.092222316E0,-1.546699637E1,-1.343877853E0,1.556364141E1
1.305498308E1,2.177843709E0,-1.733293878E1,-2.826827636E0,1.769646079E1
1.306501208E1,3.308457235E0,-1.868176864E1,-4.259117144E0,1.944465087E1
1.307504208E1,4.357534554E0,-1.946030786E1,-5.427767392E0,2.066766432E1
1.308507108E1,5.485415091E0,-1.953142404E1,-6.406708236E0,2.127468482E1
1.309510008E1,6.662106430E0,-1.921027741E1,-7.505888300E0,2.167387320E1
1.310513008E1,7.619538292E0,-1.868460922E1,-8.489582346E0,2.189166494E1
1.311515908E1,8.122709325E0,-1.808769504E1,-8.957261950E0,2.175719789E1
1.312518808E1,7.848832760E0,-1.747246270E1,-8.632592962E0,2.100982603E1
1.313521808E1,6.854217870E0,-1.681153788E1,-7.529140338E0,1.965441586E1
1.314524708E1,5.612954559E0,-1.616090884E1,-6.117032495E0,1.816860809E1
1.315527608E1,4.419372368E0,-1.552403947E1,-4.821583622E0,1.684560246E1
1.316530608E1,3.318398378E0,-1.467191070E1,-3.510477659E0,1.544668847E1
1.317533508E1,2.473478056E0,-1.348404533E1,-2.260085236E0,1.389408354E1
1.318536408E1,1.345013820E0,-1.254430773E1,-1.188475233E0,1.267206344E1
1.319539408E1,2.620179726E-1,-1.155675043E1,-9.706480309E-2,1.156012783E1
1.320542308E1,-4.052021044E-1,-1.053246676E1,9.663042806E-1,1.058445978E1
1.321545208E1,-5.998374948E-1,-9.694543219E0,1.657047560E0,9.853414629E0
1.322548208E1,-5.979637545E-1,-8.925240843E0,1.722567366E0,9.109595111E0
1.323551108E1,-4.969339545E-1,-8.057648526E0,1.368887417E0,8.188192467E0
1.324554008E1,-2.988468066E-1,-7.237299957E0,9.008413392E-1,7.299269498E0
1.325556908E1,-1.076788151E-1,-6.756976919E0,4.795237237E-1,6.774826552E0
1.326559908E1,1.560488833E-1,-6.536870180E0,-4.120956793E-2,6.538862381E0
1.327562808E1,5.743616147E-1,-6.350745705E0,-4.914761634E-1,6.395577463E0
1.328565708E1,8.093278827E-1,-6.353655864E0,-5.897545561E-1,6.432088688E0
1.329568708E1,9.928323671E-1,-6.276735157E0,-4.023127028E-1,6.367493687E0
1.330571608E1,1.105881850E0,-5.987744125E0,-3.976809771E-1,6.101983656E0
1.331574508E1,1.013082006E0,-5.436775028E0,-6.601690659E-1,5.569621266E0
1.332577508E1,5.920351164E-1,-4.431866114E0,-1.041718452E0,4.590982483E0
1.333580408E1,2.588202766E-1,-3.000165421E0,-1.428162104E0,3.332810748E0
1.334583308E1,1.006207873E-1,-4.243119746E-1,-9.584061541E-1,1.052951827E0
1.335586308E1,-2.260045329E-1,3.112762914E0,1.324148762E-1,3.123764509E0
1.336589208E1,-1.719373763E-3,7.790829551E0,1.390602076E0,7.913962483E0
1.337592108E1,1.513878777E0,1.402081388E1,2.996899166E0,1.441722773E1
1.338595108E1,3.067026285E0,2.042402490E1,4.723556805E0,2.118630294E1
1.339598008E1,3.090570976E0,2.501057150E1,6.023557736E0,2.591068435E1
1.340600908E1,2.467440513E0,2.871034341E1,6.693818804E0,2.958342934E1
1.341603908E1,4.734969985E-1,3.162503540E1,7.581181726E0,3.252447355E1
1.342606808E1,-3.817391576E0,3.328385540E1,9.270162247E0,3.476094672E1
1.343609708E1,-9.664559866E0,3.348820623E1,1.134372116E1,3.665438151E1
1.344612708E1,-1.372129377E1,3.207095810E1,1.222508016E1,3.696312813E1
1.345615608E1,-1.427212370E1,2.953010433E1,1.124578380E1,3.467258615E1
1.346618508E1,-1.287288149E1,2.617106605E1,9.866968253E0,3.078949234E1
1.347621408E1,-1.115744056E1,2.160244701E1,8.483202449E0,2.575109552E1
1.348624408E1,-9.189412783E0,1.620603064E1,7.610442363E0,2.012460110E1
1.349627308E1,-7.263889586E0,1.037199578E1,6.931495256E0,1.443565083E1
1.350630208E1,-5.429692880E0,4.501393016E0,5.894996760E0,9.192121118E0
1.351633208E1,-3.887445020E0,-8.896901143E-1,4.471351776E0,5.991390823E0
1.352636108E1,-3.011904291E0,-5.540445576E0,2.781955811E0,6.892559958E0
1.353639008E1,-2.333944194E0,-9.422939467E0,5.418527037E-1,9.722792194E0
1.354642008E1,-1.496525264E0,-1.230163658E1,-1.891440362E0,1.253584449E1
1.355644908E1,-1.205005165E0,-1.431086384E1,-3.843764273E0,1.486698978E1
1.356647808E1,-2.111110899E-1,-1.546846519E1,-5.671519101E0,1.647677493E1
1.357650808E1,1.589365600E0,-1.594736385E1,-7.333795388E0,1.762467167E1
1.358653708E1,4.010154980E0,-1.603337171E1,-9.117292641E0,1.887525832E1
1.359656608E1,6.418779813E0,-1.600901689E1,-1.071609272E1,2.030576271E1
1.360659608E1,8.545585223E0,-1.545666551E1,-1.143042952E1,2.103782913E1
1.361662508E1,9.594842345E0,-1.450965748E1,-1.108628696E1,2.062757665E1
1.362665408E1,8.950037130E0,-1.362754887E1,-1.001877600E1,1.913606870E1
1.363668408E1,6.995923387E0,-1.303230582E1,-8.484533275E0,1.705201583E1
1.364671308E1,4.994035553E0,-1.213630188E1,-6.951176400E0,1.485089451E1
1.365674208E1,2.785604766E0,-1.110955186E1,-5.743210058E0,1.281273579E1
1.366677208E1,1.039228562E-1,-1.014287263E1,-4.654986215E0,1.116053591E1
1.367680108E1,-2.010343931E0,-9.097305104E0,-3.972101301E0,1.012818007E1
1.368683008E1,-3.086697196E0,-8.437148024E0,-3.683502617E0,9.709858799E0
1.369685908E1,-3.276827014E0,-8.110244815E0,-3.677885782E0,9.488967808E0
1.370688908E1,-3.035325606E0,-8.094135736E0,-3.848610445E0,9.462559760E0
1.371691808E1,-2.551800047E0,-8.226193932E0,-3.686940195E0,9.368856819E0
1.372694708E1,-1.762629125E0,-8.311976094E0,-2.968202786E0,9.000335316E0
1.373697708E1,-1.048518325E0,-8.407085150E0,-1.923316605E0,8.687785573E0
1.374700608E1,-5.057559411E-1,-8.600720959E0,-7.873550695E-1,8.651480688E0
1.375703508E1,1.477785815E-1,-8.598354006E0,1.163268471E-1,8.600410575E0
1.376706508E1,7.139697357E-1,-8.581058527E0,6.490023458E-1,8.635133020E0
1.377709408E1,1.179829393E0,-8.496823538E0,8.862968288E-1,8.624008911E0
1.378712308E1,1.135601200E0,-8.485602731E0,6.548125778E-1,8.586257818E0
1.379715308E1,8.885722728E-1,-8.457867633E0,-1.046265686E-1,8.505059218E0
1.380718208E1,6.504376911E-1,-8.361670995E0,-1.009569145E0,8.447475415E0
1.381721108E1,7.400246362E-1,-8.030480023E0,-1.950937682E0,8.297132258E0
1.382724108E1,8.962350489E-1,-7.546522940E0,-2.775899850E0,8.090665345E0
1.383726958E1,7.357052980E-1,-6.727677691E0,-3.012069182E0,7.407797929E0
1.384729858E1,-4.634678543E-2,-5.382629226E0,-2.494172229E0,5.932599811E0
1.385732758E1,-1.084313079E0,-3.408699853E0,-1.505833447E0,3.881044178E0
1.386735758E1,-1.789540350E0,-6.381604385E-1,-4.654939145E-2,1.900492109E0
1.387738658E1,-2.129365175E0,2.823021684E0,2.078360644E0,4.101613151E0
1.388741558E1,-1.210050581E0,7.075378277E0,4.500655390E0,8.472372696E0
1.389744558E1,1.428677536E0,1.270359875E1,6.287695763E0,1.424632088E1
1.390747458E1,3.331607823E0,1.912013791E1,7.213091900E0,2.070526452E1
1.391750358E1,2.469790217E0,2.461691823E1,7.765156181E0,2.593048741E1
1.392753358E1,1.157582054E-1,2.797613427E1,9.088614972E0,2.941564908E1
1.393756258E1,-2.704279937E0,3.018922587E1,1.244221534E1,3.276448094E1
1.394759158E1,-4.930302656E0,3.129885432E1,1.573439890E1,3.537651021E1
1.395762158E1,-5.592471178E0,3.031746233E1,1.544983596E1,3.448364376E1
1.396765058E1,-5.022890977E0,2.864478910E1,1.324688577E1,3.195674200E1
1.397767958E1,-4.120494571E0,2.687939074E1,1.072119033E1,2.923053273E1
1.398770958E1,-3.825866238E0,2.400053282E1,7.416981386E0,2.541012478E1
1.399773858E1,-4.398819405E0,2.008795735E1,4.306288387E0,2.100999196E1
1.400776758E1,-5.433415217E0,1.563600195E1,1.967554007E0,1.666966787E1
1.401779758E1,-6.118617675E0,1.129357894E1,-1.051025319E-1,1.284497778E1
1.402782658E1,-6.136160492E0,7.318659870E0,-2.263175343E0,9.815152088E0
1.403785558E1,-5.616635381E0,3.654998025E0,-4.231502498E0,7.925352797E0
1.404788558E1,-5.393972239E0,2.112897223E-1,-5.315003253E0,7.575542188E0
1.405791458E1,-5.012802191E0,-3.496876450E0,-4.980731968E0,7.884416380E0
1.406794358E1,-4.230825683E0,-7.123904319E0,-2.947290219E0,8.794112710E0
1.407797358E1,-3.601858822E0,-1.069778275E1,-4.409665259E-1,1.129647707E1
1.408800258E1,-2.400375581E0,-1.390103016E1,1.306225877E0,1.416709810E1
1.409803158E1,-4.880089107E-1,-1.608805604E1,1.882713393E0,1.620519391E1
1.410806058E1,1.768036630E0,-1.734552667E1,1.305803708E0,1.748423210E1
1.411809058E1,4.262663480E0,-1.762172341E1,1.769178884E-1,1.813082281E1
1.412811958E1,6.393327468E0,-1.723215266E1,-1.046602412E0,1.840970120E1
1.413814858E1,7.439246414E0,-1.645215047E1,-1.998720982E0,1.816619189E1
1.414817858E1,7.609889801E0,-1.568891926E1,-2.352643736E0,1.759509996E1
1.415820758E1,7.192540106E0,-1.511089860E1,-2.139415516E0,1.687154375E1
1.416823658E1,6.309060904E0,-1.459671784E1,-1.602275229E0,1.598235612E1
1.417826658E1,5.330294307E0,-1.400214840E1,-9.090934416E-1,1.500995163E1
1.418829558E1,4.465081222E0,-1.346051847E1,-2.981681641E-1,1.418490085E1
1.419832458E1,3.803861119E0,-1.293062742E1,3.414388756E-1,1.348284337E1
1.420835458E1,3.177570528E0,-1.253662799E1,1.096675701E0,1.297947201E1
1.421838358E1,2.442898433E0,-1.184080348E1,1.852408444E0,1.223126310E1
1.422841258E1,1.945578855E0,-1.094330968E1,2.369566602E0,1.136468872E1
1.423844258E1,1.517920811E0,-1.024997725E1,2.475086625E0,1.065327044E1
1.424847158E1,1.071987880E0,-9.711950964E0,2.238445129E0,1.002406036E1
1.425850058E1,7.626574539E-1,-9.356382365E0,1.797037650E0,9.557870143E0
1.426852958E1,5.828836392E-1,-9.338904453E0,1.082151802E0,9.419444901E0
1.427855958E1,5.174288839E-1,-9.434667812E0,4.396240783E-1,9.459067539E0
1.428858858E1,4.196100824E-1,-9.602064241E0,-1.529736682E-1,9.612445643E0
1.429861758E1,8.599733949E-2,-1.007208624E1,-5.811664581E-1,1.008920568E1
1.430864758E1,2.274903104E-2,-1.039008238E1,-4.236406777E-1,1.039874035E1
1.431867658E1,3.396086240E-1,-1.035439215E1,2.121960407E-1,1.036213289E1
1.432870558E1,4.900348248E-1,-1.008345323E1,1.205566644E0,1.016708188E1
1.433873558E1,7.558147497E-1,-9.200507875E0,2.000295053E0,9.445728209E0
1.434876458E1,1.284037740E0,-7.860071109E0,1.811327076E0,8.167642042E0
1.435879358E1,1.313823749E0,-6.567251143E0,5.950588578E-1,6.723764977E0
1.436882358E1,1.011151401E0,-5.180747089E0,-1.048401673E0,5.381608832E0
1.437885258E1,9.245216855E-1,-3.340730649E0,-2.440754113E0,4.239398809E0
1.438888158E1,5.123777667E-1,-1.277863957E0,-3.308439986E0,3.583467930E0
1.439891158E1,-1.884186307E-1,1.433394631E0,-3.405070487E0,3.699273816E0
1.440894058E1,-1.416242993E0,4.574170386E0,-2.410582627E0,5.360940919E0
1.441896958E1,-2.735035414E0,8.309535466E0,-2.772312583E-1,8.752465684E0
1.442899958E1,-2.078760301E0,1.393575794E1,2.732859372E0,1.435252989E1
1.443902858E1,2.284384364E-1,1.964461210E1,5.148986768E0,2.030948137E1
1.444905758E1,1.578918965E0,2.336604444E1,5.615523241E0,2.408317087E1
1.445908758E1,1.334363263E0,2.586961402E1,5.270672588E0,2.643477717E1
1.446911658E1,4.921347061E-1,2.802347800E1,5.924878371E0,2.864719357E1
1.447914558E1,-1.297270574E0,2.872636010E1,7.781081657E0,2.978979536E1
1.448917458E1,-4.325738565E0,2.839950542E1,1.072680131E1,3.066444503E1
1.449920458E1,-7.612194189E0,2.800002365E1,1.373264672E1,3.210190665E1
1.450923358E1,-1.049927563E1,2.668367040E1,1.497101332E1,3.234786383E1
1.451926258E1,-1.337363119E1,2.432078015E1,1.431369623E1,3.122877292E1
1.452929258E1,-1.559567254E1,2.133982751E1,1.299899306E1,2.945483085E1
1.453932158E1,-1.631884214E1,1.803432165E1,1.124605044E1,2.679580222E1
1.454935058E1,-1.534718225E1,1.419184143E1,8.997905361E0,2.275756285E1
1.455938058E1,-1.338113667E1,9.897723438E0,7.018446277E0,1.806317625E1
1.456940958E1,-1.139211739E1,5.474969625E0,5.555282301E0,1.380640404E1
1.457943858E1,-9.471091288E0,8.204655129E-1,4.562868887E0,1.054488057E1
1.458946858E1,-7.414655948E0,-3.697860455E0,3.963705869E0,9.184892976E0
1.459949758E1,-5.311901890E0,-7.719011709E0,3.413050767E0,9.972379806E0
1.460952658E1,-3.202347228E0,-1.129767667E1,2.938236390E0,1.210478249E1
1.461955658E1,-1.497274000E0,-1.412947971E1,2.742293855E0,1.447080515E1
1.462958558E1,-2.031527370E-1,-1.617908900E1,2.401045818E0,1.635754300E1
1.463961458E1,1.401118585E0,-1.736431143E1,1.603425961E0,1.749438252E1
1.464964458E1,3.684395487E0,-1.789735647E1,1.846886918E-1,1.827359430E1
1.465967358E1,6.276596578E0,-1.807499606E1,-1.495549364E0,1.919212898E1
1.466970258E1,8.572336820E0,-1.775014580E1,-2.540558775E0,1.987478487E1
1.467973158E1,1.022418869E1,-1.707558060E1,-2.859848617E0,2.010691974E1
1.468976158E1,1.055945751E1,-1.673080655E1,-2.422924491E0,1.993219992E1
1.469979058E1,9.500133238E0,-1.666702044E1,-1.240560476E0,1.922449199E1
1.470981958E1,7.962947021E0,-1.670408243E1,4.331053099E-1,1.851006416E1
1.471984958E1,6.312193843E0,-1.659730526E1,2.088615783E0,1.787950359E1
1.472987858E1,4.874002740E0,-1.612192312E1,3.197396683E0,1.714338512E1
1.473990758E1,3.551314320E0,-1.531186272E1,3.499344852E0,1.610311733E1
1.474993758E1,2.596518676E0,-1.424207720E1,3.233702337E0,1.483359373E1
1.475996658E1,1.835172898E0,-1.307533431E1,2.732318213E0,1.348324107E1
1.476999558E1,1.081427113E0,-1.203238517E1,2.346541143E0,1.230666619E1
1.478002558E1,2.866523653E-1,-1.123380637E1,2.134301541E0,1.143834858E1
1.479005458E1,-1.230101780E-1,-1.068071590E1,2.677777724E0,1.101196246E1
1.480008358E1,-3.235359803E-1,-1.020965251E1,3.765307503E0,1.088665332E1
1.481011258E1,-4.067255965E-1,-9.814560828E0,4.683106644E0,1.088221107E1
1.482014258E1,-5.040468731E-1,-9.501780984E0,5.229301783E0,1.085741692E1
1.483017158E1,-5.769506156E-1,-9.121729508E0,5.001087295E0,1.041871851E1
1.484020063E1,-4.963220434E-1,-8.870717311E0,4.210111045E0,9.831632427E0
1.485023063E1,-5.319191614E-1,-8.642584684E0,3.280573325E0,9.259555570E0
1.486025962E1,-4.399532765E-1,-8.180327203E0,2.239985286E0,8.492870311E0
1.487028863E1,-2.479078373E-1,-8.041432443E0,1.087316794E0,8.118395891E0
1.488031863E1,-1.259705137E-1,-7.794889857E0,9.473191023E-2,7.796483219E0
1.489034762E1,-2.379465938E-1,-7.004791859E0,-8.983603656E-1,7.066171447E0
1.490037663E1,-4.768380245E-1,-5.588051267E0,-1.465217518E0,5.796598472E0
1.491040663E1,-7.484603412E-1,-3.219288658E0,-1.827795320E0,3.776883382E0
1.492043562E1,-1.074257330E0,-8.777840137E-3,-2.315620190E0,2.552685395E0
1.493046463E1,-1.093970414E0,3.526613635E0,-1.432257932E0,3.960446664E0
1.494049462E1,6.732785234E-1,8.880212020E0,2.026967711E0,9.133458687E0
1.495052362E1,4.573473397E0,1.583296892E1,6.401352772E0,1.767984392E1
1.496055263E1,8.132236193E0,2.244927119E1,8.194013781E0,2.524371019E1
1.497058262E1,8.250577991E0,2.791026889E1,7.016000386E0,2.993792592E1
1.498061163E1,4.565846874E0,3.356311140E1,6.245278891E0,3.444318384E1
1.499064063E1,-1.057260717E0,3.731839444E1,6.908924419E0,3.796727012E1
1.500067062E1,-6.592861948E0,3.836251069E1,8.829468713E0,3.991375167E1
1.501069963E1,-1.046942676E1,3.815067776E1,1.038935850E1,4.090259014E1
1.502072863E1,-1.311521934E1,3.670296329E1,1.015604992E1,4.027731176E1
1.503075862E1,-1.393462592E1,3.408382934E1,8.269243473E0,3.773939069E1
1.504078763E1,-1.248481348E1,3.020298320E1,4.946062657E0,3.305380912E1
1.505081663E1,-1.043372483E1,2.513831679E1,1.266178297E0,2.724703273E1
1.506084662E1,-8.553809917E0,1.942712491E1,-1.897388735E0,2.131152107E1
1.507087563E1,-6.722650255E0,1.357635532E1,-3.677051969E0,1.558948881E1
1.508090462E1,-5.772177749E0,7.389660856E0,-4.069663264E0,1.022190210E1
1.509093362E1,-5.830862744E0,9.028937119E-1,-3.184638058E0,6.704930795E0
1.510096363E1,-6.071473330E0,-5.277677552E0,-1.563704364E0,8.195232765E0
1.511099262E1,-5.530656168E0,-1.125620354E1,-3.836415200E-1,1.254740836E1
1.512102163E1,-3.833619938E0,-1.638524312E1,9.573982403E-2,1.682801236E1
1.513105163E1,-1.224342346E0,-1.974908781E1,2.174347074E-1,1.978819753E1
1.514108062E1,1.864190583E0,-2.120816224E1,-6.023126212E-1,2.129845376E1
1.515110963E1,4.678738190E0,-2.177459372E1,-2.456935405E0,2.240669664E1
1.516113963E1,7.018247471E0,-2.158925569E1,-4.453999287E0,2.313417102E1
1.517116862E1,8.693534982E0,-2.087638421E1,-5.697103593E0,2.332076237E1
1.518119763E1,9.268841361E0,-1.982273934E1,-5.720943861E0,2.261816999E1
1.519122763E1,8.461370700E0,-1.878307165E1,-4.682518999E0,2.112639484E1
1.520125662E1,7.049591471E0,-1.778205055E1,-2.661896394E0,1.931278732E1
1.521128563E1,5.553518196E0,-1.653272042E1,-5.311914754E-1,1.744862669E1
1.522131462E1,3.792862799E0,-1.530238088E1,1.206053425E0,1.581149056E1
1.523134462E1,1.731984014E0,-1.396062264E1,2.615319228E0,1.430869134E1
1.524137363E1,-1.018334852E0,-1.231905193E1,3.480880222E0,1.284182905E1
1.525140262E1,-3.365719018E0,-1.058497593E1,3.445813301E0,1.162941999E1
1.526143262E1,-4.634824723E0,-9.230301778E0,2.538356714E0,1.063594499E1
1.527146163E1,-5.055258824E0,-8.015814037E0,1.508064160E0,9.595997810E0
1.528149062E1,-5.282868710E0,-7.106628721E0,7.102987075E-1,8.883546467E0
1.529152063E1,-5.126339917E0,-6.592176070E0,5.810272944E-1,8.371005853E0
1.530154963E1,-4.443172290E0,-6.511728323E0,1.047455009E0,7.952455453E0
1.531157862E1,-3.518342748E0,-6.723295203E0,1.845588544E0,7.809457801E0
1.532160863E1,-2.761780286E0,-7.060662589E0,2.805828531E0,8.084123965E0
1.533163763E1,-1.665064239E0,-7.482010610E0,3.740634592E0,8.529083704E0
1.534166662E1,-5.348787296E-1,-7.770778279E0,4.194790170E0,8.846883908E0
1.535169663E1,6.314247385E-1,-8.060251706E0,4.045420707E0,9.040563227E0
1.536172562E1,1.735380954E0,-8.097082148E0,3.424989027E0,8.961296569E0
1.537175462E1,2.587157283E0,-7.700482467E0,2.136371455E0,8.399696187E0
1.538178363E1,2.971516988E0,-6.883055753E0,1.161631250E-1,7.497990636E0
1.539181362E1,2.933880799E0,-5.952900567E0,-1.849352835E0,6.889469328E0
1.540184263E1,3.020025489E0,-5.008596289E0,-2.457543808E0,6.343982370E0
1.541187163E1,2.570052423E0,-3.941091177E0,-1.647986276E0,4.985301184E0
1.542190162E1,1.831545724E0,-2.580969175E0,3.557343677E-2,3.165000331E0
1.543193063E1,1.942368587E0,-1.033864326E0,1.962657695E0,2.948507487E0
1.544195963E1,2.868409233E0,5.381169176E-1,4.134625829E0,5.060876613E0
1.545198962E1,3.796746227E0,1.886158572E0,6.277516930E0,7.574965009E0
1.546201863E1,4.386442603E0,3.293091629E0,8.179540168E0,9.848360704E0
1.547204763E1,5.379391038E0,5.098382624E0,9.744957912E0,1.224318415E1
1.548207762E1,7.148143367E0,8.144724092E0,9.770335997E0,1.459081731E1
1.549210663E1,8.812251586E0,1.189031537E1,7.346432390E0,1.652287646E1
1.550213562E1,9.392135165E0,1.561120508E1,2.950631318E0,1.845611422E1
1.551216562E1,8.338624195E0,2.001392458E1,-1.266766673E0,2.171852961E1
1.552219463E1,3.872826689E0,2.419224665E1,-2.183449581E0,2.459737865E1
1.553222362E1,-5.192745575E0,2.670720427E1,7.194354205E-1,2.721685055E1
1.554225362E1,-1.445863234E1,2.830666333E1,3.195538437E0,3.194574626E1
1.555228263E1,-1.967174318E1,2.821348912E1,2.729641650E0,3.450259978E1
1.556231162E1,-1.920720178E1,2.709556698E1,1.865472293E-1,3.321326768E1
1.557234163E1,-1.586272657E1,2.501840209E1,-3.189030486E0,2.979457086E1
1.558237063E1,-1.201685028E1,2.198849656E1,-5.991237252E0,2.576419212E1
1.559239962E1,-8.470551413E0,1.842484315E1,-7.921548150E0,2.177099014E1
1.560242963E1,-6.194480621E0,1.451866219E1,-9.125020906E0,1.823263965E1
1.561245863E1,-4.619195116E0,1.065050451E1,-9.505475839E0,1.500414212E1
1.562248762E1,-3.847503567E0,6.934572061E0,-8.641709940E0,1.172905470E1
1.563251663E1,-3.683008527E0,3.276382626E0,-6.727216930E0,8.339944997E0
1.564254663E1,-3.442657558E0,-3.566018021E-1,-4.573082803E0,5.735167150E0
1.565257562E1,-3.020138632E0,-3.812343090E0,-2.368184320E0,5.409574306E0
1.566260463E1,-2.586260905E0,-7.000200625E0,-3.726664424E-1,7.471976615E0
1.567263462E1,-1.873960404E0,-9.622006170E0,1.236870883E0,9.880515164E0
1.568266362E1,-8.027607286E-1,-1.155539270E1,2.328341538E0,1.181493545E1
1.569269263E1,5.244668850E-1,-1.290698596E1,2.450100303E0,1.314794066E1
1.570272262E1,2.491017948E0,-1.385742162E1,1.533423973E0,1.416279258E1
1.571275163E1,5.057312951E0,-1.415466132E1,1.746782586E-1,1.503201131E1
1.572278063E1,6.995081388E0,-1.402758496E1,-1.326825618E0,1.573101298E1
1.573281062E1,7.936417034E0,-1.375618527E1,-2.795765473E0,1.612562102E1
1.574283963E1,7.998707423E0,-1.329948148E1,-3.886685175E0,1.599880776E1
1.575286863E1,7.316270113E0,-1.286119173E1,-3.890309279E0,1.529943030E1
1.576289862E1,6.485459121E0,-1.226664918E1,-2.255131767E0,1.405764851E1
1.577292763E1,5.222770443E0,-1.173883272E1,-5.943753183E-1,1.286199078E1
1.578295663E1,4.022417761E0,-1.153506778E1,7.272275662E-1,1.223791213E1
1.579298562E1,3.015346547E0,-1.106530832E1,2.145336406E0,1.166772606E1
1.580301563E1,1.957255745E0,-1.044660625E1,3.197889018E0,1.109905070E1
1.581304462E1,8.537326616E-1,-9.977905136E0,3.556081263E0,1.062700166E1
1.582307362E1,-6.615949094E-2,-9.559168482E0,3.423517867E0,1.015394277E1
1.583310363E1,-6.139164206E-1,-9.212349072E0,3.051053739E0,9.723846857E0
1.584313321E1,-7.520411029E-1,-8.947207662E0,2.546215664E0,9.332807990E0
1.585316221E1,-3.909794833E-1,-8.844658610E0,1.981249502E0,9.072276476E0
1.586319221E1,2.235082103E-1,-8.919304749E0,1.599951400E0,9.064424836E0
1.587322121E1,8.981969360E-1,-9.064577068E0,1.532034820E0,9.236906725E0
1.588325021E1,1.434570068E0,-9.246433076E0,1.772023262E0,9.523370325E0
1.589328021E1,1.795502756E0,-9.286985856E0,2.149625339E0,9.700145645E0
1.590330921E1,1.971325315E0,-8.928486632E0,2.261770257E0,9.419108330E0
1.591333821E1,1.526766040E0,-8.352372753E0,2.136981320E0,8.755560194E0
1.592336821E1,6.698802678E-1,-7.305206596E0,1.883933122E0,7.573901702E0
1.593339721E1,-5.707130983E-2,-6.051867031E0,1.101346457E0,6.151529542E0
1.594342621E1,-1.002766640E0,-4.803729149E0,4.135852575E-2,4.907449969E0
1.595345521E1,-2.340277606E0,-3.902666200E0,-7.291331738E-1,4.608615619E0
1.596348521E1,-3.006875978E0,-2.287358258E0,-1.269673178E0,3.985646864E0
1.597351421E1,-2.149696090E0,6.100709993E-1,-3.172436454E-1,2.256994336E0
1.598354321E1,-2.525397822E0,1.931545830E0,1.710141594E0,3.610136801E0
1.599357321E1,-2.289064914E0,4.058624890E0,3.594310359E0,5.884838242E0
1.600360221E1,-3.147284290E-1,8.442563716E0,5.372622301E0,1.001204307E1
1.601363121E1,3.894348243E0,1.413584265E1,5.425517968E0,1.563407307E1
1.602366121E1,7.581619683E0,1.843736438E1,2.877906573E0,2.014198870E1
1.603369021E1,7.848760255E0,2.134924854E1,-1.290864657E0,2.278288354E1
1.604371921E1,5.771679567E0,2.359191536E1,-4.519062717E0,2.470450735E1
1.605374921E1,3.529629044E0,2.470713843E1,-5.879213955E0,2.564110230E1
1.606377821E1,2.120336636E0,2.488401904E1,-5.983946943E0,2.568107965E1
1.607380721E1,1.001332757E0,2.446349197E1,-4.888596221E0,2.496724814E1
1.608383721E1,4.933763623E-2,2.378189841E1,-2.275585474E0,2.389057169E1
1.609386621E1,-1.275721537E0,2.224819947E1,1.467111431E0,2.233298595E1
1.610389521E1,-2.694024505E0,1.974670682E1,5.457993404E0,2.066349173E1
1.611392521E1,-3.711202632E0,1.661340147E1,8.705824660E0,1.911987229E1
1.612395421E1,-4.381301731E0,1.297806705E1,1.000333351E1,1.696150673E1
1.613398321E1,-4.666019619E0,9.056031947E0,8.937715293E0,1.355235066E1
1.614401321E1,-4.870511660E0,5.260632334E0,5.969566301E0,9.329086676E0
1.615404221E1,-5.064798557E0,1.876484354E0,2.522888197E0,5.961404432E0
1.616407121E1,-5.389631267E0,-1.018276234E0,-4.449788122E-1,5.503000801E0
1.617410021E1,-5.518167100E0,-3.480831690E0,-2.921394070E0,7.148489401E0
1.618413021E1,-4.736830862E0,-5.633835551E0,-4.594362575E0,8.676741157E0
1.619415921E1,-3.096955551E0,-7.167595299E0,-5.307063319E0,9.440893874E0
1.620418821E1,-9.777877736E-1,-8.429550152E0,-5.240082879E0,9.973557704E0
1.621421821E1,1.257330290E0,-9.688159229E0,-4.590343199E0,1.079409836E1
1.622424721E1,3.387252851E0,-1.094771614E1,-3.265244265E0,1.191586298E1
1.623427621E1,5.321787193E0,-1.177503751E1,-1.486666274E0,1.300704055E1
1.624430621E1,6.732445511E0,-1.206353562E1,-7.814949900E-3,1.381501992E1
1.625433521E1,7.208932775E0,-1.224649032E1,8.407411717E-1,1.423559211E1
1.626436421E1,7.171057436E0,-1.244742521E1,8.368447334E-1,1.438967575E1
1.627439421E1,6.794473944E0,-1.234325122E1,1.147574544E-1,1.409020568E1
1.628442321E1,6.195244267E0,-1.200313622E1,-9.441088347E-1,1.354059350E1
1.629445221E1,5.553786584E0,-1.157377284E1,-2.028065819E0,1.299653085E1
1.630448221E1,4.814688877E0,-1.112353957E1,-2.921040314E0,1.246783214E1
1.631451121E1,4.207589433E0,-1.070095194E1,-3.551858988E0,1.203452881E1
1.632454021E1,3.858250165E0,-1.015594701E1,-3.808026091E0,1.151218557E1
1.633456921E1,3.412176023E0,-9.582853798E0,-3.602434480E0,1.079127269E1
1.634459921E1,3.106789983E0,-9.235712791E0,-3.118696083E0,1.023116807E1
1.635462821E1,2.893567756E0,-8.951328780E0,-2.384255392E0,9.704828441E0
1.636465721E1,2.503889717E0,-8.678404727E0,-1.749358869E0,9.200240691E0
1.637468721E1,2.129532552E0,-8.588394443E0,-1.387178823E0,8.956544707E0
1.638471621E1,1.734454170E0,-8.626244055E0,-9.020125365E-1,8.845001096E0
1.639474521E1,1.178691379E0,-8.467446542E0,-3.911774846E-1,8.558036231E0
1.640477521E1,6.297875181E-1,-8.183288233E0,-5.074973881E-2,8.207643643E0
1.641480421E1,2.897866921E-1,-7.802967201E0,8.804371879E-2,7.808842754E0
1.642483321E1,1.159964794E-1,-7.244872102E0,-1.033531912E-1,7.246537713E0
1.643486321E1,-1.368916507E-1,-6.673230758E0,-2.927397553E-1,6.681051162E0
1.644489221E1,-5.309511548E-1,-5.967430898E0,-4.217363492E-1,6.005830684E0
1.645492121E1,-1.122121907E0,-4.806270933E0,1.499693871E-2,4.935546856E0
1.646495121E1,-2.411570221E0,-3.197045850E0,1.215407362E0,4.184971703E0
1.647498021E1,-4.171825231E0,-1.386813372E0,3.039795510E0,5.344879215E0
1.648500921E1,-5.936234833E0,9.357638347E-1,4.968008426E0,7.797156255E0
1.649503921E1,-7.128178634E0,4.029465410E0,5.847965850E0,1.006211840E1
1.650506821E1,-7.446972924E0,7.581054842E0,5.119553638E0,1.179574617E1
1.651509721E1,-6.553324245E0,1.095251086E1,2.610757231E0,1.302764775E1
1.652512621E1,-4.318084559E0,1.359565114E1,4.259828165E-2,1.426497104E1
1.653515621E1,-1.772983959E0,1.613316731E1,-3.328055348E-1,1.623370935E1
1.654518521E1,6.252550489E-1,1.946157086E1,1.550825871E0,1.953327277E1
1.655521421E1,2.305686940E0,2.254489889E1,3.987323942E0,2.301059344E1
1.656524421E1,3.897383825E0,2.548774172E1,6.181988044E0,2.651474222E1
1.657527321E1,3.658772403E0,2.731128012E1,7.569071558E0,2.857592486E1
1.658530221E1,9.136115120E-1,2.771491809E1,8.187047408E0,2.891330345E1
1.659533221E1,-2.170462184E0,2.694748273E1,8.913870932E0,2.846638064E1
1.660536121E1,-4.321698723E0,2.549618510E1,9.242355228E0,2.746185836E1
1.661539021E1,-6.250236161E0,2.296467752E1,8.098499513E0,2.514015831E1
1.662542021E1,-7.105920038E0,1.915466571E1,5.524521854E0,2.116401805E1
1.663544921E1,-6.185087653E0,1.483130112E1,2.425988140E0,1.625140673E1
