"Time (s)","Linear Acceleration x (m/s^2)","Linear Acceleration y (m/s^2)","Linear Acceleration z (m/s^2)","Absolute acceleration (m/s^2)"
1.412458252E-3,7.125488622E-1,-1.288871341E0,-8.527497447E-1,1.701792391E0
1.146145840E-2,1.009661750E0,-1.239796829E0,-9.827951829E-1,1.876805637E0
2.150945831E-2,1.247729747E0,-1.135343338E0,-1.039168335E0,1.981339155E0
3.155845846E-2,1.335288147E0,-1.034836133E0,-1.006139826E0,1.966264887E0
4.160645837E-2,1.239627845E0,-9.102664661E-1,-9.390967476E-1,1.801989160E0
5.165545829E-2,9.833621436E-1,-6.687764597E-1,-9.015914639E-1,1.492357272E0
6.170345843E-2,7.911431151E-1,-3.451196247E-1,-8.631682404E-1,1.220686035E0
7.175245835E-2,6.052344017E-1,-3.569198906E-2,-8.828219017E-1,1.070960835E0
8.180145826E-2,4.197363457E-1,2.507116503E-1,-8.695885563E-1,9.976067305E-1
9.184945840E-2,2.878980049E-1,4.160445964E-1,-8.256560862E-1,9.683420574E-1
1.018984583E-1,1.539229088E-1,5.035575342E-1,-7.083258569E-1,8.826029525E-1
1.119464585E-1,6.481543534E-2,4.129502499E-1,-5.698649597E-1,7.067354681E-1
1.219954584E-1,-4.480757900E-3,2.252932191E-1,-4.695641613E-1,5.208335755E-1
1.320434583E-1,-8.619062651E-2,1.348952651E-2,-4.040134386E-1,4.133251142E-1
1.420924584E-1,-2.003025848E-1,-1.925265920E-1,-3.247333074E-1,4.273632355E-1
1.521414584E-1,-2.379467399E-1,-3.531852740E-1,-3.106355973E-1,5.271175990E-1
1.621894583E-1,-2.741497026E-1,-5.684382391E-1,-3.137300900E-1,7.047741911E-1
1.722384584E-1,-3.513666438E-1,-8.025151455E-1,-3.263343481E-1,9.348706776E-1
1.822864583E-1,-4.332989989E-1,-9.133508724E-1,-3.880071974E-1,1.082823819E0
1.923354582E-1,-4.421119224E-1,-8.782418507E-1,-4.640186620E-1,1.087237333E0
2.023834584E-1,-4.321647122E-1,-6.968653142E-1,-4.581376056E-1,9.392963698E-1
2.124324583E-1,-3.864451137E-1,-3.713169050E-1,-4.348106503E-1,6.901277936E-1
2.224804584E-1,-2.677042437E-1,-4.807756126E-2,-3.308097339E-1,4.282663820E-1
2.325294584E-1,-3.276858589E-1,2.869708192E-1,-2.728754481E-1,5.139954118E-1
2.425784583E-1,-3.274328206E-1,4.123345381E-1,-1.507635120E-1,5.476875568E-1
2.526264584E-1,-4.440925205E-1,4.087308991E-1,2.576056637E-2,6.041048927E-1
2.626754583E-1,-3.952065817E-1,2.822000760E-1,4.068388132E-1,6.335163336E-1
2.727234582E-1,-4.518542607E-1,1.680583334E-1,7.232771873E-1,8.692213562E-1
2.827724584E-1,-5.300093877E-1,-1.550681591E-3,8.882834204E-1,1.034388607E0
2.928204583E-1,-6.499310298E-1,-1.622233969E-1,7.793953279E-1,1.027708057E0
3.028694585E-1,-6.392971373E-1,-3.205291593E-1,4.511115912E-1,8.455420980E-1
3.129184584E-1,-5.980865461E-1,-4.753634298E-1,4.571937919E-2,7.653549298E-1
3.229664583E-1,-6.612459768E-1,-5.495441312E-1,-2.620312019E-1,8.988355493E-1
3.330154584E-1,-9.007852791E-1,-5.372105992E-1,-3.925890025E-1,1.119881901E0
3.430634583E-1,-1.092146594E0,-4.662049359E-1,-2.862633061E-1,1.221506408E0
3.531124583E-1,-8.603206464E-1,-2.687824702E-1,1.111530845E-1,9.081578272E-1
3.631604584E-1,-2.506745204E-1,-2.408643544E-2,5.281567705E-1,5.851217358E-1
3.732094583E-1,1.362315731E-1,1.222471529E-1,7.009513485E-1,7.244557964E-1
3.832584585E-1,9.697826430E-2,2.414391357E-1,6.385125140E-1,6.894895725E-1
3.933064584E-1,-8.954930373E-2,3.778418130E-1,5.129705282E-1,6.433679167E-1
4.033554583E-1,-1.400794796E-1,5.481203341E-1,3.699498260E-1,6.759593442E-1
4.134034584E-1,-3.983781114E-2,6.276869059E-1,2.355270159E-1,6.716032149E-1
4.234524583E-1,-3.204763882E-2,6.619036424E-1,1.662035966E-1,6.832035703E-1
4.335004583E-1,-1.513225058E-1,6.075251216E-1,1.504875235E-1,6.439190701E-1
4.435494584E-1,-3.254795583E-1,4.084987646E-1,7.072214641E-2,5.270766600E-1
4.535974583E-1,-5.478826448E-1,1.769367456E-1,-4.112237133E-2,5.772114464E-1
4.636464585E-1,-6.583148407E-1,-1.081325591E-1,-2.270298421E-1,7.047081872E-1
4.736954584E-1,-6.211202634E-1,-3.639611077E-1,-4.641717859E-1,8.565707889E-1
4.837434583E-1,-5.233187842E-1,-5.534529948E-1,-7.360859518E-1,1.059242794E0
4.937924584E-1,-4.301165056E-1,-5.778107411E-1,-9.814479844E-1,1.217417598E0
5.038404583E-1,-3.798917737E-1,-5.794473767E-1,-1.143669627E0,1.337182575E0
5.138894583E-1,-3.096132117E-1,-4.981968069E-1,-1.208209001E0,1.343067157E0
5.239374584E-1,-8.168721065E-2,-1.779810584E-1,-1.194431791E0,1.210379016E0
5.339864583E-1,-6.580259152E-2,-1.275195873E-1,-1.334853845E0,1.342544604E0
5.440354582E-1,-1.267838614E-1,-1.579970294E-1,-1.673753786E0,1.685968252E0
5.540834584E-1,-3.551867028E-1,-1.427773118E-1,-2.034750355E0,2.070447286E0
5.641324583E-1,-7.425613046E-1,-1.511060858E-1,-2.329027855E0,2.449204175E0
5.741804584E-1,-1.080603240E0,-2.493469101E-1,-2.360723273E0,2.608235345E0
5.842292500E-1,-1.110527901E0,-4.071188217E-1,-1.933005295E0,2.266170211E0
5.942772501E-1,-1.039146774E0,-6.331751025E-1,-1.234589299E0,1.733478429E0
6.043262500E-1,-9.444102587E-1,-6.274734825E-1,-7.053695778E-1,1.335357611E0
6.143752499E-1,-9.089987167E-1,-3.863202757E-1,-6.160334782E-1,1.164052949E0
6.244232501E-1,-7.030696486E-1,-1.708041859E-1,-8.465213636E-1,1.113588533E0
6.344722500E-1,-4.977597275E-1,-8.084360361E-2,-1.012500354E0,1.131131028E0
6.445202499E-1,-1.658559796E-1,-7.785567641E-2,-9.064084002E-1,9.247409909E-1
6.545692501E-1,1.065986882E-1,-1.175699651E-2,-6.973037823E-1,7.055027088E-1
6.646172500E-1,4.985184038E-1,3.640476465E-3,-4.248388088E-1,6.549976072E-1
6.746662501E-1,8.853036793E-1,-3.802502811E-2,-2.747267497E-1,9.277301840E-1
6.847152500E-1,1.169907399E0,-6.680619299E-2,-3.697580373E-1,1.228766616E0
6.947632500E-1,1.396381902E0,-9.431383431E-2,-5.553381371E-1,1.505715100E0
7.048122501E-1,1.665855367E0,-8.826898277E-2,-6.548869836E-1,1.792133499E0
7.148602500E-1,1.889680935E0,-6.557827771E-2,-6.755989909E-1,2.007891567E0
7.249092499E-1,2.127876474E0,-3.143112302E-2,-6.831428493E-1,2.235068312E0
7.349572501E-1,2.251092072E0,-3.309757948E-2,-6.077163255E-1,2.331915543E0
7.450062500E-1,1.826000371E0,-6.508418798E-2,-5.739276052E-1,1.915177852E0
7.550552499E-1,1.403922618E0,-4.827578187E-2,-7.005595120E-1,1.569749310E0
7.651032500E-1,1.374584798E0,1.403507173E-2,-8.274113473E-1,1.604459375E0
7.751522500E-1,1.329973174E0,4.584918737E-2,-8.726220918E-1,1.591351660E0
7.852002501E-1,1.222847213E0,1.811350465E-2,-8.933901592E-1,1.514539330E0
7.952492500E-1,1.144669647E0,-8.711825073E-2,-8.850461825E-1,1.449539560E0
8.052972499E-1,1.027965362E0,-2.080146968E-1,-8.451365968E-1,1.346936809E0
8.153462501E-1,9.437717427E-1,-3.146375048E-1,-8.554557630E-1,1.312061898E0
8.253942500E-1,9.234036979E-1,-3.632237738E-1,-8.941644037E-1,1.335715494E0
8.354432499E-1,1.105357208E0,-3.320709783E-1,-1.021559957E0,1.541321004E0
8.454922501E-1,1.098226821E0,-2.949569464E-1,-1.174573404E0,1.634846914E0
8.555402500E-1,1.010851878E0,-3.305507022E-1,-1.387502174E0,1.748212679E0
8.655892501E-1,6.390873684E-1,-4.239821917E-1,-1.431240517E0,1.623774301E0
8.756372500E-1,5.925831467E-1,-4.728380173E-1,-1.550255914E0,1.725695215E0
8.856862499E-1,4.224281479E-1,-4.885068011E-1,-1.622949668E0,1.746725525E0
8.957352501E-1,2.290352909E-1,-6.179881293E-1,-1.841746631E0,1.956117876E0
9.057832500E-1,-1.432274012E-1,-7.943576950E-1,-2.075250510E0,2.226697760E0
9.158322499E-1,-3.785241830E-1,-8.573228520E-1,-2.304784130E0,2.488033946E0
9.258802501E-1,-5.128595772E-1,-8.757263786E-1,-2.540288926E0,2.735505340E0
9.359292500E-1,-4.343877505E-1,-8.190920019E-1,-2.666457807E0,2.823048292E0
9.459772501E-1,-8.654671463E-1,-8.529041111E-1,-2.601570085E0,2.871349110E0
9.560262500E-1,-1.176346353E0,-7.638422459E-1,-2.543129504E0,2.904264690E0
9.660742499E-1,-1.188140480E0,-6.893995893E-1,-2.577200060E0,2.920429719E0
9.761232501E-1,-1.345941335E0,-6.382358676E-1,-2.591000658E0,2.988676548E0
9.861722500E-1,-1.068902742E0,-2.524628913E-1,-2.678632879E0,2.895058667E0
9.962202499E-1,1.166304637E-1,7.879006147E-2,-2.951311934E0,2.954666254E0
1.006269250E0,4.520564282E-1,2.409052849E-4,-2.880137286E0,2.915398062E0
1.016317250E0,8.174210139E-1,-1.110737085E-1,-2.969573958E0,3.082025953E0
1.026366250E0,7.724351679E-1,-1.987936378E-1,-3.173798490E0,3.272487105E0
1.036414250E0,7.050477616E-1,-2.513028038E-1,-3.281874915E0,3.366147413E0
1.046463250E0,6.998099720E-1,-2.954720861E-1,-3.231093017E0,3.319186622E0
1.056512250E0,6.721397781E-1,-2.350902289E-1,-2.937455202E0,3.022529133E0
1.066560250E0,7.984675567E-1,-1.099919736E-2,-2.501242390E0,2.625620862E0
1.076609250E0,8.708005379E-1,4.536281598E-1,-2.072378358E0,2.293212625E0
1.086657250E0,9.059241776E-1,1.043550239E0,-1.795099298E0,2.265408839E0
1.096706250E0,9.140139467E-1,1.634952248E0,-1.666226081E0,2.506950279E0
1.106754250E0,9.250208916E-1,2.262850823E0,-1.546218996E0,2.892568181E0
1.116803250E0,9.101271562E-1,2.811386894E0,-1.472114308E0,3.301416097E0
1.126852250E0,6.972664332E-1,3.131019675E0,-1.361099657E0,3.484545445E0
1.136900250E0,5.092490678E-1,3.197497255E0,-1.314095060E0,3.494305243E0
1.146949250E0,2.490725295E-1,2.926664751E0,-1.265202397E0,3.198146462E0
1.156997250E0,-5.040212184E-2,2.503211732E0,-1.083788438E0,2.728224098E0
1.167046250E0,-1.892312475E-1,1.710186617E0,-8.569574010E-1,1.922218177E0
1.177094250E0,-1.499999388E-1,7.841244829E-1,-5.361300337E-1,9.616582550E-1
1.187143250E0,-2.965184453E-1,6.491929650E-2,-1.272623098E-1,3.291403940E-1
1.197192250E0,-4.808057258E-1,-7.093380100E-1,3.027933482E-1,9.088555276E-1
1.207240250E0,-5.875000159E-1,-1.398275084E0,8.116309547E-1,1.720196003E0
1.217289250E0,-5.488725784E-1,-2.008863562E0,1.105591536E0,2.357780007E0
1.227337250E0,-5.559659819E-1,-2.487556981E0,1.333078630E0,2.876479887E0
1.237386250E0,-5.574910820E-1,-2.646682523E0,1.412330621E0,3.051295212E0
1.247434250E0,-7.471648175E-1,-2.461475476E0,1.449697838E0,2.952751362E0
1.257483250E0,-1.079491173E0,-1.885287922E0,1.580806446E0,2.686737941E0
1.267531250E0,-1.533924787E0,-8.418060958E-1,1.821486321E0,2.525742499E0
1.277580250E0,-1.835125097E0,5.200174463E-1,2.113726505E0,2.847093606E0
1.287629250E0,-2.029529961E0,2.120272316E0,2.188741311E0,3.661302376E0
1.297677250E0,-1.621391531E0,3.649701033E0,2.180907212E0,4.550338932E0
1.307726250E0,-6.551113705E-1,4.610109127E0,2.287726779E0,5.188060417E0
1.317774250E0,3.714461285E-1,5.088231273E0,2.645320999E0,5.746807192E0
1.327823250E0,1.151336643E0,4.862279658E0,2.969515486E0,5.812517678E0
1.337871250E0,1.778153629E0,3.892923569E0,3.216878436E0,5.353969659E0
1.347920250E0,2.628239821E0,2.429946120E0,3.782338395E0,5.207529783E0
1.357969250E0,3.565757820E0,1.000538120E0,3.726961170E0,5.254135983E0
1.368017250E0,4.411786775E0,3.597195375E-1,2.270724976E0,4.974882170E0
1.378066250E0,3.335026690E0,-2.878794765E-1,7.816440940E-1,3.437476561E0
1.388114250E0,4.923786812E-1,-5.868300712E-1,-3.858630234E-1,8.577275622E-1
1.398163250E0,-7.649636688E-1,-4.081590414E-1,-5.562058640E-1,1.030110761E0
1.408211250E0,-1.180094272E0,-7.519431621E-1,-3.259144449E-1,1.436753714E0
1.418260250E0,-1.402839713E0,-9.904288691E-1,4.663856149E-2,1.717871870E0
1.428309250E0,-1.682615241E0,-1.010901141E0,3.654998025E-1,1.996673552E0
1.438357250E0,-2.113623009E0,-8.903917801E-1,5.855080158E-1,2.367069788E0
1.448406250E0,-2.434158454E0,-8.590793556E-1,3.223415038E-1,2.601355178E0
1.458454250E0,-2.887783105E0,-9.188981259E-1,2.559209347E-2,3.030564301E0
1.468503250E0,-3.063114790E0,-1.148477354E0,2.198202252E-2,3.271414933E0
1.478551250E0,-2.993741962E0,-1.502713373E0,3.693107253E-1,3.370019114E0
1.488600250E0,-2.181545143E0,-1.404558502E0,9.037713790E-1,2.747494587E0
1.498649250E0,-1.447061621E0,-9.737075865E-1,1.180448760E0,2.106075277E0
1.508697250E0,-9.833465753E-1,-5.777253717E-1,1.224433562E0,1.673312476E0
1.518746250E0,-6.497651151E-1,-3.660245901E-1,1.100703556E0,1.329555197E0
1.528794250E0,-4.640123031E-1,-3.987573034E-1,9.141329375E-1,1.099979014E0
1.538843250E0,-3.675454509E-1,-5.232714218E-1,8.029957867E-1,1.026501278E0
1.548891250E0,-2.348136739E-1,-5.894449461E-1,8.200810584E-1,1.036877885E0
1.558940250E0,-1.373123031E-1,-6.895282280E-1,8.569866371E-1,1.108480916E0
1.568989250E0,-1.237612346E-1,-7.188280410E-1,8.364307505E-1,1.109795925E0
1.579037250E0,-5.619753482E-2,-7.362854880E-1,6.972638020E-1,1.015603905E0
1.589086625E0,5.384092418E-2,-8.795679992E-1,5.397716796E-1,1.033388686E0
1.599134625E0,1.700961429E-1,-1.030440781E0,3.824210599E-1,1.112199069E0
1.609183625E0,2.585167695E-1,-1.137185796E0,3.069378912E-1,1.205915969E0
1.619231625E0,3.359465859E-1,-1.370042973E0,2.043271503E-1,1.425351690E0
1.629280625E0,4.442014249E-1,-1.545973998E0,1.037936327E-1,1.611869606E0
1.639328625E0,5.269943075E-1,-1.681830545E0,9.119083643E-2,1.764820884E0
1.649377625E0,6.689110187E-1,-1.752521628E0,1.266369501E-1,1.880109285E0
1.659426625E0,9.269631173E-1,-1.822988178E0,1.732281491E-1,2.052450855E0
1.669474625E0,1.200038613E0,-1.877739751E0,1.753922036E-1,2.235343748E0
1.679523625E0,1.435396425E0,-1.857669184E0,1.429901505E-1,2.351965960E0
1.689571625E0,1.772881925E0,-1.768690349E0,1.283589551E-1,2.507558951E0
1.699620625E0,2.071402311E0,-1.465549639E0,1.802161565E-1,2.543820187E0
1.709668625E0,2.089919420E0,-1.034340874E0,1.612881348E-1,2.337442638E0
1.719717625E0,2.012785875E0,-4.850499272E-1,8.330411196E-2,2.072081076E0
1.729766625E0,1.589248071E0,3.048475116E-1,-8.213203758E-2,1.620304635E0
1.739814625E0,1.514977030E0,1.101348211E0,-1.052545595E-1,1.875953573E0
1.749863625E0,1.729322508E0,1.816172079E0,-1.626733401E-1,2.513065851E0
1.759911625E0,2.295554592E0,2.315633639E0,-4.826405820E-1,3.296160185E0
1.769960625E0,3.016414248E0,2.439441998E0,-1.128736862E0,4.040257304E0
1.780008625E0,3.926718429E0,2.150897693E0,-1.865781318E0,4.850424562E0
1.790057625E0,4.288897013E0,1.765036424E0,-2.255063647E0,5.157063430E0
1.800106625E0,2.168596338E0,1.484678805E0,-2.596502596E0,3.694442713E0
1.810154625E0,1.023460375E0,1.223476081E0,-2.411864775E0,2.891618327E0
1.820203625E0,1.424598080E0,7.761944890E-1,-1.777545665E0,2.406579765E0
1.830251625E0,2.137504353E0,4.563476998E-1,-1.547369436E0,2.677971294E0
1.840300625E0,2.130811630E0,7.391307431E-1,-1.336854469E0,2.621803259E0
1.850348625E0,1.298734716E0,1.736766890E0,-8.360799176E-1,2.324241968E0
1.860397625E0,3.131869568E-1,2.871364709E0,-1.946231112E-1,2.894943784E0
1.870446625E0,-5.236996572E-1,3.809597238E0,1.657524839E-1,3.848995496E0
1.880494625E0,-1.266190430E0,4.384919404E0,3.497456494E-1,4.577453266E0
1.890543625E0,-1.603504753E0,4.699607195E0,8.356638882E-1,5.035461191E0
1.900591625E0,-1.548689445E0,4.634430621E0,1.273321255E0,5.049528017E0
1.910640625E0,-9.710169172E-1,3.735896008E0,1.815943014E0,4.265845973E0
1.920688625E0,-9.191000010E-1,2.779630081E0,2.010007716E0,3.551227847E0
1.930737625E0,-8.840517173E-1,1.779196626E0,1.700819086E0,2.615315207E0
1.940785625E0,-1.168386977E-1,6.678403205E-1,1.193454283E0,1.372587010E0
1.950834625E0,5.811092651E-1,-3.077225876E-1,9.240468916E-1,1.134126901E0
1.960883625E0,7.807906929E-1,-1.107294245E0,1.043328044E0,1.710049139E0
1.970931625E0,5.908038390E-1,-1.831592356E0,1.362256236E0,2.357863819E0
1.980980625E0,2.596668803E-1,-2.378810465E0,1.704569928E0,2.937979707E0
1.991028625E0,-2.443748034E-1,-2.700440070E0,1.778558256E0,3.242740367E0
2.001077625E0,-8.226294212E-1,-2.685898629E0,1.570788850E0,3.218407716E0
2.011125625E0,-1.072044378E0,-2.373002425E0,1.124394865E0,2.836315122E0
2.021174625E0,-1.113558659E0,-1.788045217E0,5.722305970E-1,2.182788685E0
2.031223625E0,-1.153163313E0,-1.118989261E0,2.250932443E-1,1.622525673E0
2.041271625E0,-1.442515703E0,-4.386008155E-1,2.846073747E-2,1.507989470E0
2.051320625E0,-1.763053194E0,2.153196234E-1,-1.426416564E-1,1.781871418E0
2.061368625E0,-2.028064649E0,5.611110932E-1,-3.151402923E-1,2.127723028E0
2.071417625E0,-2.401149167E0,5.937321246E-1,-4.701464709E-1,2.517751549E0
2.081465625E0,-2.739216758E0,2.785098982E-1,-6.389346099E-1,2.826502016E0
2.091514625E0,-3.063255416E0,-2.214901900E-1,-7.672306343E-1,3.165633348E0
2.101563625E0,-3.356590052E0,-7.153963101E-1,-7.268334639E-1,3.508101416E0
2.111611625E0,-3.451990299E0,-1.125614156E0,-5.447301185E-1,3.671508567E0
2.121660625E0,-3.475844015E0,-1.352682590E0,-3.076138294E-1,3.742441459E0
2.131708625E0,-3.589310989E0,-1.338260432E0,-1.810262883E-1,3.834953048E0
2.141757625E0,-3.844524996E0,-1.211575243E0,-8.257789691E-2,4.031762161E0
2.151805625E0,-4.004635209E0,-1.077958764E0,-4.730574707E-2,4.147449347E0
2.161854625E0,-4.315947402E0,-9.834771144E-1,4.167957444E-2,4.426778332E0
2.171903625E0,-4.643107596E0,-1.093974872E0,4.421960492E-2,4.770449093E0
2.181951625E0,-3.739545840E0,-1.338789605E0,-2.163433246E-3,3.971972479E0
2.192000625E0,-2.294896050E0,-1.510077941E0,-4.613275906E-2,2.747546450E0
2.202048625E0,-1.416471620E0,-1.503429072E0,-1.889656377E-1,2.074222465E0
2.212097625E0,-7.139825995E-1,-1.373156615E0,-2.998545742E-1,1.576465353E0
2.222145625E0,-5.073517925E-1,-1.179686283E0,-5.268130803E-1,1.388019304E0
2.232194625E0,-5.564498390E-1,-8.611024922E-1,-9.085602486E-1,1.369896219E0
2.242243625E0,-5.458846512E-1,-5.661332667E-1,-1.304738345E0,1.523430037E0
2.252291625E0,-6.166019006E-1,-3.835346621E-1,-1.602892549E0,1.759704880E0
2.262340625E0,-6.897318573E-1,-3.725120759E-1,-1.562808570E0,1.748389519E0
2.272388625E0,-4.037571113E-1,-4.149324560E-1,-1.170897845E0,1.306212276E0
2.282437625E0,5.569809124E-2,-5.042638779E-1,-3.674846399E-1,6.264417742E-1
2.292485625E0,3.569004487E-1,-5.504767621E-1,5.458282256E-1,8.534231352E-1
2.302534625E0,6.398415130E-1,-4.766392922E-1,1.381713431E0,1.595529436E0
2.312583625E0,6.749726079E-1,-2.139560527E-1,2.284440351E0,2.391659033E0
2.322631625E0,8.684395784E-1,1.375428843E-1,2.432068659E0,2.586129020E0
2.332680625E0,1.128261629E0,8.336503994E-1,2.470590116E0,2.841084795E0
2.342728625E0,1.301208820E0,1.273867970E0,1.582313858E0,2.412384949E0
2.352777625E0,1.678448954E0,6.069579417E-1,6.039097881E-1,1.884222881E0
2.362825625E0,2.019037425E0,9.791104138E-2,-1.448682761E-1,2.026594561E0
2.372874625E0,2.125165266E0,1.063403875E-1,-7.106810423E-1,2.243368724E0
2.382922625E0,2.406093134E0,3.984164107E-1,-1.516573613E0,2.871935816E0
2.392971625E0,2.188979439E0,8.325277340E-1,-2.211195935E0,3.220888212E0
2.403020625E0,1.518823767E0,1.027166925E0,-2.111256495E0,2.796301399E0
2.413068625E0,9.151955228E-1,1.014980743E0,-1.407855309E0,1.962097175E0
2.423117625E0,5.676339546E-1,8.293351543E-1,-6.624754270E-1,1.203693813E0
2.433165625E0,3.081430024E-1,3.482584101E-1,-3.641317002E-1,5.906165636E-1
2.443214625E0,-2.239951372E-2,-1.570193750E-1,-7.797916961E-1,7.957587019E-1
2.453262625E0,-9.183812320E-2,-4.843348128E-1,-1.342251742E0,1.429914050E0
2.463311625E0,-1.402159390E-1,-7.217060405E-1,-1.865161221E0,2.004830791E0
2.473360625E0,-1.099206376E-1,-9.553099072E-1,-2.285749104E0,2.479788001E0
2.483408625E0,-6.836009055E-2,-1.152701383E0,-2.466100624E0,2.723058182E0
2.493457625E0,6.965671062E-2,-1.359954772E0,-2.343416684E0,2.710337764E0
2.503505625E0,1.444329509E-1,-1.658840463E0,-2.210672024E0,2.767613296E0
2.513554625E0,1.790244940E-1,-1.859384757E0,-2.045908012E0,2.770397271E0
2.523602625E0,2.818071431E-1,-1.953529022E0,-1.838365771E0,2.697272625E0
2.533651625E0,4.074722859E-1,-1.982883798E0,-1.697880567E0,2.642093913E0
2.543700625E0,6.703876600E-1,-1.717475756E0,-1.764836449E0,2.552212820E0
2.553748625E0,8.121917027E-1,-1.306617640E0,-2.074226663E0,2.582502908E0
2.563797625E0,6.758384344E-1,-7.053730130E-1,-2.453592845E0,2.640913956E0
2.573845625E0,4.417738071E-1,-1.132746005E-1,-2.851529199E0,2.887769728E0
2.583894625E0,1.063637763E-1,3.452014858E-1,-3.256316151E0,3.276289394E0
2.593942208E0,-4.824537635E-3,7.991956812E-1,-4.054444131E0,4.132463457E0
2.603991208E0,7.666898400E-2,1.090341997E0,-4.627136804E0,4.754484074E0
2.614040208E0,3.684754506E-1,1.316757297E0,-4.943846562E0,5.129448583E0
2.624088208E0,1.074931660E0,1.362687761E0,-4.895836244E0,5.194382401E0
2.634137208E0,1.953978088E0,1.591893936E0,-4.401078184E0,5.071651196E0
2.644185208E0,2.594016360E0,2.135497296E0,-3.693820029E0,4.993353180E0
2.654234208E0,3.102413050E0,2.458695125E0,-2.406860728E0,4.632831425E0
2.664282208E0,3.499415019E0,2.378400575E0,-1.305441765E0,4.427964879E0
2.674331208E0,3.369320610E0,1.996045296E0,-7.257277554E-1,3.982863163E0
2.684380208E0,3.113940251E0,1.636118767E0,-4.394229341E-1,3.544940200E0
2.694428208E0,2.968025030E0,1.496452759E0,-4.613599330E-1,3.355800416E0
2.704477208E0,2.388607767E0,1.434543609E0,-3.592137533E-1,2.809341017E0
2.714525208E0,8.626058114E-1,1.176136438E0,-5.354176601E-2,1.459538430E0
2.724574208E0,-4.908237603E-1,7.863820928E-1,1.883330603E-2,9.271782208E-1
2.734622208E0,-7.987694192E-1,4.052108753E-1,-9.619605303E-2,9.008230232E-1
2.744671208E0,-8.860513920E-1,-3.037651920E-1,-1.068999843E-1,9.427555185E-1
2.754720208E0,-8.979612932E-1,-9.877830040E-1,1.074975514E-1,1.339255566E0
2.764768208E0,-1.093967856E0,-1.594668440E0,6.646553421E-1,2.044871592E0
2.774817208E0,-1.457299657E0,-2.094730509E0,1.346881567E0,2.885430323E0
2.784865208E0,-2.012634139E0,-2.330508955E0,1.846110992E0,3.590277700E0
2.794914208E0,-2.692346062E0,-2.027036124E0,2.048032891E0,3.943607674E0
2.804962208E0,-3.365289540E0,-1.363031577E0,2.205442275E0,4.248176596E0
2.815011208E0,-4.251758715E0,-4.203177416E-1,2.418498441E0,4.909506481E0
2.825060208E0,-4.425925342E0,1.070407670E0,2.363747306E0,5.130486239E0
2.835108208E0,-3.576764619E0,2.816756977E0,2.316915933E0,5.108371996E0
2.845157208E0,-2.546612105E0,4.111312396E0,2.461160896E0,5.426364878E0
2.855205208E0,-1.884552488E0,5.010696024E0,2.614312338E0,5.957620475E0
2.865254208E0,-1.381257787E0,5.294031045E0,2.790512334E0,6.141791014E0
2.875302208E0,-8.248822072E-1,4.873557183E0,3.131437751E0,5.851315464E0
2.885351208E0,-1.952101716E-1,3.428295627E0,3.627873377E0,4.995276084E0
2.895399208E0,4.960864006E-1,2.185005087E0,3.292001708E0,3.982163255E0
2.905448208E0,1.401819228E0,1.376807617E0,2.422291237E0,3.119004841E0
2.915497208E0,2.237285627E0,7.210032052E-1,1.622183975E0,2.856006556E0
2.925545208E0,2.848244233E0,4.419769979E-1,4.705108255E-1,2.920482720E0
2.935594208E0,3.588978868E0,2.274818319E-1,-2.888585928E-1,3.607763377E0
2.945642208E0,4.357763180E0,2.914164573E-1,-2.661322197E-1,4.375597084E0
2.955691208E0,3.927026870E0,3.999045271E-1,1.857020143E-1,3.951702026E0
2.965739208E0,7.729541083E-1,2.875105172E-1,2.374311617E-1,8.581922323E-1
2.975788208E0,-1.005801784E0,4.152838737E-1,3.001121441E-1,1.128789273E0
2.985837208E0,-2.413185661E0,1.490045965E-2,8.347175163E-1,2.553515300E0
2.995885208E0,-3.383589278E0,-6.817888534E-1,1.231252293E0,3.664627492E0
3.005934208E0,-4.280750672E0,-1.543826315E0,1.568747441E0,4.813438952E0
3.015982208E0,-3.550765559E0,-2.073467694E0,1.613949049E0,4.417243016E0
3.026031208E0,-2.494161996E0,-2.071331706E0,1.515745939E0,3.578930686E0
3.036079208E0,-1.808521290E0,-1.656729618E0,1.244815202E0,2.750466718E0
3.046128208E0,-1.306703448E0,-1.398500787E0,8.969719443E-1,2.113725862E0
3.056177208E0,-1.196988267E0,-1.426209573E0,7.529883519E-1,2.008443705E0
3.066225208E0,-9.870545141E-1,-1.724719872E0,6.426853064E-1,2.088535289E0
3.076274208E0,-9.088774601E-1,-1.922309568E0,5.671498051E-1,2.200679716E0
3.086322208E0,-7.672250064E-1,-2.037019660E0,4.685254034E-1,2.226566720E0
3.096371208E0,-7.015290534E-1,-2.084103194E0,3.098863497E-1,2.220733817E0
3.106419208E0,-5.741720553E-1,-2.155556170E0,1.248728451E-1,2.234208848E0
3.116468208E0,-3.461694558E-1,-2.242066310E0,-7.454030514E-3,2.268645013E0
3.126517208E0,-1.231024544E-1,-2.226992773E0,-3.227721512E-2,2.230626110E0
3.136565208E0,1.195061610E-1,-2.166885150E0,-2.512402385E-2,2.170323523E0
3.146614208E0,3.794472391E-1,-2.101297517E0,-1.866402000E-2,2.135364092E0
3.156662208E0,7.559729900E-1,-2.026233886E0,-3.300987124E-2,2.162916682E0
3.166711208E0,1.127916132E0,-1.971996283E0,-4.661107957E-3,2.271780330E0
3.176759208E0,1.463965921E0,-1.758735464E0,6.167029113E-2,2.289137365E0
3.186808208E0,1.593896900E0,-1.382988709E0,4.377927303E-2,2.110706451E0
3.196857208E0,1.485075831E0,-8.709293228E-1,-1.068309689E-1,1.724929264E0
3.206905208E0,1.341079083E0,-2.061658072E-1,-3.145182216E-1,1.392809807E0
3.216954208E0,1.238191622E0,4.925179911E-1,-4.422646809E-1,1.404026536E0
3.227002208E0,1.354941954E0,1.062888735E0,-5.241479194E-1,1.800091998E0
3.237051208E0,1.462376063E0,1.595073652E0,-5.893595767E-1,2.242799237E0
3.247099208E0,1.590790567E0,2.277760638E0,-4.344393522E-1,2.812035864E0
3.257148208E0,1.754856714E0,2.777381242E0,-2.715094654E-1,3.296526359E0
3.267197208E0,2.115568524E0,3.181415657E0,-2.855268493E-1,3.831261065E0
3.277245208E0,1.136963748E0,2.836146344E0,-8.458199170E-1,3.170461162E0
3.287294208E0,-2.724970601E-2,1.699697297E0,-1.539051333E0,2.293118500E0
3.297342208E0,-1.840333651E-1,8.876973832E-1,-1.663268559E0,1.894290691E0
3.307391208E0,-4.385842972E-2,3.691797477E-1,-1.318491727E0,1.369904260E0
3.317439208E0,3.709020451E-1,-3.208367229E-3,-1.375843850E0,1.424964884E0
3.327488208E0,1.290180386E0,-2.386435819E-1,-1.987588907E0,2.381601531E0
3.337536208E0,1.980783186E0,-2.815370017E-1,-2.398789231E0,3.123612474E0
3.347585208E0,1.918758554E0,2.027539569E-1,-2.360234445E0,3.048516064E0
3.357634208E0,1.259958467E0,1.168233926E0,-1.872281083E0,2.541200956E0
3.367682208E0,3.787542710E-1,2.271526337E0,-1.160338431E0,2.578695789E0
3.377731208E0,-5.093427694E-1,3.549067528E0,-4.257119443E-1,3.610615049E0
3.387779208E0,-1.291413418E0,4.801904233E0,6.834216884E-1,5.019272664E0
3.397828208E0,-1.676167809E0,5.558407638E0,2.309020730E0,6.247960525E0
3.407876208E0,-1.708755073E0,5.209129474E0,3.510246401E0,6.509739132E0
3.417925208E0,-2.066923783E0,3.588655517E0,3.408918832E0,5.363893170E0
3.427974208E0,-2.157741128E0,1.793426995E0,2.557257546E0,3.796286780E0
3.438022208E0,-1.158994522E0,3.719723779E-1,2.084937007E0,2.414248139E0
3.448071208E0,2.524883267E-1,-5.993822891E-1,2.141675318E0,2.238254376E0
3.458119208E0,8.364642989E-1,-1.064538234E0,1.976408300E0,2.395642699E0
3.468168208E0,5.680225021E-1,-1.497315223E0,1.450262387E0,2.160523879E0
3.478216208E0,8.682888664E-2,-1.974732195E0,9.685444951E-1,2.201178079E0
3.488265208E0,-4.203124060E-1,-2.329120241E0,6.427469945E-1,2.452465559E0
3.498314208E0,-7.867365072E-1,-2.295292345E0,4.493586691E-1,2.467639458E0
3.508362208E0,-9.872327811E-1,-1.926554646E0,2.734717910E-1,2.181978045E0
3.518411208E0,-1.139291378E0,-1.461625573E0,-1.681410715E-2,1.853271938E0
3.528459208E0,-1.307949051E0,-9.879133970E-1,-1.459792471E-1,1.645604309E0
3.538508208E0,-1.663853573E0,-3.216260970E-1,-2.000413605E-1,1.706419821E0
3.548556208E0,-2.172256987E0,3.722746789E-1,-4.322261079E-1,2.245909229E0
3.558605208E0,-2.688892696E0,8.759848255E-1,-6.364542210E-1,2.898718220E0
3.568654208E0,-3.390029109E0,1.001216397E0,-8.017293528E-1,3.624569159E0
3.578702208E0,-3.882159137E0,6.272436869E-1,-7.615542305E-1,4.005566010E0
3.588751625E0,-4.077361708E0,-1.391292340E-1,-5.797362292E-1,4.120719541E0
3.598799625E0,-3.971402851E0,-1.008054716E0,-3.334994531E-1,4.110892458E0
3.608848625E0,-3.692352962E0,-1.757323946E0,-5.310558200E-2,4.089557195E0
3.618896625E0,-3.545346944E0,-2.157442482E0,7.616116245E-2,4.150884669E0
3.628945625E0,-3.516424569E0,-2.246717185E0,1.650148576E-1,4.176147718E0
3.638994625E0,-3.670969110E0,-2.052909468E0,1.882628024E-1,4.210213103E0
3.649042625E0,-4.049074048E0,-1.838139483E0,-8.162652751E-2,4.447518442E0
3.659091625E0,-4.097342813E0,-1.637980521E0,-4.526499206E-1,4.435773919E0
3.669139625E0,-3.334380573E0,-1.511721008E0,-7.401580989E-1,3.735134298E0
3.679188625E0,-2.455362504E0,-1.671007349E0,-8.685606158E-1,3.094425331E0
3.689236625E0,-1.676357113E0,-1.854421055E0,-1.030595148E0,2.703918819E0
3.699285625E0,-9.419086736E-1,-1.732275059E0,-1.264274443E0,2.342297739E0
3.709334625E0,-3.535106716E-1,-1.335080717E0,-1.464372010E0,2.012907275E0
3.719382625E0,-9.575692713E-3,-8.147346568E-1,-1.436900622E0,1.651837659E0
3.729431625E0,3.459373578E-1,-1.741102016E-1,-1.389741658E0,1.442695011E0
3.739479625E0,6.163216728E-1,4.913625813E-1,-1.470812134E0,1.668705463E0
3.749528625E0,7.285170235E-1,7.358808607E-1,-1.117015752E0,1.523148675E0
3.759576625E0,9.103527126E-1,8.025712788E-1,-9.805382308E-1,1.560230092E0
3.769625625E0,1.009193900E0,7.217235821E-1,-5.558362468E-1,1.359526090E0
3.779674625E0,1.237633067E0,4.311497086E-1,4.249886437E-1,1.377766681E0
3.789722625E0,1.116357429E0,2.905235875E-1,1.663890557E0,2.024645561E0
3.799771625E0,1.396941773E0,5.072582370E-1,2.759091444E0,3.133902173E0
3.809819625E0,1.862260856E0,1.333383855E0,3.879406561E0,4.505077498E0
3.819868625E0,1.490141567E0,1.056424053E0,2.260451710E0,2.906233921E0
3.829916625E0,9.469657843E-1,-4.391837829E-1,8.773115587E-1,1.363562306E0
3.839965625E0,1.017678064E0,-8.959507281E-1,3.599862436E-1,1.402849402E0
3.850013625E0,1.319928388E0,-7.148665524E-1,-3.561444768E-1,1.542752095E0
3.860062625E0,1.048691842E0,-2.541533214E-1,-1.018939308E0,1.484111115E0
3.870111625E0,5.650809141E-1,1.121215296E-1,-1.353340402E0,1.470856186E0
3.880159625E0,3.631916142E-1,1.290346009E-1,-1.397086930E0,1.449279120E0
3.890208625E0,2.664229725E-1,1.442689365E-1,-1.271807996E0,1.307398296E0
3.900256625E0,5.498385385E-2,1.966594040E-2,-9.825217525E-1,9.842555397E-1
3.910305625E0,-1.651496360E-1,-3.779955947E-1,-6.670761625E-1,7.843122328E-1
3.920353625E0,-3.714861819E-1,-7.678475887E-1,-1.020951920E0,1.330388937E0
3.930402625E0,-3.041297659E-1,-1.062342605E0,-1.572444928E0,1.921887035E0
3.940451625E0,-1.827409843E-1,-1.371519395E0,-2.046691539E0,2.470507230E0
3.950499625E0,-9.587328672E-2,-1.494369396E0,-2.552149419E0,2.959019810E0
3.960548625E0,1.426934043E-1,-1.650994669E0,-2.891885512E0,3.333038646E0
3.970596625E0,1.578277525E-1,-1.812291867E0,-3.043441833E0,3.545680414E0
3.980645625E0,-5.463345945E-2,-1.828081688E0,-3.013661964E0,3.525198704E0
3.990693625E0,-1.879648867E-1,-1.665066578E0,-2.856775321E0,3.311939423E0
4.000742625E0,-2.584741214E-1,-1.327285209E0,-2.613699549E0,2.942774241E0
4.010791625E0,-3.907378471E-1,-9.047075182E-1,-2.347510904E0,2.545973135E0
4.020839625E0,-4.547309446E-1,-3.141323054E-1,-2.043750390E0,2.117162014E0
4.030888625E0,-4.091095063E-1,3.255910939E-1,-2.168559208E0,2.230701501E0
4.040936625E0,-1.584267998E-1,8.462780464E-1,-2.363966138E0,2.515873901E0
4.050985625E0,2.262568402E-1,1.344950817E0,-2.658358244E0,2.987800765E0
4.061033625E0,7.289197505E-1,1.702611549E0,-3.100407747E0,3.611473147E0
4.071082625E0,1.184022286E0,1.766032205E0,-3.630176010E0,4.207012763E0
4.081131625E0,1.527831257E0,1.537508399E0,-4.087089136E0,4.626283393E0
4.091179625E0,1.827395517E0,1.118478799E0,-4.295772754E0,4.800420060E0
4.101228625E0,2.126235892E0,6.186979812E-1,-4.147637054E0,4.701761307E0
4.111276625E0,2.589644689E0,2.490182966E-1,-3.583593582E0,4.428364561E0
4.121325625E0,2.808600696E0,2.174889404E-1,-2.870055517E0,4.021536768E0
4.131373625E0,2.910679048E0,4.767843032E-1,-2.165965383E0,3.659341721E0
4.141422625E0,2.811970446E0,8.432374942E-1,-1.392155389E0,3.249049690E0
4.151471625E0,2.511312464E0,9.852581763E-1,-4.584111822E-1,2.736341496E0
4.161519625E0,2.125067033E0,9.573190105E-1,2.525201941E-1,2.344383934E0
4.171568625E0,1.538544526E0,8.546050662E-1,5.409072089E-1,1.841208756E0
4.181616625E0,6.996208146E-1,8.441999459E-1,7.735936475E-1,1.341860635E0
4.191665625E0,-3.612994552E-1,8.416184002E-1,1.063394519E0,1.403448158E0
4.201713625E0,-1.459572031E0,9.814112931E-1,1.549640787E0,2.344121415E0
4.211762625E0,-2.218671016E0,1.396993960E0,1.925028523E0,3.252664756E0
4.221811625E0,-2.533596788E0,1.854928594E0,2.016110601E0,3.731564649E0
4.231859625E0,-2.775701629E0,1.826652043E0,1.889658716E0,3.822562921E0
4.241908625E0,-3.197990175E0,1.689155937E0,1.612595419E0,3.959905671E0
4.251956625E0,-3.898304762E0,1.511756676E0,1.286909015E0,4.374736915E0
4.262005625E0,-4.362048020E0,8.548787159E-1,1.042648452E0,4.565675891E0
4.272053625E0,-4.962865216E0,2.290769523E-1,1.456453711E0,5.177235248E0
4.282102625E0,-5.653298008E0,-1.946783674E-1,2.674441595E0,6.257021326E0
4.292150625E0,-5.278087442E0,-3.238468695E-1,3.844125631E0,6.537613150E0
4.302199625E0,-2.157329046E0,9.029627091E-1,4.129141141E0,4.745441689E0
4.312248625E0,-1.147466224E0,2.103439352E0,4.512965240E0,5.109597940E0
4.322296625E0,-1.197350721E0,3.048166968E0,4.809746226E0,5.818816836E0
4.332345625E0,-1.230362054E0,3.757369323E0,4.745145310E0,6.176408263E0
4.342393625E0,-5.842858015E-1,3.906281533E0,4.328732047E0,5.859893041E0
4.352442625E0,3.173577757E-1,3.539376352E0,3.693218058E0,5.125208342E0
4.362491625E0,1.461132507E0,2.776981292E0,2.843345728E0,4.234518654E0
4.372539625E0,2.917523798E0,1.968498479E0,2.170642571E0,4.135047829E0
4.382588625E0,4.592021643E0,1.173578866E0,1.022715732E0,4.848700608E0
4.392636625E0,5.901545641E0,4.347141713E-1,1.689298609E-1,5.919945495E0
4.402685625E0,6.770552400E0,-1.024245071E-1,-3.440817440E-1,6.780063630E0
4.412733625E0,4.989508054E0,-6.279658180E-1,-6.327552724E-1,5.068521572E0
4.422782625E0,-5.256367302E-2,-7.243191612E-1,-7.629730573E-1,1.053341860E0
4.432830625E0,-1.251605574E0,-1.297905874E0,-2.638214001E-1,1.822272729E0
4.442879625E0,-2.560387268E0,-1.837410920E0,2.705670404E-1,3.163047325E0
4.452928625E0,-4.001860120E0,-1.989547285E0,8.774551079E-1,4.554460483E0
4.462976625E0,-4.267964566E0,-2.440364104E0,1.289222174E0,5.082616679E0
4.473025625E0,-3.598664196E0,-3.116979926E0,1.174353915E0,4.903575733E0
4.483073625E0,-2.515019307E0,-3.256115592E0,1.155370052E0,4.273463562E0
4.493122625E0,-1.170760216E0,-2.682948709E0,1.482810035E0,3.281405013E0
4.503170625E0,-4.585477877E-1,-1.564392727E0,1.690035358E0,2.348150376E0
4.513219625E0,-6.833595617E-1,-4.989440811E-1,1.614212759E0,1.822528002E0
4.523268625E0,-6.357379371E-1,6.579579413E-2,1.498629677E0,1.629227645E0
4.533316625E0,-8.116908887E-1,2.682059348E-2,1.118249880E0,1.382043501E0
4.543365625E0,-8.073661418E-1,-4.186816907E-1,8.661711511E-1,1.255940647E0
4.553413625E0,-8.009133008E-1,-7.805746382E-1,6.371886313E-1,1.287155093E0
4.563462625E0,-6.781334665E-1,-1.046574419E0,4.824642885E-1,1.337144271E0
4.573510625E0,-5.826424415E-1,-1.223091919E0,3.760280067E-1,1.405995419E0
4.583559625E0,-4.618457635E-1,-1.321849052E0,2.966222334E-1,1.431283052E0
4.593608708E0,-2.911746384E-1,-1.388207349E0,3.117010331E-1,1.452260254E0
4.603656708E0,-1.607720814E-1,-1.460863681E0,3.396670961E-1,1.508424374E0
4.613705708E0,-1.476400025E-2,-1.591543103E0,2.225774798E-1,1.607099300E0
4.623753708E0,2.138209089E-1,-1.818351921E0,3.089493334E-2,1.831141061E0
4.633802708E0,4.857750916E-1,-1.991322500E0,-8.712760627E-2,2.051568658E0
4.643850708E0,7.677212888E-1,-2.077209912E0,-9.757541120E-2,2.216690767E0
4.653899708E0,1.011131959E0,-2.051793820E0,-2.949686408E-2,2.287600442E0
4.663948708E0,1.237650463E0,-1.923642733E0,1.595909804E-2,2.287451579E0
4.673996708E0,1.479209174E0,-1.730111589E0,2.457350850E-2,2.276389630E0
4.684045708E0,1.798737582E0,-1.425573980E0,-3.887667507E-2,2.295480224E0
4.694093708E0,2.019570691E0,-1.065900051E0,-1.535885212E-1,2.288754712E0
4.704142708E0,2.078449814E0,-7.422081327E-1,-2.665666679E-1,2.223034937E0
4.714190708E0,2.129961299E0,-4.203346986E-1,-3.188051078E-1,2.194322923E0
4.724239708E0,2.066967929E0,1.878125668E-2,-2.864352143E-1,2.086804803E0
4.734288708E0,1.991138898E0,4.772023791E-1,-2.719273952E-1,2.065502536E0
4.744336708E0,1.939141509E0,8.674630934E-1,-2.890918967E-1,2.143906746E0
4.754385708E0,1.692711482E0,1.195176727E0,-4.913798305E-1,2.129594729E0
4.764433708E0,1.951719893E0,1.556115409E0,-7.761982897E-1,2.614037010E0
4.774482708E0,1.846906798E0,1.671828298E0,-8.467151257E-1,2.631159646E0
4.784530708E0,1.957853769E0,1.810773345E0,-8.091765860E-1,2.786908365E0
4.794579708E0,2.046817254E0,1.778461631E0,-7.017415997E-1,2.800861996E0
4.804628708E0,2.067102123E0,1.611707811E0,-6.737483472E-1,2.706372127E0
4.814676708E0,2.646237550E0,1.402596762E0,-7.926336434E-1,3.098083108E0
4.824725708E0,2.952290758E0,8.993187243E-1,-1.170977440E0,3.300906399E0
4.834773708E0,1.849628824E0,5.237953323E-1,-1.611052631E0,2.508182393E0
4.844822708E0,1.456795481E0,7.924579346E-1,-1.619659732E0,2.318089795E0
4.854870708E0,1.470519480E0,1.550072896E0,-1.217532971E0,2.459174671E0
4.864919708E0,6.184168033E-1,2.534144087E0,-9.817583254E-1,2.787144598E0
4.874967708E0,-3.095450185E-1,3.538235561E0,-8.901798186E-1,3.661604718E0
4.885016708E0,-9.352049871E-1,4.710191824E0,-6.806717429E-1,4.850137051E0
4.895065708E0,-1.315532013E0,5.989610556E0,-3.888486117E-2,6.132501213E0
4.905113708E0,-1.910446152E0,7.092277315E0,1.700282896E0,7.539307921E0
4.915162708E0,-2.680590527E0,7.347307718E0,2.854176818E0,8.325552330E0
4.925210708E0,-2.952249535E0,5.657446023E0,2.754802219E0,6.950640840E0
4.935259708E0,-2.422043900E0,2.487976812E0,2.313934730E0,4.172603408E0
4.945308708E0,-1.647223945E0,-1.849181950E-1,1.982797552E0,2.584381473E0
4.955356708E0,-7.815957083E-1,-1.923974855E0,1.920452492E0,2.828552433E0
4.965405708E0,7.854009300E-2,-2.880610326E0,1.673050951E0,3.332144036E0
4.975453708E0,4.927729297E-1,-3.302106282E0,1.018214399E0,3.490485871E0
4.985502708E0,5.912846994E-1,-3.505549040E0,5.867391470E-1,3.603158961E0
4.995550708E0,5.693740129E-1,-3.261779205E0,4.082210219E-1,3.336170671E0
5.005599708E0,7.657170095E-2,-2.551320868E0,5.053537989E-1,2.602015346E0
5.015647708E0,-6.609465263E-1,-1.598495443E0,6.417623234E-1,1.844965276E0
5.025696708E0,-1.152974375E0,-5.653971022E-1,5.050472586E-1,1.379890041E0
5.035745708E0,-1.570042161E0,4.271297479E-1,3.418574631E-1,1.662630065E0
5.045793708E0,-2.062060653E0,1.322951252E0,1.430182171E-1,2.454128840E0
5.055842708E0,-2.674438671E0,1.925547171E0,-7.211034849E-2,3.296293982E0
5.065890708E0,-3.438996617E0,1.950538756E0,-1.008129414E-1,3.954928876E0
5.075939708E0,-4.264657088E0,1.485073493E0,-7.599384986E-2,4.516471900E0
5.085987708E0,-4.793561425E0,4.630211270E-1,2.883495927E-2,4.815957969E0
5.096036708E0,-4.829520632E0,-8.886382002E-1,1.474972574E-1,4.912810074E0
5.106085708E0,-4.420146247E0,-2.310307994E0,2.705319937E-1,4.994837678E0
5.116133708E0,-3.693489076E0,-3.439823413E0,5.117424667E-1,5.073078653E0
5.126182708E0,-3.294213125E0,-4.033162020E0,5.866043687E-1,5.240452335E0
5.136230708E0,-3.030302847E0,-4.135179561E0,7.360323036E-1,5.179207362E0
5.146279708E0,-2.439625893E0,-3.375806926E0,9.130169964E-1,4.263970795E0
5.156327708E0,-2.101436534E0,-2.322259119E0,8.414546782E-1,3.242987650E0
5.166376708E0,-2.084247767E0,-1.406658822E0,8.181149322E-1,2.644256008E0
5.176425708E0,-1.910208901E0,-8.512452561E-1,8.148937011E-1,2.244452779E0
5.186473708E0,-1.783792537E0,-5.103555071E-1,7.549808363E-2,1.856900245E0
5.196522708E0,-1.588879404E0,-4.049623686E-1,-9.142121673E-1,1.877316214E0
5.206570708E0,-1.254514125E0,-3.531285560E-1,-1.842903210E0,2.257165857E0
5.216619708E0,-6.522608529E-1,-4.027199614E-1,-2.688517013E0,2.795666524E0
5.226667708E0,3.125848398E-1,-6.608008575E-1,-3.095507780E0,3.180650165E0
5.236716708E0,1.156633050E0,-1.056619350E0,-3.037343187E0,3.417557330E0
5.246765708E0,1.569391804E0,-1.303584105E0,-2.671163646E0,3.361166074E0
5.256813708E0,1.561229530E0,-1.519161590E0,-2.013220907E0,2.966200938E0
5.266862708E0,1.222558068E0,-1.527158242E0,-9.590452547E-1,2.178675820E0
5.276910708E0,8.743046281E-1,-1.088667355E0,2.866727574E-1,1.425407472E0
5.286959708E0,6.073225155E-1,-4.624796748E-1,1.466484317E0,1.653270800E0
5.297007708E0,7.259623750E-1,2.503742659E-1,2.188237574E0,2.319071435E0
5.307056708E0,1.065784568E0,1.052642659E0,2.266356375E0,2.716675272E0
5.317105708E0,1.455266580E0,1.134164540E0,1.859722141E0,2.619674877E0
5.327153708E0,1.943516542E0,4.937692952E-1,1.137247045E0,2.305297271E0
5.337202708E0,2.063583853E0,4.286815989E-1,6.359922910E-1,2.201506853E0
5.347250708E0,1.902981597E0,7.748420280E-1,1.043986733E-1,2.057332790E0
5.357299708E0,1.377406664E0,9.436809647E-1,-2.871662624E-1,1.694180434E0
5.367347708E0,1.229125368E0,7.788777763E-1,-2.710944593E-1,1.480166196E0
5.377396708E0,1.217292650E0,4.252522069E-1,2.223007603E-1,1.308456520E0
5.387445708E0,8.824059454E-1,-7.927304149E-2,4.477927847E-1,9.926947394E-1
5.397493708E0,3.426412824E-1,-4.777847618E-1,1.708686514E-1,6.122723438E-1
5.407542708E0,1.084453851E-2,-6.617896217E-1,-4.573575139E-1,8.045240848E-1
5.417590708E0,-1.315661529E-1,-7.467806554E-1,-1.354238534E0,1.552080219E0
5.427639708E0,-1.782424289E-1,-8.219600612E-1,-2.169267890E0,2.326609526E0
5.437687708E0,-4.905112267E-2,-8.903678066E-1,-2.678747485E0,2.823269192E0
5.447736708E0,1.541290963E-1,-1.015898756E0,-2.816421347E0,2.998005214E0
5.457785708E0,3.146974388E-1,-1.083748677E0,-2.621024941E0,2.853649841E0
5.467833708E0,3.662122858E-1,-1.075814590E0,-2.306608461E0,2.571367547E0
5.477882708E0,3.218202245E-1,-9.293535322E-1,-2.096551917E0,2.315771186E0
5.487930708E0,4.925627223E-1,-6.325623143E-1,-1.818530992E0,1.987412409E0
5.497979708E0,8.031273490E-1,-2.777135074E-1,-1.426873816E0,1.660755015E0
5.508027708E0,1.072988631E0,1.325452691E-1,-1.167557915E0,1.591246158E0
5.518076708E0,1.228138066E0,3.329012829E-1,-1.120388353E0,1.695410403E0
5.528125708E0,1.281021746E0,4.028222877E-1,-1.160719012E0,1.774979192E0
5.538173708E0,1.147849071E0,2.979706013E-1,-1.315921730E0,1.771438389E0
5.548222708E0,8.841946086E-1,2.531587100E-1,-1.502402301E0,1.761562406E0
5.558270708E0,6.670331123E-1,2.867071098E-1,-1.799361334E0,1.940318363E0
5.568319708E0,5.243534490E-1,2.146857852E-1,-2.306717219E0,2.375285426E0
5.578367708E0,5.546160060E-1,1.332288086E-2,-2.928500776E0,2.980586051E0
5.588415958E0,5.856731996E-1,-1.648166370E-1,-3.590935346E0,3.642113985E0
5.598463958E0,4.116793576E-1,-1.950221837E-1,-4.211000991E0,4.235568780E0
5.608512958E0,3.290947455E-1,-2.534346986E-1,-4.558332617E0,4.577218451E0
5.618561958E0,1.485762879E-1,-7.419105095E-1,-4.670279900E0,4.731175378E0
5.628609958E0,1.438879904E-1,-1.090802758E0,-4.818766433E0,4.942779010E0
5.638658958E0,5.043869618E-1,-1.465325691E0,-4.276076993E0,4.548232628E0
5.648706958E0,1.418792672E0,-9.966351038E-1,-3.851736367E0,4.223994225E0
5.658755958E0,2.103232360E0,-1.654867280E-1,-3.226633930E0,3.855144451E0
5.668803958E0,2.402171845E0,4.585474223E-1,-2.265328288E0,3.333527796E0
5.678852958E0,2.392148256E0,7.474758893E-1,-1.291833540E0,2.819561558E0
5.688901958E0,2.190274890E0,8.667824775E-1,-4.527849547E-1,2.398672585E0
5.698949958E0,1.839068606E0,1.247456682E0,4.625580275E-1,2.269863749E0
5.708998958E0,1.141242886E0,2.024631749E0,1.381193029E0,2.703564911E0
5.719046958E0,-1.976417363E-2,2.889601589E0,2.363422347E0,3.733088957E0
5.729095958E0,-1.537437940E0,3.668272374E0,3.446267045E0,5.262764879E0
5.739143958E0,-3.010173807E0,4.154615706E0,4.082013752E0,6.556280522E0
5.749192958E0,-3.676123431E0,3.903832135E0,3.883048207E0,6.620562830E0
5.759241958E0,-4.200280121E0,3.676714000E0,2.783927200E0,6.237854566E0
5.769289958E0,-4.803410183E0,3.168852915E0,1.398776776E0,5.922073509E0
5.779338958E0,-5.399394947E0,2.510674533E0,4.342048788E-1,5.970384099E0
5.789386958E0,-5.876158785E0,1.975028649E0,2.938857365E-1,6.206154128E0
5.799435958E0,-6.088325590E0,1.829814802E0,1.069173615E0,6.446631905E0
5.809483958E0,-3.721625878E0,2.713834872E0,2.502388444E0,5.241883899E0
5.819532958E0,-1.882070053E0,3.460679262E0,3.532205912E0,5.291027050E0
5.829581958E0,-1.582036993E0,3.459516835E0,3.898038421E0,5.446632107E0
5.839629958E0,-9.704875249E-1,3.578402424E0,3.539153866E0,5.125662887E0
5.849678958E0,-2.284333201E-1,3.545067447E0,3.741544418E0,5.159344883E0
5.859726958E0,8.884001454E-1,3.369248105E0,3.265692746E0,4.775545699E0
5.869775958E0,2.215544802E0,2.826606612E0,2.571104922E0,4.416890787E0
5.879823958E0,4.192295748E0,1.708504958E0,3.078800823E0,5.474791991E0
5.889872958E0,6.228589184E0,1.120809499E0,3.339929873E0,7.155883503E0
5.899921958E0,5.535219920E0,1.046496066E0,1.796580983E0,5.912826465E0
5.909969958E0,-1.409024021E0,1.528286755E-2,-8.287755758E-2,1.411542046E0
5.920018958E0,-2.995732647E0,-2.231385201E-1,1.236186174E-1,3.006573873E0
5.930066958E0,-3.651887014E0,-4.081929553E-1,8.039816272E-1,3.761553763E0
5.940115958E0,-4.736284440E0,-9.322028804E-1,1.216806162E0,4.978153246E0
5.950163958E0,-4.955053335E0,-1.185621207E0,1.796205299E0,5.402277731E0
5.960212958E0,-4.977447002E0,-1.169972888E0,1.958586863E0,5.475388362E0
5.970261958E0,-4.505743344E0,-1.447109275E0,1.580035783E0,4.989224531E0
5.980309958E0,-2.571673564E0,-1.771923859E0,1.159677696E0,3.331376808E0
5.990358958E0,-5.094386637E-3,-1.470552517E0,8.994304061E-1,1.723811392E0
6.000406958E0,1.744604206E0,-5.825452316E-1,5.896946222E-1,1.931513016E0
6.010455958E0,2.132157659E0,9.311357635E-1,6.040302408E-1,2.403739301E0
6.020503958E0,9.840270451E-1,1.888281112E0,8.810853517E-1,2.304392801E0
6.030552958E0,-2.987120283E-1,1.710754382E0,1.012537192E0,2.010258937E0
6.040601958E0,-1.849662591E0,1.603518201E0,8.855415148E-1,2.603210729E0
6.050649958E0,-2.186211952E0,1.709345203E0,1.105284557E0,2.987145405E0
6.060698958E0,-2.246070483E0,1.518541785E0,8.998215848E-1,2.856655502E0
6.070746958E0,-2.238311228E0,1.289278307E0,9.644257164E-1,2.757243672E0
6.080795958E0,-2.269667799E0,1.093129365E0,1.313132023E0,2.840887086E0
6.090843958E0,-1.782247118E0,6.372260535E-1,1.586793995E0,2.469894131E0
6.100892958E0,-1.440424446E0,2.622388512E-1,9.824795794E-1,1.763195373E0
6.110941958E0,-1.835887428E0,5.643849492E-2,7.545849341E-1,1.985715583E0
6.120989958E0,-2.107973283E0,-2.274683833E-2,6.174496007E-1,2.196659461E0
6.131038958E0,-2.328675561E0,-2.714979172E-1,5.609543878E-1,2.410624569E0
6.141086958E0,-2.680622687E0,-5.485758322E-1,8.377586532E-1,2.861557791E0
6.151135958E0,-2.861069516E0,-8.072168916E-1,1.026797966E0,3.145096493E0
6.161183958E0,-2.731798688E0,-1.086726664E0,9.305773544E-1,3.083775790E0
6.171232958E0,-2.625257448E0,-1.404690065E0,8.604160291E-1,3.099265492E0
6.181281958E0,-2.610150874E0,-1.477341135E0,7.848939764E-1,3.100239179E0
6.191329958E0,-2.568677158E0,-1.456169536E0,4.184600812E-1,2.982220800E0
6.201378958E0,-2.622874708E0,-1.465080108E0,-3.752743006E-2,3.004553172E0
6.211426958E0,-2.655465626E0,-1.651177102E0,-1.581531501E-1,3.130957670E0
6.221475958E0,-2.463191634E0,-1.926790289E0,-6.985785484E-2,3.128052743E0
6.231523958E0,-1.983966410E0,-2.123397653E0,-3.545751572E-2,2.906234255E0
6.241572958E0,-1.204088468E0,-2.446744586E0,-1.533619416E-1,2.731283213E0
6.251620958E0,-3.099220178E-1,-2.667725483E0,-3.930860889E-1,2.714282149E0
6.261669958E0,5.686472771E-1,-2.944669497E0,-5.313277155E-1,3.045775322E0
6.271718958E0,1.170354419E0,-3.012850370E0,-5.826288468E-1,3.284273617E0
6.281766958E0,1.024816637E0,-2.717611004E0,-2.758049762E-1,2.917486434E0
6.291815958E0,1.025676177E0,-2.264468747E0,3.034792632E-1,2.504382158E0
6.301863958E0,6.364893043E-1,-1.952685269E0,2.156149077E-1,2.065087935E0
6.311912958E0,8.575128865E-1,-1.823854151E0,-4.665721411E-1,2.068686027E0
6.321960958E0,9.694189462E-1,-1.784921050E0,-1.297910551E0,2.410453909E0
6.332009958E0,9.385488635E-1,-1.783535260E0,-1.615871614E0,2.583198224E0
6.342058958E0,7.242726758E-1,-1.565121290E0,-1.477528830E0,2.270961692E0
6.352106958E0,7.293182382E-1,-1.212923026E0,-1.299847734E0,1.921637711E0
6.362155958E0,9.406816354E-1,-7.934899682E-1,-1.001731537E0,1.586812636E0
6.372203958E0,1.140113204E0,-3.658135056E-1,-5.934631526E-1,1.336366774E0
6.382252958E0,1.463006685E0,7.026715994E-2,-5.458738339E-1,1.563107251E0
6.392300958E0,1.990442202E0,5.470970714E-1,-2.456865531E-1,2.078830740E0
6.402349958E0,2.413575378E0,9.622669244E-1,1.913869697E-1,2.605366137E0
6.412398958E0,2.700597360E0,1.233564282E0,7.658495951E-1,3.066175556E0
6.422446958E0,2.674073805E0,1.137017396E0,1.187454894E0,3.139033036E0
6.432495958E0,2.573853698E0,7.056682974E-1,1.096162900E0,2.885180014E0
6.442543958E0,2.264685679E0,7.380238652E-2,7.735439461E-1,2.394288674E0
6.452592958E0,1.428439262E0,-3.509995848E-1,5.059961155E-1,1.555529332E0
6.462640958E0,5.951877889E-1,-6.676660734E-1,2.432967961E-1,9.269411096E-1
6.472689958E0,5.093044701E-1,-8.168191892E-1,3.187580377E-2,9.631202926E-1
6.482738958E0,7.111594176E-1,-6.917554325E-1,-1.395490640E-1,1.001871867E0
6.492786958E0,9.710663992E-1,-4.229086429E-1,-1.798796493E-1,1.074326934E0
6.502835958E0,9.743307535E-1,2.902031600E-2,-2.713979298E-1,1.011839628E0
6.512883958E0,9.612267047E-1,4.583936405E-1,-4.013911816E-1,1.138066952E0
6.522932958E0,9.515891777E-1,9.758201855E-1,-4.900949049E-1,1.448426737E0
6.532980958E0,6.900012678E-1,1.217979698E0,-4.852718291E-1,1.481575190E0
6.543029958E0,3.483678992E-1,1.365050620E0,-4.719775996E-1,1.485761167E0
6.553078958E0,2.096513325E-1,1.359389931E0,-4.382724944E-1,1.443598783E0
6.563126958E0,1.721289457E-1,1.095512690E0,-4.007588053E-1,1.179145474E0
6.573175958E0,7.620687123E-2,8.301882631E-1,-4.820137605E-1,9.629939276E-1
6.583223958E0,3.858899206E-2,8.625186878E-1,-4.936988363E-1,9.945683175E-1
6.593273833E0,1.503855078E-1,1.139455100E0,-5.869247961E-1,1.290524871E0
6.603321833E0,3.324034656E-1,1.777923687E0,-6.789903760E-1,1.931976354E0
6.613370833E0,6.340162244E-1,2.639500389E0,-8.396062271E-1,2.841456931E0
6.623419833E0,7.597857401E-1,3.732622152E0,-8.831859639E-1,3.910212264E0
6.633467833E0,6.264057078E-1,5.116065774E0,-7.778422344E-1,5.212633850E0
6.643516833E0,2.006822519E-1,6.563829353E0,-5.221984577E-1,6.587626308E0
6.653564833E0,-5.220189482E-1,7.588614707E0,7.971494481E-2,7.606965980E0
6.663613833E0,-1.123988996E0,7.263374446E0,6.290713803E-1,7.376699154E0
6.673661833E0,-1.039237259E0,5.069394468E0,9.452643907E-1,5.260446666E0
6.683710833E0,-8.230830190E-1,2.116943496E0,9.640338068E-1,2.467443333E0
6.693759833E0,-6.325575634E-1,-5.182363844E-1,1.151304921E0,1.412161833E0
6.703807833E0,-7.180600092E-1,-2.611695709E0,2.035772595E0,3.388352802E0
6.713856833E0,-7.698697751E-1,-4.214066101E0,2.534916505E0,4.977635409E0
6.723904833E0,-7.318975181E-1,-5.306768035E0,2.355605936E0,5.852037276E0
6.733953833E0,-7.538233343E-1,-5.941066972E0,1.755397435E0,6.240668757E0
6.744001833E0,-8.907345732E-1,-6.083960643E0,1.085756757E0,6.243945301E0
6.754050833E0,-1.212287434E0,-5.679839104E0,4.886344166E-1,5.828291059E0
6.764099833E0,-1.734094859E0,-4.713585548E0,-9.861621559E-3,5.022456665E0
6.774147833E0,-2.275730485E0,-3.388557365E0,-5.176409917E-1,4.114513635E0
6.784196833E0,-2.806783966E0,-1.776261324E0,-7.325086252E-1,3.401427554E0
6.794244833E0,-3.639317547E0,-2.723399162E-2,-9.120403652E-1,3.751958359E0
6.804293833E0,-4.902935348E0,1.597962762E0,-1.056400080E0,5.263861809E0
6.814341833E0,-6.395421356E0,2.727847724E0,-1.012870044E0,7.026270223E0
6.824390833E0,-8.059108576E0,2.994275520E0,-6.557991493E-1,8.622354055E0
6.834439833E0,-7.880163896E0,2.028661650E0,7.548532482E-1,8.172041027E0
6.844487833E0,-3.888549852E0,4.101435864E-1,2.467923785E0,4.623817202E0
6.854536833E0,-1.341980285E0,-3.306758326E-1,3.220345834E0,3.504409349E0
6.864584833E0,3.605917959E-1,-1.297847986E-1,3.460285159E0,3.481442793E0
6.874633833E0,8.669495617E-1,-1.376069114E0,2.247364472E0,2.774133165E0
6.884681833E0,-1.794443241E-1,-3.091079099E0,3.832801621E-1,3.119915695E0
6.894730833E0,-1.113760388E0,-3.596998324E0,-1.497486985E0,4.052323582E0
6.904779833E0,-1.099924853E0,-3.461964480E0,-3.374927505E0,4.958343313E0
6.914827833E0,-9.772759961E-1,-3.485725810E0,-4.493885776E0,5.770646598E0
6.924876833E0,-1.427780573E0,-3.758861532E0,-4.161533546E0,5.786705353E0
6.934924833E0,-1.864530891E0,-3.969671783E0,-3.179041103E0,5.416739965E0
6.944973833E0,-2.224813954E0,-3.460082261E0,-1.985138192E0,4.567574852E0
6.955021833E0,-2.150598023E0,-1.258009152E0,-9.456485528E-1,2.664940913E0
6.965070833E0,-2.152582276E0,2.140677930E0,6.853150168E-1,3.112196833E0
6.975119833E0,-2.054178168E0,4.860237225E0,2.818268190E0,5.981988751E0
6.985167833E0,-1.534836368E0,4.044839494E0,3.591790501E0,5.622935907E0
6.995216833E0,-1.287093349E0,2.481049615E0,2.918690318E0,4.041159444E0
7.005264833E0,-5.216236764E-1,1.994641964E0,6.116874620E-1,2.150546297E0
7.015313833E0,5.104598799E-1,2.152806224E0,-1.859292955E0,2.890002461E0
7.025361833E0,1.159187260E0,1.955362124E0,-2.980235771E0,3.748194417E0
7.035410833E0,2.860123436E0,1.589738653E0,-2.773622944E0,4.289587310E0
7.045459833E0,4.199753287E0,9.682702607E-1,-1.225278193E0,4.480712178E0
7.055507833E0,3.660173396E0,3.823962092E-2,9.483435345E-1,3.781228242E0
7.065556833E0,2.443802559E0,-5.054894543E-1,1.387351609E0,2.855246928E0
7.075604833E0,1.045274875E0,-4.450619888E-1,1.093074109E0,1.576543924E0
7.085653833E0,-2.680539072E-2,5.226030850E-1,1.189819800E0,1.299809090E0
7.095701833E0,-5.823291770E-1,1.361114860E0,3.683818951E-1,1.525596982E0
7.105750833E0,-1.830976644E-1,1.303321565E0,-3.215687943E-1,1.354835173E0
7.115799833E0,2.283767483E-1,4.879869837E-1,-5.575787902E-2,5.416605731E-1
7.125847833E0,7.286604264E-1,-6.344486260E-1,-2.341575980E-1,9.941332189E-1
7.135896833E0,1.100933644E0,-1.649856216E0,-1.731038958E-1,1.990991054E0
7.145944833E0,1.215883471E0,-2.351968821E0,7.992813429E-1,2.765679052E0
7.155993833E0,1.335545570E0,-2.540810498E0,1.409233205E0,3.197708271E0
7.166041833E0,9.599286228E-1,-1.528479713E0,1.001586380E0,2.064191966E0
7.176090833E0,3.365829822E-1,-2.295616865E-1,4.413747346E-1,6.006649051E-1
7.186139833E0,4.642607367E-1,4.108475912E-1,-2.802148001E-1,6.803338217E-1
7.196187833E0,5.643630221E-1,3.780160600E-1,-1.287311011E0,1.455531313E0
7.206236833E0,8.534332842E-2,-1.955022401E-1,-2.007342409E0,2.018645129E0
7.216284833E0,-3.382500234E-1,-8.564586335E-1,-2.187126749E0,2.373069296E0
7.226333833E0,-7.141412053E-1,-1.601013254E0,-1.993103123E0,2.654373968E0
7.236381833E0,-1.114759970E0,-2.332080102E0,-1.620256587E0,3.050658748E0
7.246430833E0,-1.154726858E0,-2.705797289E0,-1.091609527E0,3.137888533E0
7.256479833E0,-6.758615309E-1,-2.637333995E0,-7.511334689E-1,2.824273517E0
7.266527833E0,7.699145794E-2,-2.232697316E0,-9.450926287E-1,2.425709189E0
7.276576833E0,8.257399938E-1,-1.660089428E0,-1.677976499E0,2.500669626E0
7.286624833E0,1.333008171E0,-1.336503344E0,-2.711103637E0,3.303518564E0
7.296673833E0,1.134111768E0,-1.216680447E0,-3.457857395E0,3.837095071E0
7.306721833E0,4.175194104E-1,-1.289242639E0,-3.616014054E0,3.861609338E0
7.316770833E0,6.377619508E-1,-1.432291846E0,-3.270297428E0,3.626712769E0
7.326819833E0,7.446076839E-1,-1.488732680E0,-2.793972716E0,3.252237558E0
7.336867833E0,2.118219651E-1,-1.388110285E0,-2.472271775E0,2.843210586E0
7.346916833E0,3.865448087E-3,-1.140314056E0,-2.072109386E0,2.365157161E0
7.356964833E0,3.831797361E-2,-6.890306300E-1,-1.580772532E0,1.724840072E0
7.367013833E0,1.501757938E-1,-1.219945532E-1,-1.277995520E0,1.292558698E0
7.377061833E0,4.013199918E-1,5.760209084E-1,-9.167510283E-1,1.154681892E0
7.387110833E0,6.137353031E-1,1.219725092E0,-1.566644307E-1,1.374388615E0
7.397158833E0,1.007073407E0,1.531579907E0,5.109261954E-1,1.902887132E0
7.407207833E0,1.415997410E0,1.594614061E0,7.001204592E-1,2.244551476E0
7.417256833E0,1.724177396E0,1.454001389E0,4.649659109E-1,2.302846289E0
7.427304833E0,9.213583419E-1,1.166335335E0,5.196480850E-2,1.487259107E0
7.437353833E0,-7.045646355E-2,1.377986416E0,-8.064509064E-1,1.598178256E0
7.447401833E0,-6.023313323E-1,1.942270793E0,-1.846299273E0,2.746641562E0
7.457450833E0,-1.062242618E0,2.326986008E0,-2.642237470E0,3.677586451E0
7.467498833E0,-1.559307404E0,2.246371615E0,-2.915962592E0,3.997557110E0
7.477547833E0,-2.107503752E0,1.709149906E0,-2.667237825E0,3.804855198E0
7.487596833E0,-2.082632620E0,1.195835708E0,-2.567041107E0,3.515264103E0
7.497644833E0,-2.284996714E0,1.011575325E0,-2.994198337E0,3.899963885E0
7.507693833E0,-2.153434361E0,9.556607401E-1,-4.066303453E0,4.699509631E0
7.517741833E0,-1.321433461E0,8.249456495E-1,-5.242525846E0,5.469076610E0
7.527790833E0,-7.378167276E-1,4.433277047E-1,-6.218641316E0,6.277930614E0
7.537839833E0,-4.224996302E-1,-1.584583747E-1,-6.705472890E0,6.720638487E0
7.547887833E0,-8.653455243E-2,-1.947526270E-1,-6.890140239E0,6.893435234E0
7.557936833E0,7.860996723E-2,2.001735806E-1,-6.611106430E0,6.614603331E0
7.567984833E0,2.005364004E-1,5.300717336E-1,-5.716129848E0,5.744156277E0
7.578033833E0,4.858346236E-1,8.526690531E-1,-4.360616621E0,4.469681993E0
7.588081833E0,8.962311020E-1,1.230026717E0,-3.053812455E0,3.412032594E0
7.598130833E0,1.021259922E0,1.380865000E0,-1.636801284E0,2.372525746E0
7.608178833E0,3.617700098E-1,1.078470980E0,-1.872494799E-1,1.152839782E0
7.618227833E0,-3.734049457E-1,4.014522851E-1,7.033412518E-1,8.917870301E-1
7.628276833E0,-7.830139504E-1,-7.717500204E-1,9.810492043E-1,1.473487863E0
7.638324833E0,-7.468423435E-1,-1.781854185E0,1.108094290E0,2.227251845E0
7.648373833E0,-6.811520916E-1,-2.581080857E0,1.162916322E0,2.911755645E0
7.658421833E0,-7.770021357E-1,-2.920390103E0,9.496644205E-1,3.167692092E0
7.668470833E0,-1.159277015E0,-2.768832613E0,8.189183396E-1,3.111428045E0
7.678518833E0,-1.952988447E0,-2.116717794E0,9.264911740E-1,3.025399806E0
7.688567833E0,-2.840228870E0,-8.743376648E-1,1.217930508E0,3.211653952E0
7.698616833E0,-3.739492046E0,3.877978671E-1,1.444537670E0,4.027514994E0
7.708664833E0,-4.205391757E0,1.603000723E0,1.859381248E0,4.869520487E0
7.718713833E0,-3.357302243E0,2.732250093E0,1.981502101E0,4.760569241E0
7.728761833E0,-2.290733417E0,3.719177064E0,1.509180393E0,4.621402718E0
7.738810833E0,-2.242517277E0,4.909612284E0,1.138005576E0,5.516179221E0
7.748858833E0,-2.575252937E0,6.181196331E0,8.734377784E-1,6.752925983E0
7.758907833E0,-2.958315144E0,7.178096899E0,5.694708574E-1,7.784664453E0
7.768956833E0,-3.333576581E0,7.325595837E0,5.774803734E-1,8.069112143E0
7.779004833E0,-3.372102715E0,6.257086759E0,1.079063888E0,7.189338655E0
7.789053833E0,-3.161571962E0,4.467190313E0,1.265882428E0,5.617275574E0
7.799101833E0,-2.983310822E0,2.850819932E0,1.105889817E0,4.272038159E0
7.809150833E0,-2.229254768E0,1.460018758E0,2.200500208E0,3.455927193E0
7.819198833E0,-1.327542486E0,3.255460703E-1,3.116453676E0,3.403032884E0
7.829247833E0,-7.595574063E-1,-6.750107610E-1,2.679173162E0,2.865403255E0
7.839296833E0,-1.300560363E-1,-1.563711526E0,1.990992132E0,2.534986781E0
7.849344833E0,2.027080563E-1,-2.386359220E0,1.031949363E0,2.607819083E0
7.859393833E0,8.213513660E-1,-2.039323463E0,-3.840952639E-1,2.231812587E0
7.869441833E0,4.995116995E-1,-1.917406678E0,-1.750688380E0,2.644025361E0
7.879490833E0,2.327512878E-1,-2.102266400E0,-2.672552944E0,3.408260028E0
7.889538833E0,3.021576280E-1,-2.307420639E0,-2.782781146E0,3.627583237E0
7.899587833E0,6.705200263E-1,-2.220348582E0,-2.631949879E0,3.508091375E0
7.909636833E0,9.682021406E-1,-2.020351587E0,-2.667363541E0,3.483398366E0
7.919684833E0,-3.225505418E-1,-2.224007185E0,-2.849087109E0,3.628711089E0
7.929733833E0,-1.775871753E0,-2.250027294E0,-3.002180079E0,4.150834679E0
7.939781833E0,-2.591201218E0,-2.180857657E0,-2.466074603E0,4.189509258E0
7.949830833E0,-3.511883329E0,-2.365920278E0,-1.727315159E0,4.573239654E0
7.959878833E0,-4.108114846E0,-2.488870851E0,-1.370313699E0,4.994881914E0
7.969927833E0,-4.136664754E0,-2.579983335E0,-1.391009042E0,5.069833868E0
7.979976833E0,-3.656484680E0,-2.639849467E0,-1.515739215E0,4.757746398E0
7.990024833E0,-2.889012775E0,-2.846837393E0,-1.621876996E0,4.368221943E0
8.000073833E0,-2.105631912E0,-3.190617421E0,-1.892170680E0,4.265446653E0
8.010121833E0,-1.676598164E0,-3.598395808E0,-2.142606634E0,4.511119261E0
8.020170833E0,-1.512844989E0,-3.876565399E0,-2.158670689E0,4.687890613E0
8.030218833E0,-1.403281471E0,-3.904232084E0,-1.964309533E0,4.590287463E0
8.040267833E0,-1.619836172E0,-3.302561780E0,-1.550362918E0,3.991792669E0
8.050316833E0,-2.434047357E0,-2.208434295E0,-9.817878538E-1,3.430113112E0
8.060364833E0,-3.295027058E0,-9.158663446E-1,-8.416227856E-1,3.521980037E0
8.070413833E0,-3.701725464E0,5.925743759E-2,-1.173942855E0,3.883867233E0
8.080461833E0,-3.753073958E0,6.451472765E-1,-1.732376216E0,4.183647511E0
8.090510833E0,-3.445547252E0,8.993847978E-1,-2.177030069E0,4.173745177E0
8.100558833E0,-3.001503264E0,8.726875806E-1,-2.140981400E0,3.788720999E0
8.110607833E0,-2.876418749E0,6.859210807E-1,-1.920133234E0,3.525788449E0
8.120656833E0,-3.281728150E0,1.824910158E-1,-1.980077135E0,3.837153643E0
8.130704833E0,-3.167654820E0,-5.160401702E-1,-1.436078503E0,3.516056880E0
8.140753833E0,-3.099996103E0,-1.343035854E0,-8.313957131E-1,3.479215425E0
8.150801833E0,-3.441555358E0,-2.216881183E0,-5.161863506E-1,4.126174234E0
8.160850833E0,-3.607095296E0,-2.942582626E0,-3.518828067E-1,4.668377715E0
8.170898833E0,-3.660318992E0,-3.575221539E0,-4.187995121E-1,5.133764428E0
8.180947833E0,-3.555315862E0,-3.993241324E0,-5.011902890E-1,5.370050173E0
8.190996833E0,-3.033095770E0,-4.200301171E0,-4.659950209E-1,5.201860363E0
8.201044833E0,-2.369824318E0,-4.407282080E0,-3.660547033E-1,5.017389628E0
8.211093833E0,-1.832003123E0,-4.585106433E0,-3.678109145E-1,4.951234322E0
8.221141833E0,-1.403839880E0,-4.673175441E0,-4.656228456E-1,4.901646636E0
8.231190833E0,-1.040086933E0,-4.392267600E0,-5.245583940E-1,4.544112345E0
8.241238833E0,-6.025162139E-1,-3.690058515E0,-7.706317404E-1,3.817516328E0
8.251287833E0,-1.386739186E-1,-2.664464491E0,-1.377242357E0,3.002565235E0
8.261336833E0,1.688337473E-1,-1.693477029E0,-2.062147777E0,2.673728246E0
8.271384833E0,1.847023231E-1,-8.591202861E-1,-2.693821607E0,2.833527389E0
8.281433833E0,1.306507713E-1,-1.840861362E-1,-3.082621686E0,3.090875894E0
8.291481833E0,1.863562446E-1,3.325978124E-1,-3.329772090E0,3.351526835E0
8.301530833E0,9.020733476E-2,7.880888951E-1,-3.551128086E0,3.638644274E0
8.311578833E0,3.585965797E-2,1.286378673E0,-3.655128711E0,3.875051212E0
8.321627833E0,2.462277860E-1,1.686308343E0,-3.671754391E0,4.047967917E0
8.331676833E0,3.598896915E-1,2.129872860E0,-3.617516788E0,4.213348633E0
8.341724833E0,6.108630046E-1,2.534941063E0,-3.686126847E0,4.515153479E0
8.351773833E0,8.617535066E-1,2.905935786E0,-3.630014627E0,4.729068417E0
8.361821833E0,9.207951088E-1,3.305180163E0,-3.211348139E0,4.699450650E0
8.371870833E0,1.243753932E0,3.578670226E0,-2.725594207E0,4.667190613E0
8.381918833E0,1.550741233E0,3.409046009E0,-2.164601812E0,4.325724687E0
8.391967833E0,1.832298115E0,2.732579291E0,-1.588299068E0,3.653354608E0
8.402016833E0,1.680472822E0,1.797310715E0,-1.202251711E0,2.738562376E0
8.412064833E0,1.026821355E0,1.437768348E0,-1.245657932E0,2.161759376E0
8.422113833E0,2.110659201E-1,1.862099034E0,-1.661929547E0,2.504789702E0
8.432161833E0,-4.227307414E-1,2.642918671E0,-2.163766830E0,3.441744801E0
8.442210833E0,-7.270566814E-1,3.539806708E0,-2.648633155E0,4.480412987E0
8.452258833E0,-9.526940091E-1,4.168656040E0,-2.592454276E0,5.000613785E0
8.462307833E0,-9.079566698E-1,4.673981187E0,-1.854224589E0,5.109660877E0
8.472356833E0,-5.041849405E-1,5.157337761E0,-7.891834939E-1,5.241673952E0
8.482404833E0,9.195734793E-1,5.233297770E0,5.567705880E0,7.696256863E0
8.492453833E0,3.100514166E0,4.869767017E0,1.388883404E1,1.504086200E1
8.502501833E0,3.850416943E0,3.166910470E0,1.276145110E1,1.370071774E1
8.512550833E0,3.376587237E0,7.703063428E-1,6.537337958E0,7.398074128E0
8.522598833E0,7.885623003E-1,-4.739016259E-1,-8.994888783E-2,9.243938851E-1
8.532647833E0,-7.052042478E-1,-1.119266419E0,-4.121749091E0,4.328843485E0
8.542696833E0,-8.608919924E-1,-2.460976124E0,-5.250041857E0,5.861781129E0
8.552744833E0,-1.145720538E0,-3.455553008E0,-4.483060241E0,5.775062880E0
8.562793833E0,-1.530366610E0,-3.728660663E0,-3.537202942E0,5.362530835E0
8.572841833E0,-1.877418447E0,-3.698873193E0,-3.129216979E0,5.195994786E0
8.582890833E0,-2.023025811E0,-3.081030659E0,-2.513322737E0,4.461185329E0
8.592938958E0,-2.369460475E0,-2.076977193E0,-2.175103412E0,3.828740269E0
8.602987958E0,-3.429398120E0,-1.329927565E0,-2.802572216E0,4.624271815E0
8.613035958E0,-5.430235502E0,-6.428405499E-1,-3.510160155E0,6.497840094E0
8.623084958E0,-7.818516701E0,2.405661464E-2,-4.013068063E0,8.788315960E0
8.633133958E0,-9.850477935E0,5.341121596E-1,-3.499301291E0,1.046720120E1
8.643181958E0,-1.030137077E1,4.639601898E-1,-2.095311722E0,1.052253914E1
8.653230958E0,-8.578966393E0,-4.584059197E-1,-3.703942875E-1,8.599185559E0
8.663278958E0,-5.427626474E0,-1.486294976E0,5.758308738E-1,5.656835077E0
8.673327958E0,-3.270513191E0,-2.646318242E0,9.657610743E-1,4.316474397E0
8.683375958E0,-1.728009369E0,-3.803679271E0,9.613652837E-1,4.286982107E0
8.693424958E0,-7.438865760E-1,-4.300319549E0,5.566425779E-1,4.399541615E0
8.703473958E0,-2.658777197E-1,-4.326717389E0,3.822324872E-2,4.335047328E0
8.713521958E0,-1.817881805E-1,-4.071820301E0,-5.615462722E-1,4.114377441E0
8.723570958E0,-4.497730905E-1,-3.492571145E0,-1.130901866E0,3.698552159E0
8.733618958E0,-5.578958555E-1,-2.470000132E0,-1.604689983E0,2.997862301E0
8.743667958E0,-4.343186072E-1,-1.137294554E0,-1.889586210E0,2.247800614E0
8.753715958E0,-1.322811212E-1,3.505481797E-1,-2.049769514E0,2.083731600E0
8.763764958E0,2.590651287E-1,1.953144860E0,-1.842512616E0,2.697543757E0
8.773813958E0,6.698409453E-1,3.043407335E0,-1.222184431E0,3.347349680E0
8.783861958E0,1.053771464E0,3.529545429E0,2.244909811E-1,3.690328093E0
8.793910958E0,1.435994596E0,3.397276733E0,2.585519478E0,4.504273599E0
8.803958958E0,1.452635040E0,2.244967698E0,4.642147776E0,5.357197448E0
8.814007958E0,-4.859123915E-2,3.402752066E-1,3.128889534E0,3.147713145E0
8.824055958E0,-4.093983588E-1,-4.695103669E-1,2.824392636E-1,6.839729077E-1
8.834104958E0,-8.062827989E-2,-7.215984517E-1,-1.062800442E0,1.287148020E0
8.844153958E0,7.310598314E-1,-3.036201811E-1,-1.486085061E0,1.683770323E0
8.854201958E0,1.073573352E0,2.132573104E-1,-1.383888595E0,1.764422304E0
8.864250958E0,5.341080666E-1,2.982594538E-1,-1.163197135E0,1.314251765E0
8.874298958E0,1.408769667E-2,-5.709045947E-2,-1.246239291E0,1.247625807E0
8.884347958E0,-4.693165317E-1,-4.257141370E-1,-1.409107636E0,1.545016137E0
8.894395958E0,-7.084843165E-1,-6.876074177E-1,-1.493954244E0,1.790713062E0
8.904444958E0,-1.088432297E0,-8.736196268E-1,-1.538705324E0,2.077380608E0
8.914493958E0,-1.400487963E0,-9.101395816E-1,-1.589529322E0,2.305715520E0
8.924541958E0,-1.693981059E0,-8.258478749E-1,-1.649935738E0,2.504772341E0
8.934590958E0,-1.460252647E0,-6.641998440E-1,-1.632871224E0,2.289053878E0
8.944638958E0,-6.056312084E-1,-4.550806081E-1,-1.636001823E0,1.802883658E0
8.954687958E0,-9.816334873E-2,-4.721182251E-1,-1.953271744E0,2.011915050E0
8.964735958E0,6.920472085E-2,-5.849636400E-1,-1.963091558E0,2.049560982E0
8.974784958E0,1.440897194E-1,-6.537350821E-1,-1.605348380E0,1.739331718E0
8.984833958E0,1.574716571E-1,-5.726897496E-1,-1.766891745E0,1.864048635E0
8.994881958E0,3.355980188E-1,-4.515968370E-1,-1.964732287E0,2.043707096E0
9.004930958E0,6.277409926E-1,-3.591108423E-1,-1.883091708E0,2.017189562E0
9.014978958E0,5.648471716E-1,-5.309306896E-1,-1.410136746E0,1.609169154E0
9.025027958E0,4.817895198E-1,-2.393089950E-1,-1.529281366E0,1.621138931E0
9.035075958E0,3.077667341E-1,-7.960750222E-2,-1.861746447E0,1.888692021E0
9.045124958E0,3.457903004E-1,-4.585813361E-1,-1.905018767E0,1.989714621E0
9.055173958E0,4.295279834E-1,-8.228260338E-1,-2.012787044E0,2.216494677E0
9.065221958E0,4.668656713E-1,-1.083183251E0,-2.412382253E0,2.685300290E0
9.075270958E0,6.898711672E-1,-8.957606936E-1,-3.314988282E0,3.502492935E0
9.085318958E0,1.090547819E0,-6.908935529E-1,-3.408847788E0,3.645116142E0
9.095367958E0,1.326822986E0,-5.970030570E-1,-3.177819620E0,3.495054996E0
9.105415958E0,1.028828996E0,-2.792729598E-1,-3.012861480E0,3.195906255E0
9.115464958E0,3.298835349E-1,4.636081874E-2,-2.906477823E0,2.925506077E0
9.125513958E0,-4.117889929E-1,3.478543675E-1,-2.981181266E0,3.029523820E0
9.135561958E0,-9.519471735E-1,6.529193956E-1,-3.555489525E0,3.738183104E0
9.145610958E0,-1.060999792E0,5.320182717E-1,-3.585185779E0,3.776548830E0
9.155658958E0,-1.291618363E0,1.900011796E-1,-3.497396268E0,3.733116539E0
9.165707958E0,-1.421516013E0,-3.193544537E-1,-3.580385215E0,3.865469354E0
9.175755958E0,-1.221658766E0,-5.026167172E-1,-4.158730391E0,4.363497699E0
9.185804958E0,-8.686845767E-1,-3.849280536E-1,-4.326498703E0,4.429601960E0
9.195853958E0,-8.654241693E-1,-5.372784269E-1,-4.163685322E0,4.286479040E0
9.205901958E0,-9.132289580E-1,-8.014018357E-1,-3.927681173E0,4.111315049E0
9.215950958E0,-9.078270078E-2,-2.693169057E-1,-3.738651216E0,3.749438093E0
9.225998958E0,7.518142310E-1,2.572283721E-1,-3.363644133E0,3.456225243E0
9.236047958E0,1.240958671E0,3.286035794E-1,-2.623062696E0,2.920345295E0
9.246095958E0,1.704532652E0,4.576182997E-1,-1.803378956E0,2.523295807E0
9.256144958E0,1.834958890E0,8.133944750E-1,-1.292858557E0,2.387502450E0
9.266193958E0,1.544792568E0,1.230802057E0,-1.184045382E0,2.302872391E0
9.276241958E0,9.728421986E-1,1.347446408E0,-1.270864255E0,2.092159105E0
9.286290958E0,6.232813212E-1,1.096411407E0,-1.314404377E0,1.821608203E0
9.296338958E0,3.518371984E-1,8.459330606E-1,-1.084861402E0,1.419970570E0
9.306387958E0,-1.002817950E-1,8.064655244E-1,-6.651465082E-1,1.050172823E0
9.316435958E0,-7.817665932E-1,7.374701339E-1,-2.156757188E-1,1.096146532E0
9.326484958E0,-1.661003055E0,6.183448094E-1,2.032562510E-1,1.783982779E0
9.336533958E0,-2.259923122E0,4.622311682E-1,4.530142021E-1,2.350772647E0
9.346581958E0,-2.370662224E0,3.024390435E-1,8.300841826E-1,2.529930533E0
9.356630958E0,-2.512663171E0,1.047487754E-1,1.193576928E0,2.783715934E0
9.366678958E0,-2.695778377E0,-1.906519747E-1,1.530402278E0,3.105752786E0
9.376727958E0,-3.073183696E0,-6.366840166E-1,2.061337645E0,3.754855184E0
9.386775958E0,-3.727939994E0,-8.034249723E-1,2.845993055E0,4.758435116E0
9.396824958E0,-4.771355454E0,2.955533624E-1,3.061122644E0,5.676588456E0
9.406873958E0,-3.463630351E0,2.170581175E0,2.240184091E0,4.661178243E0
9.416921958E0,-1.667344068E0,3.290626443E0,1.235975089E0,3.890487508E0
9.426970958E0,-1.536082555E0,4.361698941E0,7.629588778E-1,4.686797789E0
9.437018958E0,-1.326129214E0,5.088231858E0,6.667578547E-1,5.300310196E0
9.447067958E0,-7.720099291E-1,5.102568646E0,1.302276814E0,5.322417779E0
9.457115958E0,3.152760208E-2,4.371483672E0,2.397158881E0,4.985702978E0
9.467164958E0,9.282551327E-1,3.261942342E0,3.285817985E0,4.722131432E0
9.477213958E0,1.590455083E0,2.055549486E0,3.214296890E0,4.133586283E0
9.487261958E0,1.880867719E0,8.795001715E-1,2.182852434E0,3.012644798E0
9.497310958E0,2.077138284E0,-2.157207423E-1,5.607880345E-1,2.162295564E0
9.507358958E0,2.397264424E0,-1.204591913E0,-1.148159266E-1,2.685349342E0
9.517407958E0,7.605151071E-1,-1.638151844E0,-9.879478955E-1,2.058632006E0
9.527455958E0,-8.413495745E-1,-1.116128803E0,-1.578602630E0,2.108458887E0
9.537504958E0,-9.162961149E-1,-1.036531826E0,-1.547527895E0,2.075774405E0
9.547553958E0,-1.979150059E0,-1.316617548E0,-1.330764010E0,2.724233759E0
9.557601958E0,-3.093561535E0,-1.524824619E0,-5.345837376E-1,3.490127914E0
9.567650958E0,-3.633430863E0,-1.728710012E0,2.266088426E-1,4.030088052E0
9.577698958E0,-3.591125088E0,-2.023051831E0,6.387694260E-1,4.170964455E0
9.587747958E0,-2.997233627E0,-2.119333254E0,7.269009992E-1,3.742107416E0
9.597794708E0,-2.116647774E0,-1.775602342E0,8.463944060E-1,2.889523311E0
9.607843708E0,-9.497429194E-1,-1.355321438E0,9.003773627E-1,1.884034822E0
9.617891708E0,-2.432567975E-1,-8.421580982E-1,6.948468554E-1,1.118577795E0
9.627940708E0,-1.779300049E-1,-5.840093744E-1,4.238462439E-1,7.432171113E-1
9.637989708E0,-5.178934452E-1,-6.271033537E-1,3.989672184E-2,8.142874095E-1
9.648037708E0,-8.007201965E-1,-8.436883146E-1,-1.322625563E-1,1.170664849E0
9.658086708E0,-1.062086424E0,-1.320818188E0,-8.397537231E-2,1.696950241E0
9.668134708E0,-1.171825432E0,-1.835870179E0,-5.287578642E-2,2.178621125E0
9.678183708E0,-1.402623513E0,-2.147373576E0,2.701735228E-2,2.565013827E0
9.688231708E0,-1.591096522E0,-2.296569961E0,2.059760651E-1,2.801472447E0
9.698280708E0,-1.746146701E0,-2.287781596E0,3.970692122E-1,2.905277421E0
9.708329708E0,-1.622067323E0,-2.303166205E0,4.371086061E-1,2.850743921E0
9.718377708E0,-1.326264723E0,-2.333492789E0,3.323300099E-1,2.704553558E0
9.728426708E0,-1.121913161E0,-2.333775795E0,1.406866398E-1,2.593258824E0
9.738474708E0,-9.237406437E-1,-2.246927685E0,-5.854027659E-2,2.430104476E0
9.748523708E0,-7.132633920E-1,-2.231803862E0,-1.986249456E-1,2.351413408E0
9.758571708E0,-5.390987382E-1,-2.274117823E0,-2.430786949E-1,2.349750321E0
9.768620708E0,-3.152039538E-1,-2.382960818E0,-2.062754425E-1,2.412551627E0
9.778669708E0,-1.106290278E-1,-2.540793541E0,-1.449255788E-1,2.547326839E0
9.788717708E0,5.303077418E-2,-2.650822352E0,-1.031279272E-1,2.653357642E0
9.798766708E0,1.135419644E-1,-2.658189844E0,-1.200678957E-1,2.663321483E0
9.808814708E0,1.389807878E-1,-2.538738829E0,-1.964158675E-1,2.550115624E0
9.818863708E0,2.642007382E-1,-2.165616889E0,-3.322905412E-1,2.206833828E0
9.828911708E0,4.830296411E-1,-1.564534230E0,-4.984216323E-1,1.711580881E0
9.838960708E0,7.541670044E-1,-7.692292857E-1,-7.195551422E-1,1.295469478E0
9.849009708E0,9.778461727E-1,2.288483262E-1,-9.142291242E-1,1.358075692E0
9.859057708E0,1.111054662E0,1.272004462E0,-1.089899363E0,2.010054337E0
9.869106708E0,1.253760857E0,2.282361812E0,-1.230492301E0,2.880139412E0
9.879154708E0,1.249279113E0,3.186195171E0,-1.231587631E0,3.637216802E0
9.889203708E0,1.322027100E0,3.991170241E0,-1.087770392E0,4.342860805E0
9.899251708E0,1.432071406E0,4.599546132E0,-7.369529477E-1,4.873371808E0
9.909300708E0,1.407841860E0,4.663176702E0,-2.782325940E-1,4.879000824E0
9.919349708E0,1.350391943E0,4.047591194E0,2.519983301E-1,4.274348609E0
9.929397708E0,1.624805867E0,2.919061031E0,5.108724010E-1,3.379630456E0
9.939446708E0,2.065933703E0,1.743101764E0,4.209062639E-1,2.735625688E0
9.949494708E0,2.541129756E0,1.047726905E0,1.850903955E-1,2.754873964E0
9.959543708E0,2.942503104E0,8.806280994E-1,-3.220364253E-1,3.088290437E0
9.969591708E0,2.909276301E0,1.470496384E0,-1.250850113E0,3.491543243E0
9.979640708E0,1.613334799E0,2.419670223E0,-2.004924878E0,3.532333072E0
9.989689708E0,3.546400613E-1,3.179644536E0,-2.433035789E0,4.019399469E0
9.999737708E0,-4.461143415E-1,3.910980940E0,-2.550532371E0,4.690416325E0
1.000978671E1,-9.649085502E-1,4.489395699E0,-2.175731695E0,5.081292223E0
1.001983471E1,-1.118147554E0,4.596400330E0,-1.231914783E0,4.888227079E0
1.002988371E1,-1.262078960E0,4.451822661E0,-2.378495300E-1,4.633372498E0
1.003993171E1,-1.405254175E0,3.831275205E0,5.550131781E-1,4.118427931E0
1.004998071E1,-1.461211005E0,2.691355836E0,1.597417216E0,3.454023104E0
1.006002971E1,-2.008144793E0,1.529581329E0,4.599033916E0,5.246272726E0
1.007007771E1,-2.365821168E0,3.438759220E-1,5.957380704E0,6.419170141E0
1.008012671E1,-1.982581059E0,-1.058737212E0,4.367374249E0,4.911772589E0
1.009017471E1,-1.345292440E0,-2.308614056E0,2.074054170E0,3.382485966E0
1.010022371E1,-8.771649398E-1,-3.372104470E0,7.838030322E-1,3.571393857E0
1.011027171E1,-5.004843839E-1,-4.115813583E0,4.426437266E-1,4.169692978E0
1.012032071E1,-5.194764327E-1,-4.452305641E0,5.266473117E-1,4.513340079E0
1.013036971E1,-1.175244592E0,-4.126120470E0,7.095176657E-1,4.348503800E0
1.014041771E1,-1.765586793E0,-3.297715023E0,6.696313226E-1,3.800082526E0
1.015046671E1,-2.048320427E0,-2.185919591E0,4.096804869E-1,3.023524290E0
1.016051471E1,-2.276791023E0,-8.776927972E-1,-1.369170861E-1,2.443945232E0
1.017056371E1,-2.484187816E0,4.592175132E-1,-7.161996444E-1,2.625835440E0
1.018061171E1,-2.713503335E0,1.591783424E0,-9.832057305E-1,3.295992768E0
1.019066071E1,-3.173560508E0,2.209335351E0,-9.489235783E-1,3.981595779E0
1.020070971E1,-3.745398318E0,1.999464163E0,-5.972556202E-1,4.287491082E0
1.021075771E1,-3.901112595E0,9.511016661E-1,-6.095133942E-2,4.015842243E0
1.022080671E1,-3.660542940E0,-3.804473323E-1,2.778690434E-1,3.690735156E0
1.023085471E1,-3.191642438E0,-1.472504318E0,4.806463891E-1,3.547657166E0
1.024090371E1,-2.669148403E0,-2.070623608E0,6.406379038E-1,3.438350222E0
1.025095171E1,-2.165234920E0,-2.201946225E0,9.427290380E-1,3.228861637E0
1.026100071E1,-2.257050385E0,-2.379454243E0,8.728834623E-1,3.393818568E0
1.027104971E1,-2.444488437E0,-2.618088470E0,5.076745588E-1,3.617684952E0
1.028109771E1,-2.381107397E0,-2.507325248E0,3.288368833E-1,3.473396901E0
1.029114671E1,-1.653917838E0,-1.998270162E0,-3.308822393E-2,2.594151631E0
1.030119471E1,-7.991274150E-1,-1.655855459E0,-8.095949543E-1,2.008956425E0
1.031124371E1,-3.117451796E-1,-1.580204768E0,-1.846050181E0,2.449925190E0
1.032129171E1,-9.244564891E-2,-1.551957453E0,-2.646142241E0,3.069069386E0
1.033134071E1,-1.018545498E-1,-1.409147982E0,-3.223122092E0,3.519174393E0
1.034138971E1,2.652636158E-1,-1.042964348E0,-3.562526064E0,3.721522722E0
1.035143771E1,6.377590272E-1,-6.663878721E-1,-3.508077961E0,3.627315861E0
1.036148671E1,6.207317890E-1,-3.652463257E-1,-2.556132542E0,2.655659316E0
1.037153471E1,8.094407339E-1,-2.288617748E-1,-1.147111444E0,1.422475546E0
1.038158371E1,8.019807100E-1,2.008898646E-1,2.531236267E-1,8.646394435E-1
1.039163171E1,9.236019185E-1,1.110444140E0,1.518610636E0,2.095782660E0
1.040168071E1,1.836973549E0,1.863528678E0,3.171810436E0,4.111884288E0
1.041172971E1,2.706025330E0,1.849733343E0,3.015544767E0,4.453941712E0
1.042177771E1,2.653241930E0,8.440666294E-1,1.682187664E0,3.252982716E0
1.043182671E1,1.871178591E0,5.023518384E-2,2.358288784E-1,1.886649981E0
1.044187471E1,1.296224507E0,1.502377743E-1,-1.159075871E0,1.745344160E0
1.045192371E1,9.834882241E-1,5.069880956E-1,-2.080221813E0,2.356185223E0
1.046197171E1,7.594197044E-1,7.167405850E-1,-2.178425653E0,2.415776000E0
1.047202071E1,5.221420321E-1,5.638335568E-1,-1.124696582E0,1.362161144E0
1.048206971E1,3.507370448E-1,2.168504244E-1,2.534956558E-1,4.840461018E-1
1.049211771E1,2.626434785E-1,1.408465612E-1,9.371179037E-1,9.833663183E-1
1.050216671E1,3.019654191E-1,2.840641683E-1,7.038375342E-1,8.168615798E-1
1.051221471E1,5.350836745E-1,1.918155706E-1,3.212086058E-1,6.529033008E-1
1.052226371E1,6.731741506E-1,-2.117452204E-2,-2.071010694E-3,6.735102720E-1
1.053231171E1,7.218510514E-1,-1.464154494E-1,-2.244311933E-1,7.699842757E-1
1.054236071E1,9.599315464E-1,-2.815972281E-1,-2.086882961E-1,1.021917990E0
1.055240871E1,9.659427765E-1,-3.790539408E-1,-1.133447671E-1,1.043826793E0
1.056245771E1,8.052206522E-1,-7.813552415E-1,-3.228247762E-2,1.122469808E0
1.057250671E1,7.821776524E-1,-1.033433971E0,-5.472284876E-2,1.297220969E0
1.058255471E1,6.004134455E-1,-9.298452830E-1,-1.630156215E-1,1.118786239E0
1.059260371E1,2.126670340E-1,-8.286726648E-1,-4.035502660E-1,9.459273069E-1
1.060265283E1,2.898581743E-2,-8.515206599E-1,-7.147683191E-1,1.112124706E0
1.061270183E1,-1.408047536E-1,-9.045098823E-1,-1.210855524E0,1.517937813E0
1.062275083E1,-1.482728174E-1,-1.044097538E0,-1.866296750E0,2.143638976E0
1.063279883E1,-2.882384956E-2,-8.503728515E-1,-2.462040317E0,2.604919831E0
1.064284783E1,-1.072420281E-1,-7.956721491E-1,-2.875851277E0,2.985819082E0
1.065289583E1,-1.641833836E-1,-1.053348418E0,-3.087704086E0,3.266560209E0
1.066294483E1,5.069360554E-2,-1.435345847E0,-3.195139657E0,3.503099338E0
1.067299283E1,4.519880158E-1,-1.727715985E0,-3.272575504E0,3.728142449E0
1.068304183E1,1.200050088E0,-1.591092283E0,-3.373187374E0,3.917918826E0
1.069308983E1,1.714958822E0,-1.222663903E0,-3.373056396E0,3.976619196E0
1.070313883E1,1.928804363E0,-6.594501507E-1,-2.881404963E0,3.529540385E0
1.071318783E1,1.870014410E0,-2.073171240E-1,-2.154219496E0,2.860174107E0
1.072323583E1,1.971329700E0,4.199177921E-2,-1.881112425E0,2.725158354E0
1.073328483E1,2.404262810E0,1.907069385E-1,-2.011239286E0,3.140371357E0
1.074333283E1,2.713456557E0,3.446448308E-1,-2.475131063E0,3.688888766E0
1.075338183E1,2.498887131E0,5.439711499E-1,-2.865295299E0,3.840606548E0
1.076342983E1,2.463708820E0,9.076428205E-1,-3.340938810E0,4.249182130E0
1.077347883E1,2.490651036E0,1.476405580E0,-3.930158054E0,4.881522134E0
1.078352783E1,2.201943593E0,2.041677552E0,-4.151129011E0,5.123365581E0
1.079357583E1,1.758451582E0,2.398813205E0,-4.368631985E0,5.285016762E0
1.080362483E1,9.666874194E-1,2.237699025E0,-4.632254872E0,5.234459541E0
1.081367283E1,2.785034662E-1,1.728308308E0,-4.601595581E0,4.923341922E0
1.082372183E1,-1.756784248E-1,9.874333405E-1,-4.233460146E0,4.350640449E0
1.083376983E1,-4.429429579E-1,2.250482208E-1,-3.561774697E0,3.596259745E0
1.084381883E1,-5.866473457E-1,-2.870544344E-1,-2.710659834E0,2.788230996E0
1.085386783E1,-7.156079793E-1,-7.693362898E-1,-1.694532452E0,1.993843860E0
1.086391583E1,-6.698146328E-1,-1.114968131E0,-5.335742158E-1,1.405883003E0
1.087396483E1,-7.033814514E-1,-1.099122176E0,8.344128764E-1,1.548889884E0
1.088401283E1,-8.031095150E-1,-6.284879744E-1,2.030956682E0,2.272612389E0
1.089406183E1,-8.848759554E-1,1.449869746E-1,2.433441585E0,2.593388638E0
1.090410983E1,-1.261552857E0,9.538106811E-1,2.665475475E0,3.099359600E0
1.091415883E1,-1.778815241E0,1.751070934E0,2.518705684E0,3.546027552E0
1.092420783E1,-2.588956179E0,2.709956998E0,2.240110416E0,4.366309163E0
1.093425583E1,-3.914878694E0,3.762835885E0,2.269276328E0,5.885135864E0
1.094430483E1,-5.407162389E0,4.634810105E0,2.496432470E0,7.546591607E0
1.095435283E1,-6.649311553E0,5.158130059E0,2.323672975E0,8.730355429E0
1.096440183E1,-7.213394201E0,5.293005443E0,1.508196892E0,9.073236489E0
1.097444983E1,-4.647081072E0,4.871232330E0,9.137537456E-1,6.794057168E0
1.098449883E1,-1.964343009E0,4.038121628E0,1.214700580E0,4.651942308E0
1.099454783E1,-9.625410126E-1,3.226087800E0,1.759553490E0,3.798704540E0
1.100459583E1,-2.354749757E-1,2.409558048E0,2.418048352E0,3.421750471E0
1.101464483E1,3.155699895E-1,1.747717556E0,3.008689199E0,3.493753250E0
1.102469283E1,9.786269952E-1,1.075478960E0,3.454015775E0,3.747611341E0
1.103474183E1,1.608846769E0,2.038596654E-1,3.799496465E0,4.131116081E0
1.104478983E1,2.366294792E0,-4.610933000E-1,4.192571444E0,4.836280946E0
1.105483883E1,3.200897995E0,-9.058541572E-1,4.408675179E0,5.522928260E0
1.106488783E1,3.925990451E0,-1.196728578E0,3.457380263E0,5.366473571E0
1.107493583E1,4.503285760E0,-1.229565371E0,1.330177534E0,4.853945396E0
1.108498483E1,5.203921359E0,-1.117131016E0,-1.143978506E-1,5.323707926E0
1.109503283E1,5.011807580E0,-9.868076885E-1,-1.084388070E0,5.221867685E0
1.110508183E1,-1.217021924E0,-1.024390667E0,-1.787655793E0,2.392954625E0
1.111512983E1,-3.086400450E0,-1.343310673E0,-1.186081967E0,3.568913242E0
1.112517883E1,-3.163100424E0,-1.242262015E0,-3.253063345E-1,3.413831193E0
1.113522783E1,-3.861649151E0,-1.122518640E0,3.067028332E-1,4.033168592E0
1.114527583E1,-4.435780240E0,-1.393438268E0,6.393737358E-1,4.693252104E0
1.115532483E1,-5.128336741E0,-2.028590899E0,5.034230483E-1,5.537910574E0
1.116537283E1,-3.703625810E0,-2.529256985E0,-8.673058033E-2,4.485700305E0
1.117542183E1,-1.387109972E0,-1.892579985E0,-3.412432131E-1,2.371155837E0
1.118546983E1,3.437453829E-2,-5.436419517E-1,4.935766295E-1,7.350823557E-1
1.119551883E1,9.386680005E-1,9.778345513E-1,1.468690179E0,1.998576710E0
1.120556783E1,1.458230241E0,1.759521915E0,1.868602015E0,2.951952963E0
1.121561583E1,9.784356451E-1,1.344114665E0,1.531840985E0,2.260645339E0
1.122566483E1,-4.093202984E-1,3.780295086E-1,7.397669202E-1,9.261233786E-1
1.123571283E1,-8.515935308E-1,-3.934439385E-1,3.183639354E-1,9.906388191E-1
1.124576183E1,-1.110564373E0,-9.156359643E-1,3.295107749E-1,1.476590599E0
1.125580983E1,-1.308846014E0,-1.181301869E0,3.729088095E-1,1.802113474E0
1.126585883E1,-1.406980419E0,-1.442245561E0,3.050796461E-1,2.037827213E0
1.127590783E1,-1.369489242E0,-1.708667511E0,2.068157253E-1,2.199504078E0
1.128595583E1,-1.229905972E0,-1.909960833E0,1.073776835E-1,2.274235927E0
1.129600483E1,-1.136984359E0,-2.073800400E0,1.065608275E-1,2.367432522E0
1.130605283E1,-9.595795441E-1,-2.213837122E0,1.551029500E-1,2.417834699E0
1.131610183E1,-7.796263660E-1,-2.408837671E0,1.967924282E-1,2.539496694E0
1.132614983E1,-5.606160167E-1,-2.628943825E0,2.280671382E-1,2.697712100E0
1.133619883E1,-3.697338079E-1,-2.874435666E0,3.029968679E-1,2.913913278E0
1.134624783E1,-1.967386338E-1,-3.119231688E0,2.805611014E-1,3.137997283E0
1.135629583E1,-2.375074313E-1,-3.258035232E0,2.454301527E-1,3.275887561E0
1.136634483E1,-1.956030497E-1,-3.361291798E0,1.388377503E-1,3.369839615E0
1.137639283E1,-1.616731374E-1,-3.386657605E0,-2.198582321E-2,3.390585688E0
1.138644183E1,-1.835403352E-1,-3.199923849E0,-1.575052786E-1,3.209050889E0
1.139648983E1,2.144681957E-2,-2.767167910E0,-2.269377485E-1,2.776540825E0
1.140653883E1,2.450527880E-1,-1.961114030E0,-2.465946257E-1,1.991689739E0
1.141658783E1,4.882351249E-1,-1.007871698E0,-3.417066050E-1,1.170872453E0
1.142663583E1,7.271872935E-1,8.274160981E-2,-5.303035757E-1,9.038082851E-1
1.143668483E1,8.990020245E-1,1.289961262E0,-7.158136551E-1,1.727597721E0
1.144673283E1,1.022748623E0,2.516939240E0,-8.754930747E-1,2.854380144E0
1.145678183E1,1.199739382E0,3.560630981E0,-9.659272814E-1,3.879495210E0
1.146682983E1,1.483729510E0,4.288537994E0,-9.993509893E-1,4.646688475E0
1.147687883E1,1.938380055E0,4.531054187E0,-1.076620044E0,5.044490064E0
1.148692783E1,2.778598340E0,4.088535737E0,-1.424795716E0,5.144587062E0
1.149697583E1,3.519031843E0,3.303573348E0,-2.269529951E0,5.333661798E0
1.150702483E1,3.636230510E0,2.340223519E0,-3.171898144E0,5.362812348E0
1.151707283E1,2.964271995E0,1.194244096E0,-3.728120673E0,4.910398270E0
1.152712183E1,2.590451605E0,2.418104339E-1,-3.661769686E0,4.491933774E0
1.153716983E1,2.370000465E0,2.695788610E-1,-3.148004082E0,3.949620826E0
1.154721883E1,1.595927053E0,1.457601519E0,-2.599350190E0,3.380563083E0
1.155726783E1,1.077279244E0,2.569999799E0,-2.108453339E0,3.494424848E0
1.156731583E1,8.104607076E-1,3.289028984E0,-1.605343409E0,3.748557813E0
1.157736483E1,5.592301170E-1,3.507220759E0,-6.928611410E-1,3.618479285E0
1.158741283E1,3.411520696E-1,3.367998555E0,4.070395920E-1,3.409615848E0
1.159746133E1,1.607373270E-1,3.487226205E0,1.252858340E0,3.708940161E0
1.160750933E1,-7.784332417E-2,3.946833728E0,2.000772039E0,4.425680152E0
1.161755833E1,-1.325578991E0,4.593717628E0,6.257432914E0,7.874951935E0
1.162760733E1,-2.882220064E0,5.135049344E0,1.033602838E1,1.189577265E1
1.163765533E1,-2.185903073E0,4.001232129E0,7.276052964E0,8.586557956E0
1.164770433E1,-8.258659282E-1,2.080334079E0,3.264148496E0,3.957841561E0
1.165775233E1,-6.174755477E-1,4.720375335E-1,3.579177180E-1,8.556871963E-1
1.166780133E1,-9.352205553E-1,-1.132968199E0,-1.193013988E0,1.892494862E0
1.167784933E1,-7.949650745E-1,-2.581657392E0,-1.186694756E0,2.950452305E0
1.168789833E1,-5.425393861E-1,-3.545738123E0,-1.018843414E0,3.728893901E0
1.169794733E1,-4.283663609E-1,-4.212784392E0,-9.023855889E-1,4.329590029E0
1.170799533E1,-4.433399838E-1,-4.582928345E0,-6.722720714E-1,4.653142196E0
1.171804433E1,-5.161610614E-1,-4.560590812E0,-4.142317403E-1,4.608361827E0
1.172809233E1,-7.700562282E-1,-3.997418575E0,-1.836340734E-1,4.075053783E0
1.173814133E1,-1.256069338E0,-2.801242560E0,-1.533900082E-1,3.073792211E0
1.174818933E1,-1.842149211E0,-1.263416072E0,-2.882911205E-1,2.252297862E0
1.175823833E1,-2.530252473E0,2.325613081E-1,-4.601337719E-1,2.582244262E0
1.176828733E1,-3.325952396E0,1.308325027E0,-5.960926455E-1,3.623396219E0
1.177833533E1,-4.462969792E0,1.804114535E0,-5.708326739E-1,4.847553875E0
1.178838433E1,-5.696500745E0,1.634679767E0,-4.810797044E-1,5.945900804E0
1.179843233E1,-6.638225232E0,9.348013830E-1,-7.088638008E-2,6.704096713E0
1.180848133E1,-6.616940782E0,-2.487516636E-1,2.977905802E-1,6.628307622E0
1.181852933E1,-6.164060481E0,-1.576395307E0,6.485649741E-1,6.395412442E0
1.182857833E1,-5.242725821E0,-2.577433949E0,1.251566690E0,5.974592787E0
1.183862733E1,-4.176675204E0,-3.311716180E0,1.778307264E0,5.619115281E0
1.184867533E1,-3.193966413E0,-3.952179253E0,2.108572038E0,5.501565080E0
1.185872433E1,-2.078786614E0,-4.329526391E0,1.887344972E0,5.160254219E0
1.186877233E1,-1.203968600E0,-4.101587892E0,1.208990189E0,4.442321566E0
1.187882133E1,-1.267658519E0,-3.546991181E0,2.071422923E-1,3.772401422E0
1.188887033E1,-1.527863855E0,-2.778263002E0,-8.671128452E-1,3.287095672E0
1.189891833E1,-1.536666838E0,-1.806564519E0,-1.721338427E0,2.930533452E0
1.190896733E1,-1.449182698E0,-7.636691684E-1,-2.330400782E0,2.848523985E0
1.191901533E1,-1.241026060E0,2.826584977E-1,-2.556969863E0,2.856245156E0
1.192906433E1,-8.482713622E-1,1.283781924E0,-2.398023831E0,2.849241763E0
1.193911233E1,-3.375074270E-1,1.991880909E0,-1.696362630E0,2.638019521E0
1.194916133E1,4.330246183E-1,2.639217968E0,1.087853422E0,2.887283649E0
1.195921033E1,1.365805788E0,3.229936438E0,4.356471530E0,5.592562833E0
1.196925833E1,2.013567647E0,2.724737590E0,3.438933467E0,4.827516234E0
1.197930733E1,2.845804775E0,1.206298715E0,1.813401814E0,3.583599803E0
1.198935533E1,3.322299348E0,2.305194604E-1,1.831114054E-1,3.335317372E0
1.199940433E1,3.463917742E0,-2.897079009E-1,-1.386626261E0,3.742377477E0
1.200945233E1,3.453669912E0,-4.317695135E-1,-2.822461520E0,4.481132648E0
1.201950133E1,1.905641056E0,-6.329757124E-1,-3.449561366E0,3.991440806E0
1.202955033E1,4.145148186E-1,-7.057881653E-1,-2.651231657E0,2.774705168E0
1.203959833E1,3.463794073E-1,-6.989346439E-1,-1.216832401E0,1.445395940E0
1.204964733E1,4.218698850E-1,-5.136194229E-1,-2.068090741E-1,6.960956146E-1
1.205969533E1,-4.715881750E-2,-2.120656478E-1,-1.777916817E-1,2.807234852E-1
1.206974433E1,-4.068035106E-1,-8.387070715E-2,-3.776249544E-1,5.613590633E-1
1.207979233E1,-5.605048831E-1,-2.194682229E-1,-6.949146831E-1,9.193685015E-1
1.208984133E1,-5.297820041E-1,-5.521081352E-1,-1.278403655E0,1.489902101E0
1.209989033E1,-5.428366439E-1,-1.116248086E0,-2.265550482E0,2.583292550E0
1.210993833E1,-5.619739960E-1,-1.838594397E0,-3.150364019E0,3.690668988E0
1.211998733E1,-3.819181994E-1,-2.582413437E0,-3.798357135E0,4.608930201E0
1.213003533E1,-1.345283523E-2,-3.200219133E0,-4.031825931E0,5.147543474E0
1.214008433E1,4.243917891E-1,-3.506626098E0,-3.898471992E0,5.260667149E0
1.215013233E1,1.156150363E0,-3.009841393E0,-3.730861555E0,4.931040136E0
1.216018133E1,1.360647229E0,-2.108263305E0,-3.271193222E0,4.122722418E0
1.217023033E1,1.351892777E0,-1.260312955E0,-2.694498714E0,3.267464789E0
1.218027833E1,1.188414860E0,-6.405566275E-1,-2.177472703E0,2.562036309E0
1.219032733E1,1.413852359E0,7.699321210E-2,-1.956512271E0,2.415128716E0
1.220037533E1,1.693008960E0,8.239814436E-1,-2.166249558E0,2.870167574E0
1.221042433E1,1.965957717E0,1.624348907E0,-2.551505640E0,3.607447872E0
1.222047233E1,2.118066162E0,2.387036912E0,-2.910608881E0,4.319235296E0
1.223052133E1,1.918992150E0,3.026876087E0,-2.988427135E0,4.666391160E0
1.224057033E1,1.520534078E0,3.153035612E0,-2.928466862E0,4.563942990E0
1.225061833E1,7.129461806E-1,2.125287473E0,-2.782278870E0,3.572984020E0
1.226066733E1,-3.436889572E-1,2.049104100E-1,-2.588198673E0,2.618946877E0
1.227071533E1,-4.724867459E-1,-1.147384509E0,-2.344226523E0,2.652382500E0
1.228076433E1,-5.180147749E-1,-1.879590395E0,-1.990103940E0,2.785985114E0
1.229081233E1,-5.316539901E-1,-2.089894862E0,-1.589605336E0,2.679022513E0
1.230086133E1,1.195376994E-1,-1.801407275E0,-1.082628935E0,2.105099247E0
1.231091033E1,5.321840402E-1,-1.295126107E0,-2.328203398E-1,1.419428335E0
1.232095833E1,6.378331406E-1,-3.437893832E-1,6.588607514E-1,9.793465908E-1
1.233100733E1,7.297155565E-1,9.480535126E-1,1.443185209E0,1.874586302E0
1.234105533E1,9.376328972E-1,2.522946085E0,1.747475481E0,3.209062628E0
1.235110433E1,7.330002299E-1,4.216572803E0,1.805996754E0,4.645255624E0
1.236115233E1,3.289118738E-1,5.466544957E0,1.894868585E0,5.794982635E0
1.237120133E1,-2.173199558E-1,5.942321784E0,2.295223932E0,6.373889633E0
1.238125033E1,-1.173108019E0,5.130692584E0,2.582390049E0,5.862501785E0
1.239129833E1,-1.933739413E0,3.718981767E0,2.716790639E0,4.995110097E0
1.240134733E1,-2.217608869E0,2.299912230E0,2.974444689E0,4.365169706E0
1.241139533E1,-2.398580339E0,9.053150439E-1,3.087319340E0,4.013019272E0
1.242144433E1,-2.662745410E0,-8.340936184E-2,2.925087172E0,3.956425811E0
1.243149233E1,-3.105611477E0,-5.908517861E-1,3.058008417E0,4.398334225E0
1.244154133E1,-3.724441313E0,-4.772567582E-1,3.460985656E0,5.106628909E0
1.245159033E1,-2.793379809E0,4.437703389E-1,3.565542058E0,4.551152935E0
1.246163833E1,-7.264731292E-1,1.859735590E0,3.233640941E0,3.800370167E0
1.247168733E1,-5.828326222E-1,2.740001162E0,2.501942886E0,3.755931101E0
1.248173533E1,-5.113276067E-1,3.308637621E0,1.822682076E0,3.811916681E0
1.249178433E1,1.535961226E-2,3.279351842E0,1.678019622E0,3.683766316E0
1.250183233E1,4.624774821E-1,2.669783118E0,2.077086243E0,3.414075949E0
1.251188133E1,6.576554941E-1,1.832871727E0,2.869234568E0,3.467626929E0
1.252193033E1,9.146194258E-1,1.057838495E0,3.712888092E0,3.967504122E0
1.253197833E1,1.192049051E0,3.533443183E-1,3.994219271E0,4.183254801E0
1.254202733E1,1.414235791E0,-2.807891428E-1,3.238144759E0,3.544641998E0
1.255207533E1,1.559924577E0,-7.070593500E-1,1.782599998E0,2.472035672E0
1.256212433E1,1.877181635E0,-1.167269136E0,5.293931642E-1,2.273012373E0
1.257217233E1,2.371330706E0,-1.592076370E0,-3.152722201E-1,2.873554081E0
1.258222133E1,2.206882005E0,-1.532976807E0,-7.186333287E-1,2.781506775E0
1.259227033E1,9.002432422E-1,-8.356144792E-1,-7.792289016E-1,1.454608928E0
1.260231821E1,-4.323123544E-1,-4.335190004E-1,-5.072067815E-1,7.950417691E-1
1.261236721E1,-1.805373149E0,-3.131634218E-1,3.315429747E-2,1.832632735E0
1.262241521E1,-3.024422010E0,-3.325527889E-1,6.961326581E-1,3.121269058E0
1.263246421E1,-4.051150979E0,-8.399478507E-1,1.611983508E0,4.440250835E0
1.264251321E1,-3.820663970E0,-1.133319032E0,1.446167581E0,4.239491229E0
1.265256121E1,-1.570417990E0,-1.083397844E0,1.466958818E0,2.406643249E0
1.266261021E1,-5.326058803E-1,-6.282920927E-1,1.477415687E0,1.691501430E0
1.267265821E1,1.183188564E-1,-2.676621437E-1,1.542342000E0,1.569860255E0
1.268270721E1,3.656039926E-1,-3.447816557E-1,1.492629557E0,1.574955131E0
1.269275521E1,3.026218786E-1,-5.964961034E-1,1.351936193E0,1.508349784E0
1.270280421E1,3.162177879E-1,-9.023072362E-1,1.139632271E0,1.487586552E0
1.271285321E1,3.441488773E-1,-1.078635287E0,8.497550932E-1,1.415618681E0
1.272290121E1,3.549189734E-1,-1.235660509E0,6.302374613E-1,1.431790358E0
1.273295021E1,2.730465157E-1,-1.355975742E0,4.090343696E-1,1.442405535E0
1.274299821E1,2.235220975E-1,-1.487696553E0,2.156675327E-1,1.519774868E0
1.275304721E1,2.805232224E-1,-1.631093085E0,1.167691889E-1,1.659154295E0
1.276309521E1,3.426021426E-1,-1.732649866E0,9.070990294E-2,1.768524829E0
1.277314421E1,3.990366175E-1,-1.804681131E0,5.226855308E-2,1.849009521E0
1.278319321E1,4.944406652E-1,-1.874992145E0,2.007875383E-2,1.939193201E0
1.279324121E1,6.296092511E-1,-1.977809585E0,-6.462956697E-2,2.076611553E0
1.280329021E1,7.140049651E-1,-2.059798073E0,-1.402372813E-1,2.184545190E0
1.281333821E1,6.220256317E-1,-2.192141613E0,-1.776787573E-1,2.285600683E0
1.282338721E1,5.226144871E-1,-2.249258385E0,-2.337751901E-1,2.320978248E0
1.283343521E1,5.472801623E-1,-2.187692467E0,-2.266483113E-1,2.266469361E0
1.284348421E1,5.831447905E-1,-2.058850824E0,-2.037915453E-1,2.149524496E0
1.285353321E1,6.426051264E-1,-1.782150639E0,-1.321084821E-1,1.899066850E0
1.286358121E1,7.476456048E-1,-1.355680457E0,-5.350056142E-3,1.548183476E0
1.287363021E1,8.204463632E-1,-6.460611963E-1,9.072890639E-2,1.048217076E0
1.288367821E1,8.777044916E-1,1.884522521E-1,2.084868595E-1,9.215998028E-1
1.289372721E1,9.396190502E-1,9.429810530E-1,3.089423168E-1,1.366580616E0
1.290377521E1,1.151542318E0,1.659170830E0,4.769445169E-1,2.075180384E0
1.291382421E1,1.468901117E0,2.474359816E0,5.554482110E-1,2.930639812E0
1.292387321E1,1.866414279E0,3.114536959E0,6.186377549E-1,3.683280522E0
1.293392121E1,2.361351702E0,3.445088246E0,5.732670160E-1,4.215833246E0
1.294397021E1,3.036542996E0,3.272452127E0,1.988730137E-1,4.468678414E0
1.295401821E1,3.895491959E0,2.786874197E0,-6.477254601E-1,4.833329459E0
1.296406721E1,4.708805450E0,2.456756188E0,-1.743768054E0,5.590100782E0
1.297411621E1,5.137756605E0,2.160740311E0,-2.881381281E0,6.274368471E0
1.298416421E1,5.572573103E0,1.653162816E0,-3.737194090E0,6.910364531E0
1.299421321E1,5.173860823E0,1.203228927E0,-3.734640903E0,6.493391898E0
1.300426121E1,4.513655212E0,1.698690407E0,-3.010090485E0,5.685004591E0
1.301431021E1,3.652551258E0,2.618898309E0,-1.802674366E0,4.842457425E0
1.302435821E1,2.582378062E0,3.425425814E0,-9.734108403E-1,4.398834746E0
1.303440721E1,1.894056991E0,4.027276797E0,-1.926666328E-1,4.454607808E0
1.304445621E1,1.390750741E0,4.127659457E0,9.122980812E-1,4.450173930E0
1.305450421E1,7.274057601E-1,3.570669481E0,2.893739664E0,4.653227797E0
1.306455321E1,-3.029769143E-1,2.767541547E0,5.932842278E0,6.553601966E0
1.307460121E1,-8.483685721E-1,2.505983897E0,6.118199015E0,6.665736547E0
1.308465021E1,-1.440047593E0,2.713193432E0,6.395002695E0,7.094449601E0
1.309469821E1,-1.821740090E0,2.429863089E0,4.392164104E0,5.339857405E0
1.310474721E1,-1.850763622E0,1.775405291E0,1.912424265E0,3.199180599E0
1.311479621E1,-2.116459932E0,1.057164896E0,7.455670658E-1,2.480498036E0
1.312484421E1,-2.258314261E0,1.330633324E-1,6.087689705E-1,2.342709715E0
1.313489321E1,-2.192177428E0,-9.270181543E-1,1.096782120E0,2.620674637E0
1.314494121E1,-1.593082383E0,-1.829422454E0,1.526146382E0,2.865976408E0
1.315499021E1,-9.995059405E-1,-2.389323758E0,1.434015313E0,2.960452679E0
1.316503821E1,-6.447149480E-1,-2.667139592E0,1.026859946E0,2.929800730E0
1.317508721E1,-5.080875184E-1,-2.854120685E0,6.589363267E-1,2.972937082E0
1.318513621E1,-5.380308539E-1,-2.624818030E0,2.546686073E-1,2.691468556E0
1.319518421E1,-6.995247010E-1,-1.811863850E0,4.998916224E-2,1.942854687E0
1.320523321E1,-9.424167967E-1,-6.770011532E-1,4.395644367E-4,1.160379323E0
1.321528121E1,-1.330315236E0,4.054816014E-1,-4.153511167E-2,1.391358732E0
1.322533021E1,-1.692154974E0,1.052116410E0,-4.444468617E-2,1.993066162E0
1.323537921E1,-2.070994029E0,1.062236186E0,-6.317558371E-2,2.328379939E0
1.324542721E1,-2.530879002E0,4.363081223E-1,-1.267173127E-1,2.571336341E0
1.325547621E1,-2.663919238E0,-4.721445376E-1,-9.556691090E-2,2.707123788E0
1.326552421E1,-2.629118657E0,-1.291196778E0,-5.829089284E-3,2.929076307E0
1.327557321E1,-2.709635401E0,-1.993669572E0,2.079158789E-1,3.370470499E0
1.328562121E1,-2.898228279E0,-2.373276660E0,5.309920853E-1,3.783400832E0
1.329567021E1,-3.142554185E0,-2.435067111E0,8.819828993E-1,4.072234335E0
1.330571921E1,-3.740601847E0,-2.668040648E0,1.050046495E0,4.713081871E0
1.331576721E1,-4.405692807E0,-2.690888643E0,1.380739869E0,5.343917419E0
1.332581621E1,-5.193871164E0,-2.774119080E0,1.971205155E0,6.209483401E0
1.333586421E1,-5.570095053E0,-2.850468514E0,1.710130484E0,6.486576595E0
1.334591321E1,-4.150972013E0,-2.404697843E0,5.820353544E-1,4.832380937E0
1.335596121E1,-2.347135367E0,-1.753101672E0,-7.398212993E-1,3.021546865E0
1.336601021E1,-1.849432065E0,-1.420724300E0,-1.943083556E0,3.035527994E0
1.337605921E1,-1.567926638E0,-1.037703608E0,-2.794652163E0,3.368279001E0
1.338610721E1,-1.236674708E0,-6.423528922E-1,-3.242331365E0,3.529120890E0
1.339615621E1,-9.359455369E-1,-3.274797446E-1,-3.254264363E0,3.401980831E0
1.340620421E1,-5.972908862E-1,-8.635168076E-3,-2.868070972E0,2.929618076E0
1.341625321E1,-2.396592432E-1,3.148994601E-1,-2.130544120E0,2.166983265E0
1.342630121E1,1.312064029E-1,5.809232140E-1,-8.486075040E-1,1.036736030E0
1.343635021E1,7.711072652E-1,8.267869377E-1,1.191662477E0,1.642632799E0
1.344639921E1,1.464253896E0,1.151372311E0,3.045804108E0,3.570240935E0
1.345644721E1,2.072259805E0,1.458396156E0,3.644070164E0,4.438516352E0
1.346649621E1,2.325282129E0,1.634164043E0,2.577232804E0,3.836607620E0
1.347654421E1,2.684723047E0,1.317206948E0,7.406996242E-1,3.080812866E0
1.348659321E1,3.163123813E0,8.544378358E-1,-7.176346242E-1,3.354163938E0
1.349664221E1,3.637551980E0,5.464480305E-1,-1.438984569E0,3.949818534E0
1.350669021E1,4.086875128E0,4.987990701E-1,-1.508566436E0,4.384874173E0
1.351673921E1,4.436619608E0,4.014417601E-1,-1.361525334E0,4.658164903E0
1.352678721E1,3.967907093E0,2.093876231E-1,-1.199889655E0,4.150646343E0
1.353683621E1,1.613991588E0,-1.871594328E-1,-9.801008590E-1,1.897523436E0
1.354688421E1,6.189621292E-1,-4.728356785E-1,-9.133795238E-1,1.200395706E0
1.355693321E1,2.200966524E-1,-5.983332986E-1,-7.284941462E-1,9.680645607E-1
1.356698221E1,1.611733831E-1,-6.155662125E-1,-6.573556781E-1,9.148852983E-1
1.357703021E1,1.378513250E-1,-5.276960099E-1,-8.762578905E-1,1.032130785E0
1.358707921E1,1.483473694E-1,-4.848786038E-1,-1.195977795E0,1.299029287E0
1.359712675E1,2.965963595E-1,-5.463217306E-1,-1.618240321E0,1.733533550E0
1.360717575E1,3.750585383E-1,-6.420856744E-1,-2.069567016E0,2.199102216E0
1.361722375E1,5.500050379E-1,-7.719599354E-1,-2.450002069E0,2.626963613E0
1.362727275E1,5.906310537E-1,-9.169147503E-1,-2.679319342E0,2.892806568E0
1.363732175E1,6.287271255E-1,-1.089636823E0,-2.662736639E0,2.944957149E0
1.364736975E1,6.265257950E-1,-1.228936211E0,-2.466713412E0,2.826215462E0
1.365741875E1,6.418984173E-1,-1.251372562E0,-2.243235168E0,2.647653846E0
1.366746675E1,5.145733961E-1,-1.090256043E0,-2.091483550E0,2.414072795E0
1.367751575E1,4.859865050E-1,-8.473036480E-1,-2.197954915E0,2.405226011E0
1.368756475E1,5.282412627E-1,-7.481927580E-1,-2.522032165E0,2.683184205E0
1.369761275E1,5.589559557E-1,-5.759823167E-1,-2.854475611E0,2.965167517E0
1.370766175E1,4.351905732E-1,-3.351781887E-1,-3.142329944E0,3.189980052E0
1.371770975E1,3.122506714E-1,-3.605685532E-2,-3.467459108E0,3.481676787E0
1.372775875E1,2.963155469E-1,1.896228647E-1,-3.763476740E0,3.779883186E0
1.373780675E1,7.003509857E-1,4.147184479E-1,-4.193333629E0,4.271595699E0
1.374785575E1,1.750018435E0,6.155925250E-1,-4.431731628E0,4.804348436E0
1.375790475E1,2.407705358E0,7.195343846E-1,-4.108840193E0,4.816361963E0
1.376795275E1,2.781683038E0,8.778992039E-1,-3.174976704E0,4.311489836E0
1.377800175E1,3.155970329E0,1.285518547E0,-1.885147589E0,3.894417554E0
1.378804975E1,3.439870191E0,1.838848166E0,-6.399140185E-1,3.952664855E0
1.379809875E1,3.439825167E0,2.336062056E0,5.306231260E-1,4.191794844E0
1.380814675E1,3.373686141E0,2.984527627E0,1.114050118E0,4.640072306E0
1.381819575E1,2.732305934E0,3.508026506E0,1.142005656E0,4.590852056E0
1.382824475E1,1.675266899E0,3.788136787E0,8.918910062E-1,4.236976406E0
1.383829275E1,3.841018420E-1,3.965415010E0,7.834894753E-1,4.060284003E0
1.384834175E1,-5.884134972E-1,4.012058834E0,8.867150509E-1,4.150796323E0
1.385838975E1,-8.628151417E-1,3.555560861E0,1.147966307E0,3.834617275E0
1.386843875E1,-1.015925361E0,2.636811839E0,1.299053682E0,3.110051684E0
1.387848775E1,-1.377181839E0,1.471146594E0,1.319958647E0,2.408981725E0
1.388853575E1,-1.689998959E0,1.439859313E-1,1.424637695E0,2.215044242E0
1.389858475E1,-1.977116982E0,-1.265451488E0,1.884200778E0,3.010078338E0
1.390863275E1,-1.948257026E0,-2.463919027E0,2.243963585E0,3.860307628E0
1.391868175E1,-2.453891053E0,-3.208487681E0,2.493577859E0,4.746989050E0
1.392872975E1,-3.603316240E0,-3.451548834E0,3.177307988E0,5.915434332E0
1.393877875E1,-5.162380984E0,-3.373051718E0,3.856490153E0,7.273250417E0
1.394882775E1,-6.439959598E0,-2.792761173E0,3.912350943E0,8.036111279E0
1.395887575E1,-6.481929742E0,-1.202520245E0,3.181884019E0,7.320235927E0
1.396892475E1,-3.446586887E0,1.954063457E-1,2.795646189E0,4.442159658E0
1.397897275E1,-2.234770885E0,1.443626674E0,2.764120634E0,3.836485600E0
1.398902175E1,-2.172034354E0,2.957660841E0,2.476460720E0,4.427002212E0
1.399907075E1,-2.027818189E0,4.453255228E0,2.254598647E0,5.387647334E0
1.400911875E1,-1.365303074E0,5.352772758E0,2.654144448E0,6.128679420E0
1.401916775E1,-1.734781176E-1,5.192101212E0,3.395783354E0,6.206396236E0
1.402921575E1,1.042861144E0,4.103332116E0,3.564591593E0,5.534546688E0
1.403926475E1,1.839248115E0,2.335061597E0,2.734128218E0,4.038663567E0
1.404931275E1,2.879356391E0,4.001998115E-1,1.565337637E0,3.301686695E0
1.405936175E1,4.241528719E0,-1.132335531E0,3.652591896E-1,4.405242775E0
1.406941075E1,5.484302951E0,-2.282865257E0,-4.815348735E-1,5.959943663E0
1.407945875E1,6.363550522E0,-2.857454183E0,-5.915785950E-1,7.000698886E0
1.408950775E1,6.753569747E0,-2.702426954E0,8.417183876E-2,7.274675296E0
1.409955575E1,4.746179390E0,-1.810303228E0,8.095227411E-1,5.143806339E0
1.410960475E1,2.353402522E-1,-7.558748299E-1,7.263478526E-1,1.074389592E0
1.411965275E1,-3.011333895E0,-2.870146734E-1,9.988400888E-1,3.185622510E0
1.412970175E1,-3.959537681E0,-2.507052183E-1,1.322558320E0,4.182099026E0
1.413975075E1,-4.511492034E0,-1.998169005E-1,1.093374071E0,4.646391506E0
1.414979875E1,-3.274801831E0,-4.608295906E-1,8.707512751E-1,3.419780509E0
1.415984775E1,-1.810676866E0,-5.054578793E-1,8.470308754E-1,2.061916507E0
1.416989575E1,-8.942389557E-1,-2.210738683E-1,9.574394631E-1,1.328618565E0
1.417994475E1,-3.697050469E-1,-2.152862942E-1,1.008655517E0,1.095634959E0
1.418999375E1,-3.337890730E-1,-4.090092266E-1,9.116069403E-1,1.053437661E0
1.420004175E1,-4.089691366E-1,-7.698467517E-1,7.198024794E-1,1.130502271E0
1.421009075E1,-4.004576006E-1,-1.049718466E0,5.920320466E-1,1.269951610E0
1.422013875E1,-2.554963537E-1,-1.167397774E0,5.687063339E-1,1.323451112E0
1.423018775E1,-1.951811183E-1,-1.264417115E0,5.030567202E-1,1.374740839E0
1.424023575E1,-1.782878179E-1,-1.364547175E0,2.894968164E-1,1.406265958E0
1.425028475E1,-7.109854264E-2,-1.447917361E0,7.508088022E-2,1.451604913E0
1.426033375E1,5.677798061E-2,-1.539495283E0,-1.136418056E-1,1.544727783E0
1.427038175E1,1.801367075E-1,-1.563854783E0,-1.887688789E-1,1.585473023E0
1.428043075E1,2.775664134E-1,-1.618191789E0,-2.029074463E-1,1.654315330E0
1.429047875E1,3.474739330E-1,-1.673723965E0,-2.221903941E-1,1.723791930E0
1.430052775E1,4.619075979E-1,-1.778952212E0,-2.617842302E-1,1.856491472E0
1.431057675E1,7.129241804E-1,-2.003116334E0,-3.278194678E-1,2.151325531E0
1.432062475E1,9.848879745E-1,-2.250419058E0,-3.714329723E-1,2.484422007E0
1.433067375E1,1.235625279E0,-2.398249533E0,-4.171625841E-1,2.729907558E0
1.434072175E1,1.416107484E0,-2.421036133E0,-4.261287045E-1,2.836963524E0
1.435077075E1,1.533966156E0,-2.158531233E0,-4.347103706E-1,2.683520516E0
1.436081875E1,1.589476697E0,-1.523000872E0,-4.578787932E-1,2.248470773E0
1.437086775E1,1.564146559E0,-7.169838291E-1,-3.863638374E-1,1.763490086E0
1.438091675E1,1.635854765E0,1.147317266E-1,-2.680828509E-1,1.661641537E0
1.439096475E1,1.744408032E0,1.174563537E0,-1.653803086E-1,2.109480868E0
1.440101375E1,1.935642389E0,2.257053893E0,-6.292510360E-2,2.974048302E0
1.441106175E1,2.299152384E0,3.058389655E0,-5.425894529E-2,3.826590258E0
1.442111075E1,2.911536542E0,3.467819297E0,1.167346904E-1,4.529507997E0
1.443115975E1,3.598720621E0,3.549755160E0,6.524519107E-1,5.096787744E0
1.444120775E1,2.587523904E0,3.297536098E0,6.132830210E-1,4.236170480E0
1.445125675E1,5.005179323E-1,2.651286036E0,-1.770067661E-1,2.703917018E0
1.446130475E1,-2.259781290E-1,1.894414841E0,-1.373044641E0,2.350558506E0
1.447135375E1,3.118498448E-1,8.641091305E-1,-2.138396346E0,2.327374883E0
1.448140175E1,1.814266617E0,-1.852982640E-2,-2.089970583E0,2.767649499E0
1.449145075E1,1.765898011E0,4.077965140E-2,-1.855588744E0,2.561887654E0
1.450149975E1,9.327985655E-1,1.172504733E0,-1.540847744E0,2.149207361E0
1.451154775E1,4.774545768E-1,2.669101333E0,-1.004829099E0,2.891668432E0
1.452159675E1,1.041572747E-1,3.943707222E0,-4.110557520E-1,3.966439489E0
1.453164475E1,-2.481969455E-2,4.738535033E0,3.978644335E-1,4.755273534E0
1.454169375E1,3.503264241E-1,4.681543391E0,2.327863236E0,5.240088203E0
1.455174275E1,5.146372039E-1,3.782606490E0,3.220596095E0,4.994517246E0
1.456179075E1,-2.763691412E-1,2.953823898E0,2.596857229E0,3.942730398E0
1.457183975E1,-7.598844118E-1,2.718358862E0,1.607152830E0,3.248051638E0
1.458188775E1,-8.934479736E-1,2.421726104E0,1.005515563E0,2.770210850E0
1.459193675E1,-9.713437765E-1,1.780140367E0,5.883792910E-1,2.111539402E0
1.460198546E1,-7.944611907E-1,7.563326669E-1,4.969550045E-1,1.204230860E0
1.461203446E1,-4.412336706E-1,-3.678050673E-1,8.649892826E-1,1.038351664E0
1.462208346E1,-2.370848969E-1,-1.549514487E0,1.127599140E0,1.930980117E0
1.463213146E1,-1.473487381E-1,-2.632047527E0,1.195312382E0,2.894504712E0
1.464218046E1,-2.063495195E-1,-3.442130724E0,1.184624695E0,3.646118445E0
1.465222846E1,-2.782968585E-1,-3.966037738E0,1.042676665E0,4.110240761E0
1.466227746E1,-4.139409875E-1,-4.187913845E0,8.119247773E-1,4.285929462E0
1.467232646E1,-5.546636608E-1,-3.992246128E0,5.002528341E-1,4.061518660E0
1.468237446E1,-6.411359404E-1,-3.263208849E0,2.201042537E-1,3.332871610E0
1.469242346E1,-9.310139953E-1,-1.932096637E0,1.881283164E-2,2.144793323E0
1.470247146E1,-1.229058418E0,-2.957258552E-1,-2.224983231E-1,1.283566858E0
1.471252046E1,-1.546328631E0,1.240371026E0,-4.477668377E-1,2.032276472E0
1.472256846E1,-1.902453301E0,2.248585956E0,-6.295042205E-1,3.011933420E0
1.473261746E1,-2.081253992E0,2.463151288E0,-7.524770129E-1,3.311337208E0
1.474266646E1,-2.144257303E0,1.846421480E0,-8.787803793E-1,2.962999598E0
1.475271446E1,-2.140622966E0,7.027540451E-1,-9.388558424E-1,2.440815483E0
1.476276346E1,-2.100740131E0,-4.053149557E-1,-9.363052869E-1,2.335392237E0
1.477281146E1,-2.001859621E0,-1.244304448E0,-8.257648444E-1,2.497523389E0
1.478286046E1,-2.223002340E0,-1.676067529E0,-6.827431190E-1,2.866544947E0
1.479290946E1,-2.831521196E0,-1.840844990E0,-8.803427553E-1,3.490161304E0
1.480295746E1,-3.453317032E0,-1.822661904E0,-1.097530564E0,4.056114924E0
1.481300646E1,-4.222061292E0,-1.685181000E0,-1.036830618E0,4.662687453E0
1.482305446E1,-4.890135208E0,-1.583956926E0,-6.846539891E-1,5.185662251E0
1.483310346E1,-4.553782899E0,-1.469915755E0,-1.059281588E-2,4.785154462E0
1.484315146E1,-2.434195876E0,-1.252991071E0,6.571451783E-1,2.815516999E0
1.485320046E1,-6.961714690E-1,-1.489911479E0,2.474845902E-1,1.663051277E0
1.486324946E1,-2.294914468E-1,-1.746937537E0,-4.648384416E-1,1.822232658E0
1.487329746E1,-3.702953234E-1,-1.592161739E0,-9.887336882E-1,1.910416692E0
1.488334646E1,-8.297093030E-1,-1.101690273E0,-1.303872957E0,1.897952495E0
1.489339446E1,-9.242120755E-1,-4.656745934E-1,-1.165873917E0,1.558936425E0
1.490344346E1,-7.235515679E-1,2.052273291E-1,-3.809052423E-1,8.430503732E-1
1.491349246E1,-4.448326318E-1,6.543075246E-1,8.735365232E-1,1.178584093E0
1.492354046E1,4.041960910E-2,1.107503575E0,2.582830929E0,2.810553952E0
1.493358946E1,7.019773887E-1,1.984160246E0,5.381058079E0,5.778014381E0
1.494363746E1,1.058374538E0,1.903380377E0,4.041811806E0,4.591215111E0
1.495368646E1,1.513982419E0,4.978892434E-1,1.531006880E0,2.209981568E0
1.496373546E1,1.629585673E0,-4.809650624E-1,2.025510585E-1,1.711111858E0
1.497378346E1,1.390528547E0,-9.576809531E-1,-1.029071363E0,1.977298743E0
1.498383246E1,3.420333181E-1,-1.090661840E0,-1.873189448E0,2.194394848E0
1.499388046E1,-1.835405910E-1,-9.623996562E-1,-2.347197493E0,2.543469347E0
1.500392946E1,4.484273538E-2,-8.410705161E-1,-2.237400817E0,2.390684609E0
1.501397746E1,3.213854840E-1,-6.634929156E-1,-1.814631922E0,1.958673146E0
1.502402646E1,3.452922638E-1,-3.547909194E-1,-1.466879296E0,1.548172540E0
1.503407546E1,3.117716382E-1,8.617509484E-2,-1.212409641E0,1.254816655E0
1.504412346E1,2.275153072E-1,3.933293331E-1,-1.023006631E0,1.119380966E0
1.505417246E1,4.772862867E-2,4.863591188E-1,-6.630613911E-1,8.236951031E-1
1.506422046E1,2.014579216E-1,5.277117974E-1,-8.983334684E-1,1.061163539E0
1.507426946E1,4.852575034E-1,3.808659929E-1,-1.334533417E0,1.470208554E0
1.508431846E1,5.298916394E-1,8.501851559E-3,-1.552552700E0,1.640511298E0
1.509436646E1,7.743352206E-1,-7.797028184E-2,-2.125189240E0,2.263206509E0
1.510441546E1,8.811325680E-1,-2.592690504E-1,-2.281098229E0,2.459069778E0
1.511446346E1,1.107412797E0,-5.676816094E-1,-2.303381968E0,2.618051566E0
1.512451246E1,1.126401630E0,-9.391645753E-1,-2.217201025E0,2.658343680E0
1.513456046E1,9.305033872E-1,-1.313604478E0,-2.304150876E0,2.810783617E0
1.514460946E1,8.810955843E-1,-1.749399800E0,-2.458071812E0,3.143063175E0
1.515465846E1,8.013550580E-1,-2.128570100E0,-2.633315204E0,3.479558817E0
1.516470646E1,7.579517609E-1,-2.284797762E0,-2.865478317E0,3.742426708E0
1.517475546E1,9.458399029E-1,-2.063911005E0,-3.284306188E0,3.992619302E0
1.518480346E1,7.269831526E-1,-1.303677660E0,-3.606156233E0,3.902876212E0
1.519485246E1,4.006102860E-2,-2.883419913E-1,-3.967014808E0,3.977681797E0
1.520490146E1,-5.739407614E-1,4.677532786E-1,-4.198036544E0,4.262829102E0
1.521494946E1,-1.087041244E0,9.599777395E-1,-4.088227589E0,4.337835951E0
1.522499846E1,-1.397179609E0,1.325180796E0,-4.045042393E0,4.480020419E0
1.523504646E1,-1.535618286E0,1.431997731E0,-3.662874810E0,4.222012896E0
1.524509546E1,-7.690405668E-1,1.648873299E0,-3.237969927E0,3.714115749E0
1.525514446E1,1.841229737E-1,1.543625171E0,-2.112699003E0,2.623009153E0
1.526519246E1,1.146080580E0,1.816434619E0,-1.589058622E0,2.671711572E0
1.527524146E1,1.799108003E0,1.947308169E0,-1.110572194E0,2.874398948E0
1.528528946E1,2.266691859E0,1.869190537E0,-7.337220687E-1,3.028219497E0
1.529533846E1,2.689283875E0,2.181911325E0,-8.919746214E-1,3.576115702E0
1.530538646E1,2.470146312E0,2.319967010E0,-7.182959443E-1,3.464075460E0
1.531543546E1,1.684246176E0,2.384881629E0,-7.563806140E-1,3.016033355E0
1.532548446E1,1.024273284E0,2.402354279E0,-7.946652585E-1,2.729823202E0
1.533553246E1,4.959279411E-1,2.321323564E0,-4.655833769E-1,2.418936852E0
1.534558146E1,-2.670642659E-1,2.034429928E0,6.109756092E-2,2.052793552E0
1.535562946E1,-1.282487497E0,1.582330815E0,4.515991759E-1,2.086261442E0
1.536567846E1,-1.768562002E0,9.500748950E-1,4.917169225E-1,2.066939620E0
1.537572746E1,-1.586474152E0,-2.406129241E-3,5.002094916E-1,1.663464926E0
1.538577546E1,-1.550528686E0,-9.783420897E-1,7.675359321E-1,1.987562290E0
1.539582446E1,-1.902608398E0,-1.749700347E0,1.164953638E0,2.835222566E0
1.540587246E1,-1.850530464E0,-2.595304794E0,1.651230311E0,3.589795469E0
1.541592146E1,-1.747630140E0,-2.982412105E0,2.121017836E0,4.055577607E0
1.542596946E1,-1.983296758E0,-2.983355260E0,2.500719649E0,4.368921309E0
1.543601846E1,-2.823332171E0,-2.353112537E0,2.848745924E0,4.650128654E0
1.544606746E1,-3.869495530E0,-8.900526416E-1,3.160907718E0,5.075088863E0
1.545611546E1,-4.508678647E0,1.196471885E0,3.200855895E0,5.657314431E0
1.546616446E1,-4.077602028E0,3.149526113E0,2.822291951E0,5.874664662E0
1.547621246E1,-3.081713614E0,4.365583246E0,2.387521062E0,5.852822627E0
1.548626146E1,-2.420804583E0,5.204028947E0,2.453903332E0,6.242103305E0
1.549631046E1,-1.615766364E0,5.602033129E0,3.147456783E0,6.625704515E0
1.550635846E1,-3.355107491E-1,5.026549580E0,4.407274479E0,6.693492099E0
1.551640746E1,7.672087803E-1,3.734526005E0,5.055938855E0,6.332283278E0
1.552645546E1,1.675096892E0,2.309358407E0,4.543638272E0,5.365047492E0
1.553650446E1,2.286626917E0,1.230538348E0,2.956637578E0,3.935046766E0
1.554655346E1,2.457442359E0,1.822237980E-1,1.163884475E0,2.725225776E0
1.555660146E1,2.825361739E0,-8.018006158E-1,-2.147141442E-1,2.944767453E0
1.556665046E1,3.309407115E0,-1.323157659E0,-8.576076114E-1,3.665844031E0
1.557669846E1,3.750539775E0,-1.241018897E0,-1.024001243E0,4.081085034E0
1.558674746E1,3.775813780E0,-9.693847400E-1,-9.354533476E-1,4.008933704E0
1.559679646E1,5.220099946E-1,-9.156342101E-1,-8.692283678E-1,1.366176561E0
1.560684413E1,-1.202554085E0,-8.832839048E-1,-4.617321083E-1,1.561897348E0
1.561689312E1,-2.636429138E0,-9.550304103E-1,4.420962811E-1,2.838712879E0
1.562694112E1,-3.713437437E0,-1.336254253E0,1.281242771E0,4.149310312E0
1.563699013E1,-4.638466954E0,-1.760408353E0,1.639387068E0,5.225131884E0
1.564703812E1,-4.137861679E0,-1.938133888E0,1.686256595E0,4.870495205E0
1.565708713E1,-2.299862675E0,-1.517113895E0,1.687233957E0,3.230752439E0
1.566713613E1,-1.405462190E0,-9.178707701E-1,1.676372462E0,2.372348066E0
1.567718412E1,-6.832158664E-1,-6.863186914E-1,1.482893358E0,1.771098523E0
1.568723313E1,-2.555346530E-1,-8.157643515E-1,1.098780991E0,1.392152686E0
1.569728113E1,-1.609071338E-1,-1.080752563E0,5.904597303E-1,1.241998350E0
1.570733012E1,-2.774185154E-1,-1.180296732E0,1.938325676E-1,1.227856862E0
1.571737913E1,-3.927632495E-1,-1.227348692E0,4.007506192E-2,1.289284217E0
1.572742712E1,-3.101936940E-1,-1.352663879E0,6.167438418E-2,1.389144854E0
1.573747613E1,-2.924170438E-1,-1.465936725E0,1.111918223E-1,1.498946907E0
1.574752413E1,-2.975677282E-1,-1.522260030E0,1.680711973E-1,1.560150659E0
1.575757312E1,-1.989125190E-1,-1.516044440E0,1.644912395E-1,1.537860300E0
1.576762213E1,-1.779484967E-1,-1.524845084E0,1.049373481E-1,1.538775502E0
1.577767013E1,-1.486616573E-1,-1.534653203E0,7.507093996E-2,1.543663302E0
1.578771912E1,-1.334862780E-1,-1.511901687E0,8.815408498E-2,1.520340896E0
1.579776713E1,-3.203841118E-2,-1.462102121E0,1.304054806E-1,1.468255653E0
1.580781612E1,1.088517849E-1,-1.444250572E0,1.467800233E-1,1.455765366E0
1.581786413E1,2.480224427E-1,-1.454965594E0,8.880371064E-2,1.478623046E0
1.582791313E1,3.997635726E-1,-1.429508572E0,-3.097240895E-2,1.484676719E0
1.583796212E1,6.800794199E-1,-1.282459869E0,-1.902786300E-1,1.464041423E0
1.584801013E1,8.605912994E-1,-1.086679301E0,-3.744735244E-1,1.435868973E0
1.585805913E1,9.694115641E-1,-7.430717665E-1,-5.043740979E-1,1.321479346E0
1.586810712E1,1.112366120E0,-3.093644857E-1,-5.072357252E-1,1.261091928E0
1.587815613E1,1.237998664E0,2.463993287E-1,-5.069617832E-1,1.360280696E0
1.588820512E1,1.364298961E0,8.109257805E-1,-4.898329496E-1,1.660978204E0
1.589825312E1,1.503944796E0,1.458987894E0,-4.605404457E-1,2.145365500E0
1.590830213E1,1.682226109E0,2.037785060E0,-4.024965978E-1,2.672911549E0
1.591835012E1,1.919362279E0,2.336226947E0,-2.159828438E-1,3.031263185E0
1.592839913E1,2.558687775E0,2.536694643E0,5.512385081E-1,3.644937137E0
1.593844813E1,3.561974671E0,2.530249842E0,1.591175021E0,4.649910297E0
1.594849612E1,4.427631560E0,2.289697144E0,1.023950956E0,5.088723789E0
1.595854513E1,4.858433359E0,1.682833343E0,-4.199017122E-1,5.158742115E0
1.596859312E1,1.901573733E0,6.179004210E-1,-1.623230042E0,2.575394992E0
1.597864212E1,-6.258663753E-1,5.399669766E-2,-1.938582661E0,2.037824109E0
1.598869113E1,2.198062467E-1,-1.849749130E-1,-1.580743004E0,1.606635910E0
1.599873912E1,1.823945514E0,-2.952446294E-1,-9.195781571E-1,2.063872722E0
1.600878813E1,1.395182492E0,2.830835903E-1,-6.819715789E-1,1.578529613E0
1.601883613E1,5.215705033E-1,1.464475506E0,-6.478840658E-1,1.684184687E0
1.602888512E1,-1.596941838E-1,2.371605526E0,-5.518973431E-1,2.440206073E0
1.603893313E1,-5.855659397E-1,2.778885146E0,-1.873222777E-1,2.846081474E0
1.604898213E1,-6.112389440E-1,2.893147341E0,6.855759488E-1,3.035445431E0
1.605903112E1,-9.963729293E-1,2.827181978E0,1.779413265E0,3.485975978E0
1.606907913E1,-1.247720099E0,2.736452487E0,1.893660550E0,3.554001679E0
1.607912812E1,-9.738536207E-1,2.928228296E0,1.590934701E0,3.471884942E0
1.608917613E1,-6.986718115E-1,3.291990598E0,1.429088742E0,3.656178200E0
1.609922513E1,-7.037815471E-1,3.464579355E0,8.512828244E-1,3.636385708E0
1.610927412E1,-5.978583585E-1,3.089852938E0,-8.231710196E-2,3.148237904E0
1.611932213E1,-2.265315863E-1,2.104261470E0,-2.851806942E-1,2.135546985E0
1.612937113E1,9.904812383E-2,8.973055279E-1,4.051193663E-1,9.894894857E-1
1.613941912E1,1.399461265E-1,-1.241141689E-1,1.014298958E0,1.031402744E0
1.614946813E1,4.818292078E-2,-9.508081359E-1,1.352956824E0,1.654342732E0
1.615951712E1,-2.931405271E-1,-1.619596875E0,1.556447092E0,2.265293128E0
1.616956512E1,-6.905272248E-1,-2.058591793E0,1.477109585E0,2.626115143E0
1.617961413E1,-8.706675868E-1,-2.293851006E0,1.106466133E0,2.691483195E0
1.618966212E1,-8.395148644E-1,-2.353157560E0,6.130220890E-1,2.572534119E0
1.619971113E1,-8.423341725E-1,-2.073046694E0,1.018878789E-1,2.239962186E0
1.620976013E1,-1.047998435E0,-1.504756390E0,-3.622268236E-1,1.869171149E0
1.621980812E1,-1.357659009E0,-8.480661249E-1,-6.602430332E-1,1.731581647E0
1.622985713E1,-1.726517745E0,-1.760099620E-1,-8.735916332E-1,1.942937305E0
1.623990512E1,-2.232723337E0,3.173465198E-1,-1.062499895E0,2.492923653E0
1.624995412E1,-2.714822466E0,4.843587863E-1,-1.296197902E0,3.047128724E0
1.626000313E1,-3.069398793E0,1.790043211E-1,-1.436925180E0,3.393818715E0
1.627005112E1,-3.266470718E0,-4.502537316E-1,-1.457624323E0,3.605166854E0
1.628010013E1,-3.261411415E0,-1.220116271E0,-1.361948088E0,3.739036069E0
1.629014813E1,-3.153058123E0,-1.933352035E0,-1.266611575E0,3.909466780E0
1.630019712E1,-2.999653497E0,-2.376216055E0,-1.187532077E0,4.006813731E0
1.631024613E1,-3.086850685E0,-2.483975562E0,-9.927583998E-1,4.084648208E0
1.632029413E1,-3.284569312E0,-2.117697787E0,-8.075631199E-1,3.990638756E0
1.633034312E1,-3.622253618E0,-1.576622179E0,-7.553737235E-1,4.022070142E0
1.634039113E1,-4.170987909E0,-1.334113587E0,-1.154818659E0,4.528863582E0
1.635044012E1,-3.784648046E0,-9.795863771E-1,-1.121529803E0,4.067060289E0
1.636048813E1,-2.743551006E0,-7.176837409E-1,-6.822671556E-1,2.916784282E0
1.637053713E1,-1.673054313E0,-9.009395725E-1,-4.419179410E-1,1.950921401E0
1.638058612E1,-7.314172424E-1,-1.272028436E0,-4.190740389E-1,1.525991669E0
1.639063413E1,-2.311983222E-1,-1.563114526E0,-7.710530323E-1,1.758210017E0
1.640068313E1,7.741552725E-2,-1.519805369E0,-1.205554950E0,1.941433558E0
1.641073112E1,2.103410116E-1,-1.234340792E0,-1.395927427E0,1.875221031E0
1.642078013E1,2.776503575E-1,-7.291612405E-1,-1.575957935E0,1.758524736E0
1.643082912E1,4.123159732E-1,-2.995703995E-2,-1.586595190E0,1.639568901E0
1.644087713E1,5.140971404E-1,6.978178257E-1,-1.158281965E0,1.446672976E0
1.645092613E1,8.163185214E-1,1.344860770E0,-3.640815238E-1,1.614800846E0
1.646097412E1,1.181222200E0,1.961118123E0,1.144704804E0,2.559613109E0
