"Time (s)","Linear Acceleration x (m/s^2)","Linear Acceleration y (m/s^2)","Linear Acceleration z (m/s^2)","Absolute acceleration (m/s^2)"
5.419208333E-3,-6.322958567E0,-1.371811873E1,-1.453127815E0,1.517491901E1
1.544920834E-2,-5.013216759E0,-1.359125169E1,-1.090495194E0,1.452734128E1
2.547920834E-2,-3.395722835E0,-1.090826848E1,-6.597366643E-1,1.144362300E1
3.550820833E-2,-2.081508493E0,-7.576704513E0,-3.244631660E-1,7.864121390E0
4.553820834E-2,-7.673714791E-1,-4.259194912E0,-9.908709917E-3,4.327782165E0
5.556820834E-2,4.515589763E-1,-1.034097630E0,1.753556585E-1,1.141933897E0
6.559720833E-2,1.687471208E0,1.935806111E0,1.571801551E-1,2.572860272E0
7.562720834E-2,3.117329589E0,4.714310603E0,4.026147115E-1,5.666089201E0
8.565720834E-2,4.535051636E0,6.831773917E0,7.565267944E-1,8.234813962E0
9.568720833E-2,5.898162442E0,8.713579237E0,1.387341961E0,1.061317582E1
1.057162083E-1,7.068223039E0,1.018464046E1,1.858493056E0,1.253557636E1
1.157462083E-1,7.709737440E0,1.123849817E1,1.325238683E0,1.369306942E1
1.257762083E-1,8.100661229E0,1.192621026E1,4.870718944E-1,1.442540961E1
1.358062083E-1,8.319843523E0,1.223225820E1,1.956647927E-1,1.479480387E1
1.458352083E-1,7.999802606E0,1.242877727E1,3.031991816E-1,1.478388568E1
1.558652083E-1,7.424580427E0,1.261040348E1,-3.123231312E-2,1.463378441E1
1.658952083E-1,7.183806705E0,1.293290549E1,-4.339382458E-1,1.480052113E1
1.759252083E-1,7.528728694E0,1.350586363E1,-6.116047239E-1,1.547462983E1
1.859542083E-1,7.477778395E0,1.371945189E1,-3.181165616E-1,1.562823497E1
1.959842083E-1,7.162676622E0,1.354226138E1,6.169981956E-3,1.531981781E1
2.060142083E-1,6.921901145E0,1.330160869E1,4.638537705E-1,1.500202218E1
2.160442083E-1,6.586632909E0,1.285748811E1,9.734889738E-1,1.447917174E1
2.260732083E-1,6.296936703E0,1.229511811E1,1.224018703E0,1.386793290E1
2.361032083E-1,5.897990534E0,1.152315349E1,1.320731649E0,1.301205944E1
2.461332083E-1,5.538314851E0,1.059123245E1,1.148896015E0,1.200696041E1
2.561632083E-1,5.128950114E0,9.537987528E0,9.254306352E-1,1.086902743E1
2.661922083E-1,4.587359950E0,8.566295477E0,6.744166839E-1,9.740643067E0
2.762222083E-1,4.101579705E0,7.724306363E0,3.191466583E-1,8.751555259E0
2.862522083E-1,3.695392345E0,7.057850078E0,-8.334153414E-2,7.967190102E0
2.962822083E-1,3.329483822E0,6.765870534E0,-3.033009962E-1,7.546817747E0
3.063112083E-1,3.002601371E0,7.002717851E0,-2.673113839E-1,7.623983714E0
3.163412083E-1,2.558627549E0,7.817561851E0,1.519340515E-2,8.225635481E0
3.263712083E-1,2.078040509E0,8.998857288E0,3.019010997E-1,9.240607616E0
3.364002083E-1,1.855299307E0,9.852511597E0,6.406734987E-1,1.004612278E1
3.464302083E-1,1.682692278E0,1.030316118E1,1.013930583E0,1.048878634E1
3.564602083E-1,1.583871849E0,1.035510785E1,1.218653151E0,1.054618529E1
3.664902083E-1,1.426612884E0,1.030486156E1,1.584242270E0,1.052308033E1
3.765192083E-1,1.217285926E0,1.023904763E1,2.172714239E0,1.053757888E1
3.865492083E-1,1.082106340E0,1.015744389E1,2.679871320E0,1.056060277E1
3.965792083E-1,8.818760414E-1,9.972567798E0,3.394257231E0,1.057122490E1
4.066092083E-1,4.968077277E-1,9.253274319E0,3.964591137E0,1.007908163E1
4.166382083E-1,-1.556473258E-1,7.562257213E0,2.547940593E0,7.981476149E0
4.266682083E-1,-3.163533702E0,-1.161217268E0,-1.113140642E1,1.163033017E1
4.366982083E-1,-1.524026766E0,-8.660272511E0,-2.243198448E1,2.409391843E1
4.467282083E-1,-1.337770582E0,-1.197622734E1,-2.925626285E0,1.240076371E1
4.567572083E-1,-3.968092742E0,-2.154319367E1,8.668340499E0,2.355833357E1
4.667872083E-1,-9.473913739E0,-4.761625804E1,1.058496073E1,4.969008417E1
4.768172083E-1,-1.183327227E1,-7.386815600E1,1.102721605E1,7.561831986E1
4.868462083E-1,-7.397757495E0,-7.924096132E1,-6.548350604E0,7.985447804E1
4.968762083E-1,-5.489571877E0,-4.645311120E1,-9.034141141E0,4.764076663E1
5.069062083E-1,-3.076977077E0,-1.928218530E1,-3.489311907E0,1.983546711E1
5.169362083E-1,-2.382848844E0,-1.214258062E1,-2.892810541E0,1.270781593E1
5.269652083E-1,-9.312549005E-1,-9.728650612E0,1.983379204E-2,9.773140325E0
5.369952083E-1,1.858217652E0,-1.069035445E1,1.331416851E0,1.093203192E1
5.470252083E-1,4.628979262E0,-1.414800719E1,2.104840930E0,1.503409165E1
5.570552083E-1,4.708406962E0,-1.386094399E1,1.284529198E0,1.469506310E1
5.670842083E-1,2.382283857E0,-9.887144655E0,-5.624413713E-1,1.018563921E1
5.771146250E-1,5.950518411E-1,-6.559311794E0,-2.345789484E0,6.991522453E0
5.871446250E-1,-6.280231939E-1,-3.329673564E0,-3.735551022E0,5.043360052E0
5.971746250E-1,-1.181523917E0,5.843707323E-2,-4.303230293E0,4.462869549E0
6.072036250E-1,-8.791594251E-1,3.179524083E0,-3.708945022E0,4.963725200E0
6.172336250E-1,1.331128876E-1,5.761313623E0,-2.366800869E0,6.229943824E0
6.272636250E-1,1.475455846E0,7.763032472E0,-1.153307154E0,7.985722291E0
6.372936250E-1,2.765468709E0,9.279492064E0,-5.312768447E-1,9.697373110E0
6.473226250E-1,3.992503406E0,1.048130830E1,-1.298713740E-1,1.121671849E1
6.573526250E-1,5.177051064E0,1.134980226E1,4.629263655E-1,1.248335572E1
6.673826250E-1,5.861330831E0,1.152913987E1,1.174518514E0,1.298675322E1
6.774126250E-1,6.087043880E0,1.143076866E1,1.593342876E0,1.304811545E1
6.874416250E-1,6.377170442E0,1.148309656E1,1.787927688E0,1.325618704E1
6.974716250E-1,6.506509098E0,1.163869097E1,1.908471547E0,1.346982003E1
7.075016250E-1,6.566949427E0,1.183060243E1,1.819041892E0,1.365272471E1
7.175316250E-1,6.686589307E0,1.211531857E1,1.600975832E0,1.393034616E1
7.275606250E-1,6.717870741E0,1.229413227E1,1.321723337E0,1.407204420E1
7.375906250E-1,6.423065822E0,1.242889539E1,8.386556160E-1,1.401558270E1
7.476206250E-1,6.078511623E0,1.250801055E1,2.959825480E-1,1.390993304E1
7.576506250E-1,5.738683144E0,1.244307371E1,-1.216664879E-1,1.370318833E1
7.676796250E-1,5.330360380E0,1.210183722E1,-2.108681381E-1,1.322541763E1
7.777096250E-1,4.621268831E0,1.158584149E1,1.059398532E-2,1.247349033E1
7.877396250E-1,3.745718746E0,1.104562543E1,2.587194121E-1,1.166632700E1
7.977696250E-1,2.904655246E0,1.051392875E1,5.404160428E-1,1.092116154E1
8.077986250E-1,2.222443200E0,1.004870907E1,8.027420175E-1,1.032280013E1
8.178286250E-1,1.791630438E0,9.667689296E0,8.326423395E-1,9.867494576E0
8.278586250E-1,1.597246185E0,9.405752746E0,7.401007962E-1,9.569071495E0
8.378886250E-1,1.509605047E0,9.233815954E0,6.941978145E-1,9.382119967E0
8.479176250E-1,1.435026004E0,9.196137666E0,6.063165021E-1,9.327157515E0
8.579476250E-1,1.332776914E0,9.271618204E0,4.385341573E-1,9.377180313E0
8.679776250E-1,1.211885584E0,9.327157397E0,1.645932734E-1,9.406998603E0
8.780076250E-1,1.021259045E0,9.346448531E0,-3.399933342E-1,9.408223299E0
8.880366250E-1,7.317131115E-1,9.268406913E0,-1.117737372E0,9.364192843E0
8.980666250E-1,4.839810562E-1,9.152235602E0,-2.007490636E0,9.382306370E0
9.080966250E-1,3.787206495E-1,9.171658298E0,-2.056171045E0,9.406943426E0
9.181266250E-1,5.327013727E-1,9.344928254E0,-1.161740009E0,9.431918929E0
9.281556250E-1,6.885075966E-1,9.436495652E0,-7.592375636E-2,9.461884448E0
9.381856250E-1,6.994860363E-1,9.171165962E0,3.066970591E-1,9.202914153E0
9.482156250E-1,7.951738201E-2,8.220996927E0,-3.093477627E0,8.784117333E0
9.582446250E-1,-1.887188852E-1,5.523027306E0,-6.755476524E0,8.727881100E0
9.682746250E-1,6.065532412E-2,2.326268554E0,-3.071154127E0,3.853205435E0
9.783046250E-1,1.174677485E0,3.061738356E0,3.267983393E0,4.629667851E0
9.883346250E-1,2.004925463E0,-2.250090444E-1,5.351336682E0,5.719017351E0
9.983636250E-1,2.462387642E0,-1.439431063E1,6.403347842E0,1.594560739E1
1.008393625E0,2.929282549E0,-3.409189148E1,9.802086378E0,3.559380085E1
1.018423625E0,5.313991685E0,-5.486845671E1,1.277589255E1,5.658630116E1
1.028453625E0,8.172628759E0,-7.200911097E1,1.705218940E1,7.445052778E1
1.038482625E0,5.574577528E0,-6.731427861E1,8.351829547E0,6.805909988E1
1.048512625E0,2.499647854E0,-4.324005684E1,1.910268981E0,4.335435252E1
1.058542625E0,5.450012100E-1,-2.311697878E1,-1.088307868E1,2.555646954E1
1.068572625E0,-2.068362636E-1,-1.578467092E1,-2.419970770E1,2.889332916E1
1.078601625E0,-2.534873528E0,-1.367608310E1,-2.370403455E1,2.748348753E1
1.088631625E0,-5.224780716E0,-1.478169451E1,-1.164960070E1,1.953228155E1
1.098661625E0,-3.665909514E0,-1.590417047E1,-3.726522921E0,1.674122170E1
1.108691625E0,-2.206439225E0,-1.391390690E1,-3.503615366E0,1.451690393E1
1.118720625E0,-1.237867540E0,-1.015452964E1,-3.927212226E0,1.095763588E1
1.128750625E0,1.792637182E-1,-7.026601388E0,-2.924944500E0,7.613183492E0
1.138780625E0,1.493748422E0,-4.223371360E0,-1.160297500E0,4.627573909E0
1.148810625E0,2.583598960E0,-1.122791120E0,-5.094620526E-2,2.817488066E0
1.158839625E0,3.347039795E0,1.868131022E0,3.283170658E-1,3.847126330E0
1.168869625E0,4.274152966E0,4.644832817E0,6.415646875E-1,6.344640315E0
1.178899625E0,5.337644842E0,6.897396634E0,1.026724291E0,8.781725089E0
1.188929625E0,6.440252543E0,8.886343410E0,1.958511434E0,1.114808141E1
1.198958625E0,7.672666093E0,1.057706114E1,2.896354539E0,1.338405383E1
1.208988625E0,8.633572370E0,1.171989827E1,3.190244953E0,1.490208878E1
1.219018625E0,9.174584244E0,1.258992303E1,2.842298200E0,1.583533444E1
1.229048625E0,9.079366431E0,1.314033196E1,2.016021724E0,1.609868201E1
1.239077625E0,8.010620540E0,1.315021726E1,1.310288522E0,1.545364396E1
1.249107625E0,7.464468378E0,1.312645067E1,8.307536888E-1,1.512323203E1
1.259137625E0,7.355390325E0,1.333292755E1,4.785852456E-1,1.523475526E1
1.269167625E0,7.359254165E0,1.368824063E1,3.732757223E-1,1.554560671E1
1.279196625E0,7.354168841E0,1.412439847E1,2.511074885E-1,1.592625149E1
1.289226625E0,6.863607913E0,1.399693385E1,2.851800364E-2,1.558922975E1
1.299256625E0,6.094392661E0,1.353383086E1,-1.469253266E-1,1.484344255E1
1.309286625E0,5.030506976E0,1.293412171E1,-1.971236730E-1,1.387935023E1
1.319315625E0,3.921563816E0,1.222182209E1,-3.626793250E-1,1.284068278E1
1.329345625E0,3.115005321E0,1.129209843E1,-5.296266143E-1,1.172583683E1
1.339375625E0,2.537369996E0,1.025037954E1,-6.016047426E-1,1.057688307E1
1.349405625E0,2.107645693E0,9.425516335E0,-5.707537365E-1,9.675137641E0
1.359434625E0,1.822851646E0,9.001620682E0,-4.164258349E-1,9.193768188E0
1.369464625E0,1.689114275E0,8.902531427E0,-8.504336625E-3,9.061360006E0
1.379494625E0,1.683598743E0,9.079814327E0,6.910835874E-1,9.260406550E0
1.389524625E0,1.946523473E0,9.215989548E0,1.247966705E0,9.501622907E0
1.399553625E0,2.313985893E0,9.210107834E0,1.611271609E0,9.632072115E0
1.409583625E0,2.467375901E0,9.141784288E0,1.974011672E0,9.672480855E0
1.419613625E0,2.399100888E0,9.078394039E0,2.120734831E0,9.626548687E0
1.429642625E0,2.066798652E0,9.130014428E0,2.198013972E0,9.615616753E0
1.439672625E0,1.460705806E0,9.503922234E0,2.336411573E0,9.895302841E0
1.449702625E0,1.140361419E0,9.921616330E0,2.406371316E0,1.027275609E1
1.459732625E0,1.110030303E0,1.009411387E1,2.506183287E0,1.045964898E1
1.469761625E0,1.237297729E0,1.004789280E1,2.620577044E0,1.045746047E1
1.479791625E0,1.568477300E0,9.860655599E0,2.776724600E0,1.036353460E1
1.489821625E0,1.774290812E0,9.322369112E0,2.860231025E0,9.911387151E0
1.499851625E0,1.855364796E0,7.334016997E0,2.203745413E0,7.879509990E0
1.509880625E0,1.701989698E0,5.723975058E0,2.159147530E0,6.350006098E0
1.519910625E0,1.388058683E0,4.984246729E0,2.127203167E0,5.594141192E0
1.529940625E0,9.186213333E-1,5.021133889E0,3.096210616E0,5.970106436E0
1.539970625E0,5.110868111E-1,1.365372217E0,2.434853103E0,2.837950080E0
1.549999625E0,-9.078334397E-1,-9.637642209E0,1.865531934E0,9.858423723E0
1.560029625E0,-4.243701837E0,-3.057934742E1,5.461407008E0,3.135175371E1
1.570059208E0,-5.967756588E0,-6.157425879E1,1.048835771E1,6.274559038E1
1.580089208E0,-2.810187630E0,-9.203364006E1,2.172882171E1,9.460565390E1
1.590118208E0,7.692502772E0,-8.628059732E1,3.774822092E0,8.670504804E1
1.600148208E0,5.124447173E0,-3.972770456E1,-3.061436289E1,5.041616490E1
1.610178208E0,-4.822108701E0,-1.558016923E1,-3.346658089E1,3.722910745E1
1.620208208E0,-8.457467684E0,-1.319743353E1,-1.177645254E1,1.960576053E1
1.630237208E0,-6.553849910E0,-1.282375786E1,1.375483807E0,1.446698552E1
1.640267208E0,-5.641781917E0,-1.202461071E1,2.404209015E0,1.349819199E1
1.650297208E0,-4.890918443E0,-1.024611809E1,3.650030816E0,1.192588546E1
1.660327208E0,-3.725139178E0,-8.442445602E0,4.006594026E0,1.006003704E1
1.670356208E0,-2.372709334E0,-7.063782079E0,3.615241052E0,8.282314574E0
1.680386208E0,-6.936073919E-1,-6.423447061E0,2.780095519E0,7.033540677E0
1.690416208E0,1.787936313E0,-5.176851089E0,1.504168160E0,5.679702924E0
1.700446208E0,3.858973173E0,-2.518273575E0,-5.303670545E-1,4.638390342E0
1.710475208E0,4.585480655E0,1.186215869E0,-2.538907814E0,5.373992353E0
1.720505208E0,4.406397396E0,4.762914414E0,-2.960680928E0,7.132133151E0
1.730535208E0,4.382211266E0,7.408456146E0,-1.948094620E0,8.825195221E0
1.740565208E0,4.486045829E0,9.431283444E0,-1.198901988E0,1.051242506E1
1.750594208E0,4.981576890E0,1.089483860E1,-7.878567606E-1,1.200559597E1
1.760624208E0,5.284764962E0,1.154009405E1,-9.851564348E-1,1.273079120E1
1.770654208E0,5.869108213E0,1.195106092E1,-8.170618486E-1,1.333948569E1
1.780684208E0,6.906212481E0,1.243570388E1,-3.824921036E-1,1.422985601E1
1.790713208E0,7.767198029E0,1.274920586E1,1.071116352E-1,1.492926951E1
1.800743208E0,8.683516363E0,1.314166162E1,4.643659866E-1,1.575824744E1
1.810773208E0,9.612009770E0,1.351157051E1,1.154659030E0,1.662186834E1
1.820803208E0,1.026864741E1,1.371967993E1,1.687930945E0,1.721986783E1
1.830832208E0,9.799993075E0,1.343937377E1,2.213552363E0,1.677964379E1
1.840862208E0,8.340973021E0,1.275307672E1,2.950861698E0,1.552161014E1
1.850892208E0,6.814870201E0,1.200618847E1,3.426933811E0,1.422444701E1
1.860922208E0,5.548719386E0,1.149537103E1,3.355444583E0,1.319813814E1
1.870951208E0,4.458589059E0,1.099986278E1,2.845180292E0,1.220536965E1
1.880981208E0,3.728155172E0,1.059795441E1,2.154099044E0,1.143922730E1
1.891011208E0,3.230016837E0,1.021844205E1,1.452475265E0,1.081477004E1
1.901040208E0,2.831789876E0,9.755025063E0,8.302202766E-1,1.019160505E1
1.911070208E0,2.548805981E0,9.240562472E0,3.136657707E-1,9.590766025E0
1.921100208E0,2.333096056E0,8.749740173E0,-4.018688992E-2,9.055545555E0
1.931130208E0,2.300415967E0,8.275098875E0,-1.512183523E-1,8.590229450E0
1.941160208E0,2.431893096E0,8.022838297E0,-3.950729728E-2,8.383412145E0
1.951189208E0,2.596805774E0,8.035561253E0,2.402561709E-1,8.448157664E0
1.961219208E0,2.785004842E0,8.121938662E0,5.864826735E-1,8.606166482E0
1.971249208E0,3.003622295E0,8.317065511E0,9.231407925E-1,8.890866916E0
1.981279208E0,3.285120705E0,8.777248984E0,1.209888394E0,9.449653311E0
1.991308208E0,3.577589953E0,9.345841005E0,1.269133480E0,1.008734820E1
2.001338208E0,3.627788592E0,9.798088637E0,1.252443187E0,1.052292758E1
2.011368208E0,3.429241122E0,1.005238814E1,1.313971099E0,1.070218305E1
2.021397208E0,3.286333417E0,1.015789062E1,1.398320693E0,1.076745234E1
2.031427208E0,3.369113034E0,1.001287733E1,1.012673359E0,1.061292337E1
2.041457208E0,3.551896995E0,8.888565352E0,-2.725290152E0,9.952375229E0
2.051487208E0,3.700972343E0,5.449644749E0,-8.357696643E0,1.064175349E1
2.061516208E0,1.755982157E0,4.986631808E0,-2.090503557E0,5.685083574E0
2.071546208E0,4.843597365E-1,5.031129119E0,-7.601976764E-1,5.111239094E0
2.081576208E0,6.146199869E-1,5.086316310E0,2.348524811E0,5.635950685E0
2.091606208E0,1.006567696E0,3.249841529E-1,4.848122964E0,4.962165807E0
2.101635208E0,8.722261622E-1,-1.270243281E1,5.185216116E0,1.374769231E1
2.111665208E0,-5.319913745E-1,-3.631662840E1,7.676504205E0,3.712289361E1
2.121695208E0,-2.239778879E0,-6.598848094E1,1.277601417E1,6.725119154E1
2.131725208E0,-2.834524911E0,-8.409900584E1,1.397814441E1,8.529985836E1
2.141754208E0,-2.452637117E0,-7.578414356E1,8.650369082E0,7.631566503E1
2.151784208E0,-2.671140842E0,-4.133307399E1,-3.343941940E0,4.155406053E1
2.161814208E0,-3.107775531E0,-1.874985245E1,-1.755352850E1,2.587163695E1
2.171844208E0,-1.939532103E0,-9.390191551E0,-2.160483735E1,2.363697272E1
2.181873208E0,-3.845510544E0,-6.808252323E0,-1.782843300E1,1.946774960E1
2.191903208E0,-3.069632682E0,-9.281102972E0,-6.120033871E0,1.153327064E1
2.201933208E0,-1.707885446E0,-1.140654130E1,-2.583090545E0,1.181940836E1
2.211963208E0,-1.250055769E0,-1.084265337E1,-1.956324576E0,1.108841636E1
2.221992208E0,-8.306442728E-1,-8.678802922E0,-2.878699456E0,9.181421493E0
2.232022208E0,-3.340438288E-1,-6.415967302E0,-3.312887962E0,7.228516332E0
2.242052208E0,5.903594506E-1,-4.408978942E0,-2.023721922E0,4.887030797E0
2.252082208E0,1.648604034E0,-2.053774856E0,-1.108719796E0,2.857471961E0
2.262111208E0,2.782771205E0,5.618221146E-1,-3.575700645E-1,2.861348637E0
2.272141208E0,3.625121969E0,3.178627120E0,2.965076280E-1,4.830434394E0
2.282171208E0,4.204134898E0,5.511980746E0,6.949690622E-1,6.967041264E0
2.292201208E0,4.878345760E0,7.631442638E0,1.042183160E0,9.117199122E0
2.302230208E0,6.027273642E0,9.497448782E0,2.230120448E0,1.146747567E1
2.312260208E0,7.324957906E0,1.074649708E1,2.965199071E0,1.333921337E1
2.322290208E0,9.000628409E0,1.153550866E1,3.311026794E0,1.500140561E1
2.332319208E0,1.041285378E1,1.232232052E1,3.603898038E0,1.653043218E1
2.342349208E0,9.879767808E0,1.271291804E1,2.912613891E0,1.636188915E1
2.352379208E0,9.459351833E0,1.312442753E1,2.406629763E0,1.635609373E1
2.362409208E0,8.838913136E0,1.338409653E1,1.675497426E0,1.612661518E1
2.372439208E0,8.219845026E0,1.342347870E1,1.195651520E0,1.578560152E1
2.382468208E0,7.541088538E0,1.329572639E1,1.039374157E0,1.532072633E1
2.392498208E0,6.837674342E0,1.309724149E1,1.020827959E0,1.480991610E1
2.402528208E0,5.893184123E0,1.285520886E1,1.137150128E0,1.418728742E1
2.412557208E0,4.765068236E0,1.248592094E1,1.115547005E0,1.341076218E1
2.422587208E0,3.557709712E0,1.228131283E1,5.351512098E-1,1.279743451E1
2.432617208E0,2.177343772E0,1.219568270E1,-5.478034151E-1,1.240062865E1
2.442647208E0,1.390050683E0,1.177809561E1,-8.132939760E-1,1.188769213E1
2.452676208E0,1.045389480E0,1.130599726E1,-9.007320694E-1,1.138989603E1
2.462706208E0,6.929551350E-1,1.082022696E1,-1.416248256E0,1.093449849E1
2.472736208E0,4.396540453E-1,1.025518829E1,-1.895663806E0,1.043818585E1
2.482766208E0,2.950526945E-1,9.706137663E0,-1.992936916E0,9.913019821E0
2.492795208E0,4.521726416E-1,9.167593898E0,-1.611329935E0,9.319099857E0
2.502825208E0,9.185810606E-1,8.769969200E0,-9.747941454E-1,8.871661320E0
2.512855208E0,1.564638018E0,8.751869144E0,-2.368718755E-1,8.893785130E0
2.522885208E0,2.304945367E0,8.965983072E0,5.369229162E-1,9.273074561E0
2.532914208E0,2.976832399E0,9.281778325E0,1.288293636E0,9.832224596E0
2.542944208E0,3.532888867E0,9.579465922E0,1.912948176E0,1.038782180E1
2.552974208E0,3.949899715E0,9.739634022E0,2.514429030E0,1.080668922E1
2.563004208E0,4.274533035E0,9.850037055E0,3.081473293E0,1.117095969E1
2.573033750E0,4.862897708E0,9.951182191E0,3.449251463E0,1.160048002E1
2.583063750E0,5.699730747E0,9.776587840E0,3.424286191E0,1.182346550E1
2.593093750E0,7.062498030E0,7.955761378E0,2.100447039E-1,1.064035414E1
2.603123750E0,6.528209285E0,4.272943470E0,-2.623963752E0,8.231691693E0
2.613152750E0,3.882088386E0,2.693613446E0,-7.446277106E-1,4.783370575E0
2.623182750E0,2.477679865E0,3.103533084E0,1.726988007E0,4.330508364E0
2.633212750E0,1.568781939E0,3.763774363E0,5.328645977E0,6.709809399E0
2.643242750E0,7.256321535E-1,-8.730442607E-1,6.593218628E0,6.690237678E0
2.653271750E0,-2.082002363E-1,-1.822950873E1,4.609632579E0,1.880444225E1
2.663301750E0,-1.312443806E0,-5.030400322E1,6.356749041E0,5.072103614E1
2.673331750E0,-5.673023590E0,-9.107837342E1,1.269972555E1,9.213433850E1
2.683361750E0,-8.592117366E0,-1.032572068E2,1.972217892E0,1.036328369E2
2.693390750E0,-9.881689203E0,-6.566201451E1,-1.822161031E1,6.885619082E1
2.703420750E0,-4.996606573E0,-2.550595930E1,-1.515947961E1,3.008869986E1
2.713450750E0,-3.992269517E0,-1.342284369E1,-1.185432576E1,1.834764257E1
2.723480750E0,-2.391250855E0,-8.585994161E0,-5.505751122E0,1.047619548E1
2.733509750E0,-3.805237481E-1,-6.323753203E0,-1.335350858E0,6.474396869E0
2.743539750E0,4.904670802E-1,-4.920620837E0,-5.949308038E-2,4.945362151E0
2.753569750E0,8.831812131E-1,-3.694223487E0,1.251452669E0,3.999178667E0
2.763598750E0,1.329843804E0,-2.941724839E0,1.729399399E0,3.662383357E0
2.773628750E0,1.754760673E0,-2.018882182E0,1.696659669E0,3.167605454E0
2.783658750E0,2.153755666E0,-5.402663541E-1,1.603887745E0,2.739161751E0
2.793688750E0,2.553679343E0,1.485683357E0,1.565358102E0,3.343483096E0
2.803718750E0,2.996151892E0,3.660637665E0,1.473256270E0,4.954561364E0
2.813747750E0,3.548184306E0,5.652642535E0,1.405953648E0,6.820460773E0
2.823777750E0,4.024775066E0,7.173609161E0,1.347110778E0,8.335117886E0
2.833807750E0,4.406512294E0,8.271254915E0,1.214057386E0,9.450129301E0
2.843837750E0,4.877763377E0,9.210888437E0,1.390942676E0,1.051512068E1
2.853866750E0,5.379491610E0,1.005129354E1,2.057389605E0,1.158448462E1
2.863896750E0,6.481481845E0,1.071364274E1,2.475168486E0,1.276394166E1
2.873926750E0,7.897525449E0,1.141366789E1,2.626606693E0,1.412592601E1
2.883955750E0,8.730947807E0,1.208539953E1,2.593205059E0,1.513311085E1
2.893985750E0,8.830076823E0,1.245415536E1,2.498928062E0,1.546999948E1
2.904015750E0,8.538707728E0,1.251219950E1,2.203893932E0,1.530757376E1
2.914045750E0,7.992236894E0,1.257700770E1,1.954644670E0,1.502922516E1
2.924075750E0,7.351263360E0,1.276579558E1,1.504761068E0,1.480779915E1
2.934104750E0,6.738060007E0,1.328237018E1,1.105240630E0,1.493466997E1
2.944134750E0,6.079716734E0,1.367870031E1,4.809019125E-1,1.497668402E1
2.954164750E0,5.405100660E0,1.351578519E1,-3.260314623E-1,1.456014625E1
2.964193750E0,4.772283700E0,1.299558180E1,-1.127585326E0,1.388997072E1
2.974223750E0,4.252428221E0,1.201608313E1,-1.660672395E0,1.285407454E1
2.984253750E0,3.773689194E0,1.071975659E1,-1.853779031E0,1.151479084E1
2.994283750E0,3.309811450E0,9.695640156E0,-1.835464382E0,1.040813237E1
3.004312750E0,2.766678791E0,9.192391940E0,-1.750311381E0,9.757979864E0
3.014342750E0,2.207015761E0,8.967342550E0,-1.658070384E0,9.382608825E0
3.024372750E0,1.715875666E0,8.942766702E0,-1.380542818E0,9.209951361E0
3.034402750E0,1.512851860E0,9.043591996E0,-7.786362863E-1,9.202257951E0
3.044431750E0,1.556444314E0,9.156272519E0,3.591593742E-2,9.287687296E0
3.054461750E0,1.732206501E0,9.276120560E0,8.942544508E-1,9.478746912E0
3.064491750E0,1.922460134E0,9.393552530E0,1.620947582E0,9.724307336E0
3.074521750E0,2.134140742E0,9.473107992E0,2.236023066E0,9.964644043E0
3.084550750E0,2.346996057E0,9.533783380E0,2.763615142E0,1.019995023E1
3.094580750E0,2.523373516E0,9.581851586E0,3.242389838E0,1.042556404E1
3.104610750E0,2.608549322E0,9.568571389E0,3.712951534E0,1.058999986E1
3.114640750E0,2.613059864E0,9.572685490E0,4.211664065E0,1.077972651E1
3.124669750E0,2.674610580E0,9.604861549E0,4.780310465E0,1.105704641E1
3.134699750E0,2.435322050E0,9.189226257E0,5.418550426E0,1.094227405E1
3.144729750E0,1.474172675E0,7.811433969E0,5.955060529E0,9.932493727E0
3.154759750E0,4.256150267E-1,5.329802556E0,5.839719522E0,7.917718581E0
3.164788750E0,1.184971873E-1,4.033269024E0,4.980332018E0,6.409758780E0
3.174818750E0,2.434631494E-1,3.315749590E0,5.845102469E0,6.724484554E0
3.184848750E0,5.753435815E-1,-1.562771879E0,7.174017881E0,7.364768071E0
3.194878750E0,-7.993800878E-1,-1.670435959E1,4.129431748E0,1.722576107E1
3.204907750E0,-3.090957477E0,-4.601513135E1,5.291823721E0,4.642143610E1
3.214937750E0,-2.817066587E0,-8.586051464E1,6.237086942E0,8.613283400E1
3.224967750E0,-2.156227138E0,-1.143591234E2,1.686984281E0,1.143918892E2
3.234997750E0,-6.566658821E0,-7.880945552E1,-1.369130223E1,8.025897485E1
3.245026750E0,-4.216035151E0,-2.704659304E1,-2.325403049E1,3.591716973E1
3.255056750E0,-1.806386325E0,-1.380643157E1,-1.410266905E1,1.981832128E1
3.265086750E0,5.405093059E-1,-9.705956984E0,-4.579303656E0,1.074559320E1
3.275116750E0,1.682702657E0,-7.368185202E0,-1.941674377E0,7.803316012E0
3.285145750E0,1.685569255E0,-5.736053651E0,-3.164694375E-1,5.986953157E0
3.295175750E0,1.211402311E0,-5.345891170E0,4.679637418E-1,5.501366923E0
3.305205750E0,1.545200411E0,-5.774866884E0,4.666393475E-1,5.996205810E0
3.315235750E0,1.966356059E0,-5.334067515E0,5.236719561E-1,5.709033607E0
3.325264750E0,2.111111484E0,-3.670170380E0,6.630795175E-1,4.285629098E0
3.335294750E0,2.377108633E0,-1.278805359E0,7.645895201E-1,2.805456421E0
3.345324750E0,2.572276704E0,1.364699203E0,6.351099461E-1,2.980331525E0
3.355354750E0,2.927907869E0,3.864796123E0,5.726142840E-1,4.882333528E0
3.365383750E0,3.358353280E0,6.072586055E0,4.537451041E-1,6.954187427E0
3.375413750E0,3.894793509E0,7.913316439E0,6.490157944E-1,8.843710480E0
3.385443750E0,4.458355462E0,9.376526023E0,1.223046311E0,1.045428218E1
3.395473750E0,5.452274827E0,1.031938136E1,1.829625353E0,1.181374036E1
3.405502750E0,7.708661553E0,1.105618901E1,2.682474500E0,1.374257791E1
3.415532750E0,8.373158435E0,1.134631849E1,2.584955807E0,1.433634270E1
3.425562750E0,8.491000296E0,1.167347255E1,1.819445350E0,1.454913842E1
3.435592750E0,8.536852992E0,1.203718924E1,1.853222376E0,1.487300296E1
3.445621750E0,8.397598042E0,1.244242584E1,1.893016187E0,1.513000740E1
3.455651750E0,7.874834744E0,1.278986506E1,1.671796138E0,1.511253032E1
3.465681750E0,7.131347240E0,1.291068257E1,1.519940439E0,1.482740897E1
3.475711750E0,6.363488542E0,1.293932223E1,1.506358527E0,1.449790199E1
3.485740750E0,5.471207526E0,1.270699481E1,1.335268997E0,1.389909249E1
3.495770750E0,4.574223011E0,1.251566923E1,6.651265546E-1,1.334195960E1
3.505800750E0,3.775114745E0,1.279424579E1,-3.802176098E-1,1.334499090E1
3.515830750E0,2.974513101E0,1.277598845E1,-7.334338740E-1,1.313817088E1
3.525859750E0,2.305193143E0,1.250674638E1,-8.483619940E-1,1.274567921E1
3.535889750E0,1.837745089E0,1.213161826E1,-1.059512041E0,1.231568246E1
3.545919750E0,1.551187083E0,1.166218508E1,-1.038863111E0,1.181067224E1
3.555949750E0,1.431891312E0,1.114443051E1,-7.718394828E-1,1.126252104E1
3.565978750E0,1.513035462E0,1.073289411E1,-2.456999286E-1,1.084180155E1
3.576008208E0,1.880005255E0,1.039410527E1,4.795115177E-1,1.057363586E1
3.586038208E0,2.328920851E0,1.006467548E1,1.201216900E0,1.040021571E1
3.596068208E0,2.654086268E0,9.815005217E0,1.656348964E0,1.030155295E1
3.606097208E0,2.844000616E0,9.650147649E0,1.903315473E0,1.023895986E1
3.616127208E0,2.961937494E0,9.513536226E0,2.081469609E0,1.017904519E1
3.626157208E0,3.017274958E0,9.428876730E0,2.259145588E0,1.015437853E1
3.636187208E0,3.038446557E0,9.440693368E0,2.371288022E0,1.019714939E1
3.646216208E0,3.077660909E0,9.428778496E0,2.355123979E0,1.019413898E1
3.656246208E0,3.111856303E0,9.378563778E0,2.226291107E0,1.012904143E1
3.666276208E0,3.136610783E0,9.302281002E0,1.891601307E0,9.997445401E0
3.676306208E0,3.371259839E0,8.940820164E0,4.716668200E-1,9.566928854E0
3.686335208E0,4.950404799E0,7.400957676E0,-6.806233864E0,1.120738603E1
3.696365208E0,7.721285691E0,4.181191885E0,-1.568267677E1,1.797350742E1
3.706395208E0,4.671439110E0,3.406880785E0,-5.086142063E0,7.700520835E0
3.716425208E0,1.590526126E0,3.081497852E0,8.854310024E-1,3.579020876E0
3.726454208E0,1.556486268E0,3.031263837E0,3.133771960E0,4.629442369E0
3.736484208E0,1.967758513E0,3.262717683E0,6.876803910E0,7.861795740E0
3.746514208E0,2.024061061E0,1.836228613E0,8.747662657E0,9.164614595E0
3.756544208E0,1.696957877E0,-4.547288396E0,9.573530413E0,1.073359131E1
3.766573208E0,6.036301816E-1,-2.848434618E1,7.606310720E0,2.948861322E1
3.776603208E0,1.589677769E-1,-6.212356962E1,9.302399701E0,6.281638173E1
3.786633208E0,-3.544930915E0,-9.228714726E1,1.350905738E1,9.333798110E1
3.796662208E0,-7.353779417E0,-9.557440513E1,1.235249567E1,9.664951700E1
3.806692208E0,-7.850069447E0,-6.468233458E1,3.558725958E0,6.525406139E1
3.816722208E0,-8.121191972E0,-2.867033910E1,-1.117351923E1,3.182435601E1
3.826752208E0,-1.250987815E1,-1.016236140E1,-4.613074718E1,4.886528907E1
3.836781208E0,-6.714097533E0,-5.609563174E0,-3.954780211E1,4.050401161E1
3.846811208E0,-4.891944045E0,-7.068560423E0,-9.108100233E0,1.252410288E1
3.856841208E0,-2.580333583E0,-8.016889340E0,-1.888099263E0,8.630964889E0
3.866871208E0,-1.801445866E0,-5.436163409E0,-9.567734653E-1,5.806246230E0
3.876900208E0,-1.446208073E0,-2.471100578E0,7.745169228E-1,2.966097153E0
3.886930208E0,-2.314167157E-1,-1.581252004E0,2.525626448E0,2.988762378E0
3.896960208E0,1.280658342E0,-4.597817695E-1,3.343944279E0,3.610186755E0
3.906990208E0,2.628234266E0,1.461421505E0,3.052084018E0,4.284691940E0
3.917019208E0,4.201026518E0,3.813530075E0,3.207778999E0,6.517781950E0
3.927049208E0,6.136066936E0,6.267562630E0,3.884507672E0,9.592864985E0
3.937079208E0,7.645056710E0,8.359466595E0,4.606560452E0,1.222898087E1
3.947109208E0,8.234702216E0,9.705409099E0,4.553537900E0,1.351813574E1
3.957138208E0,8.874056071E0,1.059151779E1,4.277211353E0,1.446456558E1
3.967168208E0,9.013222142E0,1.131904357E1,3.884561466E0,1.498161335E1
3.977198208E0,8.806800227E0,1.189481422E1,3.387760974E0,1.518299246E1
3.987228208E0,8.195594283E0,1.248872877E1,2.674205368E0,1.517522607E1
3.997257208E0,7.612115836E0,1.296428282E1,2.084594361E0,1.517769647E1
4.007287208E0,7.204381303E0,1.365189433E1,2.003657202E0,1.556573066E1
4.017317208E0,6.237500340E0,1.400627302E1,2.066282051E0,1.547099273E1
4.027347208E0,5.451532815E0,1.433362705E1,1.771112266E0,1.543725731E1
4.037376208E0,4.533333724E0,1.412509079E1,1.319815975E0,1.489332799E1
4.047406208E0,3.798689257E0,1.372231820E1,1.063643610E0,1.427807391E1
4.057436208E0,2.851191815E0,1.357703126E1,6.607096410E-1,1.388890240E1
4.067466208E0,2.090266160E0,1.334391447E1,1.005452120E-1,1.350701208E1
4.077495208E0,1.899018792E0,1.240937972E1,-2.709821928E-1,1.255676745E1
4.087525208E0,1.929456620E0,1.135717092E1,-4.189367024E-1,1.152751674E1
4.097555208E0,1.887177888E0,1.059499572E1,-5.561836445E-1,1.077611780E1
4.107585208E0,1.722265357E0,1.010720462E1,-7.325942139E-1,1.027903096E1
4.117614208E0,1.528070700E0,9.795459729E0,-8.800819695E-1,9.952917946E0
4.127644208E0,1.355317638E0,9.637883114E0,-9.349394504E-1,9.777514439E0
4.137674208E0,1.259976155E0,9.557508457E0,-8.598892681E-1,9.678477017E0
4.147704208E0,1.223845186E0,9.451613043E0,-6.322839868E-1,9.551469478E0
4.157733208E0,1.220938682E0,9.308779598E0,-1.713748741E-1,9.390071257E0
4.167763208E0,1.282243522E0,9.213512083E0,3.388777220E-1,9.308479546E0
4.177793208E0,1.429815258E0,9.184656658E0,6.120163679E-1,9.315409472E0
4.187823208E0,1.567691580E0,9.153843001E0,7.810745752E-1,9.319902149E0
4.197852208E0,1.725480302E0,9.125551833E0,9.567823092E-1,9.336402461E0
4.207882208E0,1.907478690E0,9.173200209E0,1.208492079E0,9.447038167E0
4.217912208E0,2.104158706E0,9.342653688E0,1.567257278E0,9.704069103E0
4.227942208E0,2.318241204E0,9.419439908E0,1.724478236E0,9.852609586E0
4.237971208E0,3.250571846E0,8.861994435E0,9.732938960E-2,9.439842991E0
4.248001208E0,5.065327145E0,6.297258884E0,-4.683762410E0,9.340805043E0
4.258031208E0,4.330975331E0,3.756971712E0,-3.223837792E0,6.577637408E0
4.268061208E0,2.301371549E0,3.817110910E0,9.752826802E-2,4.458268550E0
4.278090208E0,1.478629569E0,4.943039646E0,3.287888192E0,6.118022156E0
4.288120208E0,1.096806898E0,3.530058230E0,5.482338871E0,6.612135508E0
4.298150208E0,2.617788946E-1,-5.792647682E0,5.907893379E0,8.278073419E0
4.308180208E0,-6.073766023E-2,-2.649024450E1,5.640679132E0,2.708420211E1
4.318209208E0,2.176313201E-1,-5.467735099E1,7.876891794E0,5.524224379E1
4.328239208E0,-6.838349403E-1,-8.220099029E1,9.459633669E0,8.274632985E1
4.338269208E0,-9.591845647E-1,-9.247993698E1,8.499964077E0,9.287469068E1
4.348299208E0,-3.283023016E0,-6.566089653E1,-5.825867468E-1,6.574550159E1
4.358328208E0,-4.517269084E0,-2.884513810E1,-2.119136670E1,3.607660925E1
4.368358208E0,-1.370114455E-1,-1.346204226E1,-2.063593033E1,2.463913502E1
4.378388208E0,-1.319365447E0,-6.479998407E0,-1.738788741E1,1.860294958E1
4.388418208E0,-1.287387902E0,-6.313131736E0,-6.564874835E0,9.198401031E0
4.398447208E0,-7.721585398E-2,-7.127476968E0,-7.860312599E-1,7.171104194E0
4.408477208E0,6.767627696E-2,-6.833342725E0,1.542425907E0,7.005585668E0
4.418507208E0,4.231913923E-1,-6.060503953E0,2.429631540E0,6.543080967E0
4.428537208E0,1.255872579E0,-4.969582497E0,2.205324161E0,5.580091467E0
4.438566208E0,2.056860432E0,-3.405828286E0,2.000721899E0,4.453451388E0
4.448596208E0,2.819189419E0,-1.121435736E0,1.959403135E0,3.611745801E0
4.458626208E0,3.261027837E0,1.553957786E0,1.732525320E0,4.006336399E0
4.468656208E0,3.657706748E0,4.107431014E0,1.493695797E0,5.699204797E0
4.478685208E0,4.084200026E0,6.253035808E0,1.187770059E0,7.562535579E0
4.488715208E0,4.618485556E0,8.002143247E0,1.011122165E0,9.294464665E0
4.498745208E0,5.167236512E0,9.431491604E0,9.617020833E-1,1.079714027E1
4.508775208E0,6.235939718E0,1.065057233E1,6.213011616E-1,1.235749369E1
4.518804208E0,8.171987904E0,1.199506005E1,4.865643561E-1,1.452238261E1
4.528834208E0,8.766660846E0,1.272392367E1,4.177753723E-1,1.545726729E1
4.538864208E0,8.296510794E0,1.284917337E1,1.985533355E-1,1.529616851E1
4.548894208E0,8.465426913E0,1.332344687E1,1.317939019E-1,1.578591331E1
4.558923208E0,8.480316848E0,1.388535962E1,2.895377469E-1,1.627276306E1
4.568953208E0,8.357724710E0,1.432001357E1,4.783829685E-1,1.658744107E1
4.578983833E0,7.914276552E0,1.425254371E1,7.761488807E-1,1.632094307E1
4.589013833E0,7.014583606E0,1.358047761E1,1.062250804E0,1.532194936E1
4.599042833E0,5.999105265E0,1.276409287E1,1.363857204E0,1.416938380E1
4.609072833E0,5.059262413E0,1.204877959E1,1.570218308E0,1.316186960E1
4.619102833E0,4.285445402E0,1.157780508E1,1.656692780E0,1.245613278E1
4.629132833E0,3.661275888E0,1.135262647E1,1.650417548E0,1.204204912E1
4.639161833E0,3.129037761E0,1.120037433E1,1.595215155E0,1.173814184E1
4.649191833E0,2.576867353E0,1.073430914E1,1.470442736E0,1.113677870E1
4.659221833E0,2.237686453E0,9.970151728E0,1.020571851E0,1.026901812E1
4.669251833E0,2.192346266E0,9.437196148E0,5.656350108E-1,9.704998519E0
4.679280833E0,2.200524620E0,9.121837682E0,2.127963305E-1,9.385921029E0
4.689310833E0,2.214572702E0,8.885505504E0,-1.240662217E-1,9.158162083E0
4.699340833E0,2.307062936E0,8.761856189E0,-4.241862595E-1,9.070424315E0
4.709370833E0,2.433731607E0,8.711188896E0,-5.847214922E-1,9.063650519E0
4.719399833E0,2.565574626E0,8.737971482E0,-5.588862276E-1,9.123961453E0
4.729429833E0,2.618646294E0,8.843063489E0,-2.824346224E-1,9.226963184E0
4.739459833E0,2.539091709E0,9.078158981E0,3.239964851E-1,9.432122291E0
4.749489833E0,2.393885464E0,9.418471025E0,1.015282386E0,9.770828132E0
4.759518833E0,2.278976713E0,9.780220715E0,1.469300044E0,1.014915241E1
4.769548833E0,2.259392779E0,9.955181687E0,1.581793456E0,1.033017757E1
4.779578833E0,2.464022523E0,9.667950667E0,1.081023874E0,1.003540182E1
4.789608833E0,3.348281451E0,8.421957543E0,-5.048728069E0,1.037448855E1
4.799637833E0,5.381905341E0,4.830300651E0,-1.319572263E1,1.504738533E1
4.809667833E0,3.324076610E0,5.823520980E0,-1.034948911E0,6.784836119E0
4.819697833E0,2.030336877E0,6.933427761E0,1.217459735E-1,7.225614883E0
4.829727833E0,1.573502104E0,6.618475091E0,2.270625719E0,7.171879988E0
4.839756833E0,1.397476501E0,3.697726554E0,5.019059297E0,6.388824498E0
4.849786833E0,2.884517435E0,-1.188867113E1,5.642409908E0,1.347210940E1
4.859816833E0,5.207291109E0,-4.185677402E1,1.076840542E1,4.353233243E1
4.869846833E0,7.169174048E0,-8.052326975E1,1.697336425E1,8.260441345E1
4.879875833E0,6.764821544E0,-1.009524963E2,2.005689226E1,1.031477012E2
4.889905833E0,2.298687530E0,-8.170436989E1,7.862857307E0,8.211402163E1
4.899935833E0,-7.628446525E0,-4.199447828E1,-9.817192075E0,4.379619462E1
4.909965833E0,-1.719840838E1,-1.754133121E1,-3.422816435E1,4.213135159E1
4.919994833E0,-1.084999981E1,-5.481273508E0,-3.745178814E1,3.937516082E1
4.930024833E0,-6.294777326E0,-6.523697573E0,-8.232337017E0,1.224557979E1
4.940054833E0,-2.545579487E0,-6.887317203E0,7.354042395E-1,7.379426304E0
4.950084833E0,-2.620056642E0,-5.375902004E0,6.954304075E-1,6.020684564E0
4.960113833E0,-2.388222874E0,-3.894612830E0,2.197117009E0,5.069412268E0
4.970143833E0,-2.097442886E0,-1.326053200E0,2.721772467E0,3.683168352E0
4.980173833E0,-1.577905642E0,2.375279331E0,4.326630850E0,5.181840660E0
4.990203833E0,-7.446736843E-1,3.280882058E0,3.960550126E0,5.196603052E0
5.000232833E0,2.581272353E-1,3.715110326E0,2.430260700E0,4.446891214E0
5.010262833E0,1.169955054E0,5.093997213E0,9.166130340E-1,5.306390665E0
5.020292833E0,2.082582480E0,6.948628183E0,-1.030902711E0,7.326891825E0
5.030322833E0,3.347948452E0,1.024581637E1,-5.972894536E0,1.232318876E1
5.040351833E0,4.163154102E0,1.117614463E1,-4.873975843E0,1.288385429E1
5.050381833E0,4.188630421E0,1.080405707E1,-1.949052978E0,1.175036516E1
5.060411833E0,4.307329483E0,1.110622948E1,-1.134458655E0,1.196613626E1
5.070441833E0,4.616140238E0,1.126465277E1,-3.961272258E-1,1.218023273E1
5.080470833E0,5.119586967E0,1.138284956E1,3.380193508E-1,1.248573954E1
5.090500833E0,5.975329317E0,1.171909486E1,1.009913546E0,1.319324335E1
5.100530833E0,6.971888992E0,1.205888709E1,1.654730455E0,1.402719241E1
5.110560833E0,7.410635988E0,1.224886429E1,2.108765581E0,1.447062868E1
5.120589833E0,7.263876722E0,1.219194048E1,2.564056689E0,1.442157080E1
5.130619833E0,7.156490268E0,1.215725947E1,3.080088673E0,1.443957261E1
5.140649833E0,6.681112220E0,1.194925998E1,3.646776255E0,1.416760571E1
5.150679833E0,5.722383446E0,1.144759110E1,3.738143678E0,1.333291912E1
5.160708833E0,4.661397979E0,1.089741137E1,3.658365437E0,1.240426715E1
5.170738833E0,3.757985619E0,1.047581543E1,3.541665537E0,1.167940750E1
5.180768833E0,2.966326414E0,1.030401722E1,3.240086035E0,1.120134013E1
5.190798833E0,2.286802626E0,1.032749730E1,2.788910197E0,1.093913556E1
5.200827833E0,1.749649330E0,1.041110196E1,2.211019495E0,1.078614500E1
5.210857833E0,1.260025564E0,1.049310799E1,1.627643959E0,1.069309144E1
5.220887833E0,9.286561055E-1,1.053548276E1,1.053357335E0,1.062865752E1
5.230917833E0,6.604979718E-1,1.052017241E1,5.078224933E-1,1.055311180E1
5.240946833E0,4.695284933E-1,1.035719414E1,3.195620298E-2,1.036788062E1
5.250976833E0,4.886895266E-1,9.973801560E0,-3.183586729E-1,9.990840168E0
5.261006833E0,7.460700725E-1,9.642815825E0,-5.086960673E-1,9.685003319E0
5.271036833E0,1.055289109E0,9.528385230E0,-3.048036575E-1,9.591489221E0
5.281065833E0,1.362927789E0,9.489015343E0,1.207122954E-1,9.587155772E0
5.291095833E0,1.597908675E0,9.514889857E0,3.579454923E-1,9.654769085E0
5.301125833E0,1.786195012E0,9.519230829E0,2.942704467E-1,9.689831954E0
5.311155833E0,2.077485754E0,9.245112190E0,-3.480777311E-1,9.482046434E0
5.321184833E0,2.969779488E0,8.259940553E0,-3.900012149E0,9.605014466E0
5.331214833E0,4.903967089E0,5.650640448E0,-8.804099983E0,1.155382219E1
5.341244833E0,3.670672949E0,3.993861714E0,-3.772865614E0,6.607517403E0
5.351274833E0,2.501436225E0,2.821048248E0,-1.090885203E0,3.924987508E0
5.361303833E0,1.827815493E0,3.275367549E0,3.535966841E0,5.154803930E0
5.371333833E0,-4.521601797E-1,-7.071413280E0,4.178382883E0,8.226069421E0
5.381363833E0,-4.457377223E0,-3.056036502E1,4.999362366E0,3.128574349E1
5.391393833E0,-8.719629936E0,-6.994914625E1,9.675562572E0,7.115146884E1
5.401422833E0,-1.175055522E1,-9.892295116E1,8.698205738E0,9.999742296E1
5.411452833E0,-1.111857997E1,-8.978249010E1,-8.702137406E0,9.088589299E1
5.421482833E0,-7.021269313E0,-4.354428045E1,-6.559546267E0,4.459181797E1
5.431512833E0,-4.356733778E0,-1.862405077E1,-6.526841036E0,2.020980085E1
5.441541833E0,-3.852502060E0,-1.064434856E1,-7.828899018E0,1.376356016E1
5.451571833E0,-2.807285072E0,-6.149195105E0,-4.081579304E0,7.896375088E0
5.461601833E0,-1.711906868E0,-4.275395207E0,-2.094266240E0,5.059207486E0
5.471631833E0,-1.188173882E0,-2.930597003E0,-9.732427329E-1,3.308679100E0
5.481660833E0,-7.840243493E-1,-1.772440168E0,-7.230432987E-2,1.939449986E0
5.491690833E0,-9.036710992E-2,-8.341620308E-1,4.825683689E-1,9.679177335E-1
5.501720833E0,7.323946045E-1,2.864276129E-1,7.260861897E-1,1.070347509E0
5.511750833E0,1.659499444E0,1.600232066E0,1.063037839E0,2.538647379E0
5.521779833E0,2.578173621E0,3.241056088E0,1.420413812E0,4.378241563E0
5.531809833E0,3.678481905E0,5.083793237E0,1.558043236E0,6.465576658E0
5.541839833E0,4.932414086E0,6.901769766E0,1.957650139E0,8.706062755E0
5.551869833E0,5.976090624E0,8.482185034E0,2.300862987E0,1.062803334E1
5.561899833E0,6.926279540E0,9.820430263E0,2.606941338E0,1.229676144E1
5.571928833E0,7.276726563E0,1.070624952E1,2.507378458E0,1.318565414E1
5.581958708E0,8.086519153E0,1.127622207E1,2.570036051E0,1.411205377E1
5.591988708E0,8.487225333E0,1.170399735E1,2.239797006E0,1.462987486E1
5.602018708E0,9.053600675E0,1.234191104E1,2.450342377E0,1.550143964E1
5.612047708E0,9.019172854E0,1.284321973E1,2.569903904E0,1.590277265E1
5.622077708E0,7.851739411E0,1.282357192E1,1.927134690E0,1.515940819E1
5.632107708E0,6.826316126E0,1.270681822E1,1.322277653E0,1.448482790E1
5.642137708E0,6.008424557E0,1.260796286E1,9.372724164E-1,1.399787029E1
5.652166708E0,5.353895423E0,1.236702950E1,6.680607605E-1,1.349273583E1
5.662196708E0,4.771481754E0,1.203022170E1,5.237538536E-1,1.295251290E1
5.672226708E0,4.272784426E0,1.174619086E1,4.985967565E-1,1.250912807E1
5.682256708E0,3.821821427E0,1.149201473E1,5.259524433E-1,1.212226660E1
5.692285708E0,3.357410709E0,1.127578704E1,5.283462203E-1,1.177687266E1
5.702315708E0,2.911922750E0,1.106315421E1,4.430634105E-1,1.144853617E1
5.712345708E0,2.538413140E0,1.080969378E1,3.107327342E-1,1.110808605E1
5.722375708E0,2.275271771E0,1.048970140E1,2.416421071E-1,1.073634425E1
5.732404708E0,2.104478987E0,1.017311677E1,3.498085801E-1,1.039439766E1
5.742434708E0,2.034791286E0,9.977763634E0,5.597199675E-1,1.019850132E1
5.752464708E0,2.052619154E0,9.868313112E0,8.041920539E-1,1.011155645E1
5.762494708E0,2.193739073E0,9.829665356E0,1.042736306E0,1.012532030E1
5.772523708E0,2.565457974E0,9.978568211E0,1.254398496E0,1.037915766E1
5.782553708E0,2.962584489E0,1.018798156E1,1.352818830E0,1.069588678E1
5.792583708E0,3.348939848E0,1.035550780E1,1.321945531E0,1.096355234E1
5.802613708E0,3.723414834E0,1.046253991E1,1.053846016E0,1.115522975E1
5.812642708E0,4.303691638E0,1.032856149E1,2.900206538E-1,1.119308073E1
5.822672708E0,5.150914010E0,9.752649924E0,-9.864299583E-1,1.107335269E1
5.832702708E0,6.286040416E0,8.570649313E0,-2.096339078E0,1.083351149E1
5.842732708E0,7.789992814E0,6.694062048E0,-2.598490942E0,1.059465006E1
5.852761708E0,8.172783126E0,5.112637551E0,-9.650232287E-1,9.688380493E0
5.862791708E0,7.043730222E0,2.250289249E0,5.698719764E-1,7.416379927E0
5.872821708E0,5.574723709E0,-1.155622067E0,1.713319556E0,5.945457988E0
5.882851708E0,3.664034897E0,-7.528331083E-1,5.382064970E0,6.554275914E0
5.892880708E0,1.683689813E0,-7.339070161E0,5.614843209E0,9.392721995E0
5.902910708E0,7.636713976E-2,-2.704723623E1,3.824304155E0,2.731637095E1
5.912940708E0,-2.642139237E0,-5.298105502E1,4.569773279E0,5.324336502E1
5.922970708E0,-7.217416500E0,-7.762268592E1,7.098561902E0,7.828002332E1
5.932999708E0,-1.069846922E1,-8.802971003E1,9.582353861E0,8.919365783E1
5.943029708E0,-1.178483511E1,-6.412150240E1,1.594422272E0,6.521496447E1
5.953059708E0,-1.041370397E1,-3.231969398E1,-6.946596860E0,3.465924201E1
5.963089708E0,-1.107153210E1,-1.501345826E1,-2.177619352E1,2.867377471E1
5.973118708E0,-4.897349211E0,-8.967617953E0,-1.481786890E1,1.799920664E1
5.983148708E0,-4.091484195E0,-7.150964649E0,-7.110271536E0,1.088266969E1
5.993178708E0,-4.618792535E0,-7.807695844E0,-3.585841252E0,9.754568999E0
6.003208708E0,-4.085229429E0,-7.452086899E0,-2.316719466E0,8.808512231E0
6.013237708E0,-3.475441142E0,-5.345573666E0,-1.165158949E0,6.481623587E0
6.023267708E0,-2.453894269E0,-3.067708363E0,1.534940886E-1,3.931410957E0
6.033297708E0,-1.311855137E0,-1.035085809E0,1.008747026E0,1.951906017E0
6.043327708E0,3.089538650E-1,1.091360582E0,1.730892777E0,2.069422677E0
6.053356708E0,2.177722087E0,3.441253057E0,2.053207676E0,4.560740933E0
6.063386708E0,4.147580043E0,5.808688933E0,2.364618103E0,7.518956451E0
6.073416708E0,6.101443233E0,7.845602759E0,2.978308529E0,1.037551993E1
6.083446708E0,7.959974881E0,9.431125569E0,3.755178956E0,1.289994956E1
6.093475708E0,9.237469879E0,1.052564072E1,3.948257525E0,1.455021305E1
6.103505708E0,1.032474443E1,1.147392579E1,3.521963929E0,1.583210505E1
6.113535708E0,1.077846030E1,1.224987469E1,2.750651280E0,1.654692475E1
6.123565708E0,1.148140087E1,1.308178145E1,2.073778181E0,1.752872294E1
6.133594708E0,1.165392179E1,1.429879987E1,1.442181827E0,1.850268789E1
6.143624708E0,1.066428756E1,1.542674180E1,9.535387856E-1,1.877819555E1
6.153654708E0,9.555699914E0,1.601884138E1,3.654866463E-1,1.865605158E1
6.163684708E0,8.409541565E0,1.636944862E1,-3.900835071E-1,1.840737359E1
6.173714708E0,6.972093059E0,1.574183188E1,-1.333840522E0,1.726830863E1
6.183743708E0,6.186778668E0,1.373100716E1,-1.989653705E0,1.519129717E1
6.193773708E0,5.618442171E0,1.203020416E1,-2.000490350E0,1.342738493E1
6.203803708E0,4.939656447E0,1.099615681E1,-1.690898407E0,1.217270750E1
6.213833708E0,4.394303308E0,1.037378386E1,-1.184954624E0,1.132825717E1
6.223862708E0,3.950316037E0,9.956748741E0,-6.446520174E-1,1.073114246E1
6.233892708E0,3.493316373E0,9.632889592E0,-1.300595812E-1,1.024757223E1
6.243922708E0,3.060817127E0,9.392196561E0,3.308238768E-1,9.883896102E0
6.253952708E0,2.678571191E0,9.176475234E0,7.041240478E-1,9.585313350E0
6.263981708E0,2.334154548E0,8.863191944E0,1.051659157E0,9.225531740E0
6.274011708E0,1.938060944E0,8.501088497E0,1.343287868E0,8.822075048E0
6.284041708E0,1.558838749E0,8.266104103E0,1.433943100E0,8.533149952E0
6.294071708E0,1.242057217E0,8.189809048E0,1.338942218E0,8.390973998E0
6.304100708E0,1.005172916E0,8.339761478E0,1.146263598E0,8.477966404E0
6.314130708E0,8.072484666E-1,8.643621395E0,9.124802220E-1,8.729058430E0
6.324160708E0,6.887411928E-1,8.954617839E0,6.979892222E-1,9.008148202E0
6.334190708E0,6.113910082E-1,9.145171580E0,5.587097148E-1,9.182598692E0
6.344219708E0,6.312734418E-1,9.254553105E0,5.482197368E-1,9.292244304E0
6.354249708E0,1.028761315E0,9.357224364E0,7.282110679E-1,9.441731250E0
6.364279708E0,1.832762384E0,9.434935030E0,1.078980784E0,9.671670823E0
6.374309708E0,2.998976682E0,9.335552829E0,1.510345159E0,9.921065984E0
6.384338708E0,4.618120982E0,8.675132040E0,1.107374936E0,9.889956348E0
6.394368708E0,5.761966172E0,6.557344791E0,1.782442013E-1,8.731024903E0
6.404398708E0,4.328800167E0,4.599405799E0,7.047122777E-1,6.355286302E0
6.414428708E0,3.346845083E0,4.588131782E0,2.059342575E0,6.040961604E0
6.424457708E0,3.074087675E0,1.301342282E0,2.935159585E0,4.445072391E0
6.434487708E0,2.494739994E0,-9.041557165E0,3.666890677E0,1.007072842E1
6.444517708E0,3.750132955E-1,-2.489716826E1,5.960867398E0,2.560354590E1
6.454547708E0,-2.939047107E0,-4.676575012E1,8.712549543E0,4.766111520E1
6.464576708E0,-6.537460749E0,-6.978579376E1,1.101503396E1,7.095157769E1
6.474606708E0,-8.957399944E0,-8.281416206E1,1.327010623E1,8.434759138E1
6.484636708E0,-9.897650932E0,-6.883328701E1,9.063038666E0,7.012933455E1
6.494666708E0,-8.622073821E0,-3.949252019E1,-2.040904696E0,4.047424614E1
6.504695708E0,-7.504031224E0,-2.002384380E1,-2.309048855E1,3.147118470E1
6.514725708E0,-2.251981141E0,-1.237392571E1,-2.293873225E1,2.616048344E1
6.524755708E0,-1.480548040E0,-9.796847273E0,-1.360257424E1,1.682855505E1
6.534785708E0,-2.489530417E0,-9.327177862E0,-6.705852374E0,1.175425304E1
6.544814708E0,-1.553945507E0,-9.364564959E0,-3.134821535E0,9.996845981E0
6.554844708E0,-1.114899791E0,-7.231194295E0,-1.498993959E0,7.468611341E0
6.564874708E0,-8.798182601E-1,-4.974779502E0,-1.784546097E-1,5.055131780E0
6.574904208E0,-2.765673070E-1,-3.520316184E0,2.608630744E-1,3.540785937E0
6.584933208E0,7.245670831E-1,-1.606457012E0,3.228090252E-1,1.791621404E0
6.594963208E0,1.781266248E0,8.183113986E-1,5.462545242E-1,2.034929236E0
6.604993208E0,2.931803284E0,3.329516859E0,9.316848171E-1,4.533121398E0
6.615023208E0,4.244474254E0,5.690116171E0,1.615528382E0,7.280310136E0
6.625052208E0,5.500838876E0,7.733537362E0,2.267841421E0,9.757557747E0
6.635082208E0,6.014118576E0,9.266971421E0,2.494955463E0,1.132568693E1
6.645112208E0,6.454347256E0,1.047772162E1,2.871517321E0,1.263672666E1
6.655142208E0,7.474833738E0,1.126413587E1,3.562266448E0,1.398011583E1
6.665172208E0,8.915142701E0,1.216377795E1,4.163083059E0,1.564507986E1
6.675201208E0,1.042507446E1,1.344093264E1,5.429083600E0,1.785541365E1
6.685231208E0,1.099244617E1,1.438325705E1,5.405955523E0,1.889275817E1
6.695261208E0,1.016919797E1,1.478408368E1,4.377790478E0,1.847015883E1
6.705291208E0,9.014130800E0,1.440623427E1,3.559646895E0,1.736275398E1
6.715320208E0,8.065438187E0,1.390401926E1,3.014640788E0,1.635423810E1
6.725350208E0,7.103363636E0,1.356906034E1,2.675115194E0,1.554777845E1
6.735380208E0,6.148652483E0,1.335626613E1,2.539724085E0,1.492132603E1
6.745410208E0,5.229843235E0,1.326979633E1,2.778422923E0,1.453128999E1
6.755439208E0,4.406350034E0,1.304115734E1,2.482752324E0,1.398755748E1
6.765469208E0,3.953391380E0,1.214211986E1,1.268784108E0,1.283238837E1
6.775499208E0,3.920107275E0,1.058406142E1,1.215719457E-1,1.128735474E1
6.785529208E0,3.979783958E0,9.345409480E0,-6.397976589E-1,1.017765689E1
6.795558208E0,3.825483246E0,8.622684855E0,-1.169979905E0,9.505465225E0
6.805588208E0,3.553170519E0,8.367685441E0,-1.260414112E0,9.177789718E0
6.815618208E0,3.336166897E0,8.309965822E0,-1.053946588E0,9.016448576E0
6.825648208E0,3.106632693E0,8.314533082E0,-5.996191744E-1,8.896188521E0
6.835677208E0,2.819589076E0,8.288087879E0,-1.502851367E-1,8.755859117E0
6.845707208E0,2.317575791E0,8.211609807E0,1.194282833E-1,8.533226605E0
6.855737208E0,1.718886397E0,8.444552354E0,-3.718595266E-2,8.617796568E0
6.865767208E0,1.148236156E0,8.986068258E0,-4.297843838E-1,9.069321012E0
6.875796208E0,7.178584264E-1,9.499386549E0,-4.986914814E-1,9.539515644E0
6.885826208E0,6.448275800E-1,9.769686956E0,8.053260483E-2,9.791275266E0
6.895856208E0,7.639805326E-1,9.921725088E0,6.864572704E-1,9.974744035E0
6.905886208E0,8.170626526E-1,1.007824570E1,1.075853766E0,1.016838675E1
6.915915208E0,7.617631953E-1,1.023041130E1,1.430916581E0,1.035804618E1
6.925945208E0,5.846688672E-1,1.028234510E1,1.930929241E0,1.047840380E1
6.935975208E0,5.583322770E-1,1.021118682E1,2.692926983E0,1.057506156E1
6.946005208E0,5.542664887E-1,9.279832957E0,3.437601471E0,9.911589929E0
6.956035208E0,-4.511377941E-1,6.575388713E0,4.127150749E0,7.776415328E0
6.966064208E0,-9.139303315E-1,5.230108114E0,3.399109250E0,6.304224237E0
6.976094208E0,-5.839363938E-1,6.384957179E0,2.471433284E0,6.871436703E0
6.986124208E0,-7.734644971E-1,5.696179149E0,3.720445325E0,6.847365745E0
6.996154208E0,-1.759540918E0,-3.986490129E0,4.621984237E0,6.352230009E0
7.006183208E0,-3.334826131E0,-2.870904533E1,3.345617752E0,2.909507702E1
7.016213208E0,-4.127062456E0,-7.192384453E1,7.633278079E0,7.244542077E1
7.026243208E0,-2.762635149E0,-1.146439342E2,2.021494484E1,1.164452996E2
7.036272208E0,4.879949651E0,-1.058828405E2,1.434530979E1,1.069615713E2
7.046302208E0,3.283909746E0,-5.113649237E1,-6.516687931E0,5.165454613E1
7.056332208E0,-4.670095713E0,-1.852724778E1,-4.636704018E1,5.014948773E1
7.066362208E0,-5.990718019E0,-8.177809392E0,-4.353767544E1,4.470228687E1
7.076392208E0,-1.831077362E0,-8.684228554E0,-5.011960777E0,1.019256693E1
7.086421208E0,-2.135439884E-1,-8.993716416E0,1.101626941E-1,8.996925687E0
7.096451208E0,-8.533957889E-1,-6.072985420E0,2.398146622E0,6.584872322E0
7.106481208E0,-1.853580810E0,-3.647649245E0,4.808287053E0,6.313535556E0
7.116511208E0,-2.242968828E0,-2.042255257E0,4.526162406E0,5.448656883E0
7.126540208E0,-1.792005244E0,-5.995044959E-1,3.852257938E0,4.290755139E0
7.136570208E0,-7.346120880E-1,9.495539081E-1,2.746377550E0,2.997314997E0
7.146600208E0,6.803000061E-1,2.692535219E0,1.989180665E0,3.416049432E0
7.156630208E0,1.729486668E0,4.590287066E0,1.684578736E0,5.186488697E0
7.166659208E0,2.211801999E0,6.316663454E0,1.598151042E0,6.880871458E0
7.176689208E0,2.818687143E0,7.640048570E0,1.290646555E0,8.245065669E0
7.186719208E0,4.023307707E0,9.047050039E0,1.259683210E0,9.981128248E0
7.196749208E0,4.807405585E0,1.021390227E1,1.641532120E0,1.140743511E1
7.206778208E0,5.266207069E0,1.073305316E1,1.583666904E0,1.205982454E1
7.216808208E0,5.907422678E0,1.086386707E1,1.439074616E0,1.244958578E1
7.226838208E0,7.075066035E0,1.126764187E1,1.682052155E0,1.341065293E1
7.236868208E0,8.688740265E0,1.204092093E1,2.346294683E0,1.503273372E1
7.246897208E0,9.659847010E0,1.265240637E1,2.759722066E0,1.615586882E1
7.256927208E0,9.673240643E0,1.290147320E1,2.636366866E0,1.633921741E1
7.266957208E0,9.198789963E0,1.294963438E1,2.285421660E0,1.604786339E1
7.276987208E0,8.882430453E0,1.295180019E1,1.972849392E0,1.582841854E1
7.287016208E0,8.577206966E0,1.279467498E1,1.752122848E0,1.550297138E1
7.297046208E0,8.050349447E0,1.238046290E1,1.490815458E0,1.484272611E1
7.307076208E0,7.460741363E0,1.180444082E1,1.151775111E0,1.401192602E1
7.317106208E0,6.506070557E0,1.111047339E1,8.314950427E-1,1.290205243E1
7.327136208E0,5.246880267E0,1.072556638E1,4.495000986E-1,1.194862239E1
7.337165208E0,3.941998958E0,1.058892748E1,8.585817575E-2,1.129920849E1
7.347195208E0,2.844124577E0,1.051871528E1,-4.401140749E-1,1.090532513E1
7.357225208E0,1.882288008E0,1.045387317E1,-1.289415132E0,1.069995625E1
7.367255208E0,1.135479871E0,1.021183703E1,-2.161160141E0,1.049959729E1
7.377284208E0,6.478143378E-1,9.939680718E0,-2.596637374E0,1.029366027E1
7.387314208E0,4.110857190E-1,9.698920444E0,-2.456680759E0,1.001365715E1
7.397344208E0,3.666077037E-1,9.514302796E0,-1.862246969E0,9.701769049E0
7.407374208E0,4.453631204E-1,9.463983412E0,-9.495001137E-1,9.521915816E0
7.417403208E0,5.613196926E-1,9.497050002E0,9.091177806E-3,9.513628182E0
7.427433208E0,6.246118551E-1,9.510047777E0,8.087797062E-1,9.564793427E0
7.437463208E0,5.858850150E-1,9.493033549E0,1.442813180E0,9.619909412E0
7.447493208E0,4.440821417E-1,9.420856104E0,1.772792609E0,9.596485415E0
7.457522208E0,1.412158129E-1,9.226527985E0,1.619986299E0,9.368730766E0
7.467552208E0,8.816431761E-3,8.913155233E0,1.211718646E0,8.995147359E0
7.477582208E0,9.877892898E-1,8.706885930E0,8.395714362E-1,8.802867173E0
7.487612208E0,2.658289247E0,8.444811970E0,-2.971203431E-1,8.858308610E0
7.497641208E0,4.702913210E0,7.888599089E0,-1.184269331E0,9.260123223E0
7.507671208E0,6.815030415E0,6.683208447E0,-1.299676995E0,9.633227652E0
7.517701208E0,6.154819542E0,5.613553314E0,2.995672420E0,8.852561078E0
7.527731208E0,4.773166629E0,4.514063932E0,5.690790939E0,8.691662348E0
7.537760208E0,3.726631095E0,2.988208449E0,6.433542863E0,8.012967167E0
7.547790208E0,2.445903171E0,-3.139533806E0,7.919515657E0,8.863286247E0
7.557820208E0,1.769489079E0,-2.517960281E1,6.805262641E0,2.614297399E1
7.567850208E0,-1.048977917E0,-6.035879106E1,1.005562048E1,6.119966925E1
7.577879458E0,-5.871904351E0,-9.257906834E1,1.408080982E1,9.382767374E1
7.587909458E0,-1.132976385E1,-9.579919081E1,1.078648034E1,9.706800022E1
7.597939458E0,-8.812670247E0,-5.877559427E1,9.696983846E0,6.021847835E1
7.607969458E0,-1.040918641E1,-2.672799931E1,-1.092950323E1,3.069513234E1
7.617998458E0,-1.005041529E1,-1.247861309E1,-2.559769042E1,3.019881433E1
7.628028458E0,-6.016621184E0,-3.421314052E0,-2.381430134E1,2.479971913E1
7.638058458E0,-7.085909697E0,-3.797581794E0,-1.434287267E1,1.644231554E1
7.648088458E0,-6.109329958E0,-6.938197335E0,-5.578419149E0,1.079727998E1
7.658117458E0,-4.994201614E0,-6.733534262E0,-2.917142560E0,8.876500106E0
7.668147458E0,-4.240706601E0,-4.984142064E0,-2.075462764E0,6.865333952E0
7.678177458E0,-3.450828457E0,-3.273873585E0,-1.956439766E0,5.143357061E0
7.688207458E0,-2.754614231E0,-1.419136196E0,-1.512510967E0,3.448120724E0
7.698237458E0,-1.403123011E0,3.957933497E-1,-2.324391013E-1,1.476290790E0
7.708266458E0,8.884765247E-1,2.511456306E0,9.543428508E-1,2.829765642E0
7.718296458E0,3.167130032E0,4.581344334E0,1.668842710E0,5.814160691E0
7.728326458E0,5.313592320E0,6.484344057E0,2.577004763E0,8.770515079E0
7.738356458E0,7.978015881E0,8.205581328E0,3.900526119E0,1.209108789E1
7.748385458E0,1.010093874E1,9.447136415E0,4.713014860E0,1.461129217E1
7.758415458E0,1.094317870E1,1.025936554E1,4.370910645E0,1.562410321E1
7.768445458E0,1.151843830E1,1.096372932E1,3.790040056E0,1.634754370E1
7.778475458E0,1.133911121E1,1.134901640E1,3.692315540E0,1.646234522E1
7.788504458E0,1.051113612E1,1.150652401E1,3.012941587E0,1.587330761E1
7.798534458E0,9.650099117E0,1.177938901E1,2.637070870E0,1.545420853E1
7.808564458E0,8.556739957E0,1.192181081E1,2.424220526E0,1.487360806E1
7.818594458E0,7.317439556E0,1.192575885E1,2.049251450E0,1.414100694E1
7.828623458E0,6.112626618E0,1.186183007E1,1.780835016E0,1.346248826E1
7.838653458E0,4.959546336E0,1.170568369E1,1.633108621E0,1.281745584E1
7.848683458E0,4.016114170E0,1.143861913E1,1.455790637E0,1.221026236E1
7.858713458E0,3.291564044E0,1.120670452E1,1.216223195E0,1.174324567E1
7.868742458E0,2.764646006E0,1.104613998E1,1.006698747E0,1.143126932E1
7.878772458E0,2.424362760E0,1.093087850E1,8.256082852E-1,1.122689933E1
7.888802458E0,2.035966576E0,1.093678418E1,5.045247002E-1,1.113611033E1
7.898832458E0,1.345740775E0,1.119673502E1,-6.371558869E-1,1.129530261E1
7.908861458E0,5.170032066E-1,1.141048584E1,-2.061708359E0,1.160677047E1
7.918891458E0,2.462430619E-1,1.107689283E1,-2.364376613E0,1.132909825E1
7.928921458E0,3.711850503E-1,1.056223026E1,-2.402730839E0,1.083843171E1
7.938951458E0,5.510822412E-1,1.018465567E1,-2.261793061E0,1.044732552E1
7.948980458E0,7.794958270E-1,9.973747766E0,-1.485410146E0,1.011383713E1
7.959010458E0,1.063180511E0,9.946869285E0,-2.802677174E-1,1.000745279E1
7.969040458E0,1.323933731E0,9.996492265E0,1.007541915E0,1.013399225E1
7.979070458E0,1.497464912E0,1.001320478E1,2.059068925E0,1.033181668E1
7.989100458E0,1.604528454E0,9.943253367E0,2.695493910E0,1.042633620E1
7.999129458E0,1.574807788E0,9.793392738E0,3.047407415E0,1.037676505E1
8.009159458E0,1.447330446E0,9.606627408E0,3.203809909E0,1.022968492E1
8.019189458E0,1.224224524E0,9.444771216E0,3.330992696E0,1.008949659E1
8.029219458E0,1.016146751E0,9.451591408E0,3.371368890E0,1.008619168E1
8.039248458E0,1.286032810E0,9.361734906E0,3.338423338E0,1.002202730E1
8.049278458E0,1.643733304E0,8.684721474E0,2.955561690E0,9.319956607E0
8.059308458E0,1.830609147E0,6.677505657E0,1.911679476E0,7.182947171E0
8.069338458E0,1.978606414E0,1.612331709E0,-1.814981586E0,3.131877239E0
8.079367458E0,2.140904509E0,2.007645587E0,8.880762827E-1,3.066397301E0
8.089397458E0,1.787099430E0,2.182106037E0,5.703218611E0,6.362547734E0
8.099427458E0,-9.636512527E-1,-1.616876750E1,4.728684229E0,1.687359241E1
8.109457458E0,-5.106899679E0,-4.744928028E1,5.208824834E0,4.800673369E1
8.119486458E0,-1.237841286E1,-8.827814652E1,1.194036052E1,8.993791452E1
8.129516458E0,-1.752956193E1,-1.136850938E2,1.488474116E1,1.159876787E2
8.139546458E0,-1.799519676E1,-8.478509474E1,-5.036583987E0,8.681996645E1
8.149576458E0,-1.206631188E1,-3.378313511E1,-2.469739931E1,4.355292909E1
8.159605458E0,-5.650700090E0,-1.406749688E1,-1.835732068E1,2.380790000E1
8.169635458E0,-4.659650831E0,-8.755075758E0,-1.082309326E1,1.468002197E1
8.179665458E0,-2.719192091E0,-5.262660733E0,-6.763751503E0,8.990992048E0
8.189695458E0,-7.237452570E-1,-2.934520485E0,-4.058598577E0,5.060379441E0
8.199724458E0,1.051160975E0,-8.232552195E-1,-1.963880932E0,2.374766697E0
8.209754458E0,2.774471667E0,5.117407125E-1,-1.067701578E-3,2.821271474E0
8.219784458E0,4.020396086E0,1.437628015E0,9.381892598E-1,4.371562431E0
8.229814458E0,4.725271501E0,2.555087060E0,1.303349047E0,5.527692048E0
8.239843458E0,5.670028646E0,4.167987703E0,1.586608053E0,7.213783436E0
8.249873458E0,7.047454898E0,5.997598438E0,2.028465768E0,9.473778599E0
8.259903458E0,8.272499202E0,7.764222381E0,2.906871926E0,1.171184429E1
8.269933458E0,9.526572593E0,9.564618672E0,4.317968785E0,1.417329779E1
8.279962458E0,1.011417684E1,1.068704493E1,4.020237919E0,1.525358369E1
8.289992458E0,9.965215509E0,1.117734682E1,2.290594692E0,1.514877639E1
8.300022458E0,9.902525171E0,1.154832342E1,1.346496820E0,1.527209325E1
8.310052458E0,1.002048339E1,1.206746027E1,8.580572623E-1,1.570891298E1
8.320081458E0,9.824611022E0,1.274113436E1,4.359648907E-1,1.609501637E1
8.330111458E0,9.041968224E0,1.311654081E1,-2.826657336E-2,1.593115285E1
8.340141458E0,8.006678932E0,1.343740092E1,-8.568632609E-1,1.566540346E1
8.350171458E0,6.606643835E0,1.343277110E1,-1.511117576E0,1.504561592E1
8.360201458E0,5.562821701E0,1.310994632E1,-1.655899313E0,1.433728288E1
8.370230458E0,4.811377014E0,1.262825620E1,-1.422711768E0,1.358846247E1
8.380260458E0,4.170485049E0,1.206295324E1,-9.687830615E-1,1.280024715E1
8.390290458E0,3.663681433E0,1.148506473E1,-4.050857449E-1,1.206206317E1
8.400320458E0,3.215964223E0,1.098430334E1,1.089149896E-1,1.144592539E1
8.410349458E0,2.714251193E0,1.054289235E1,5.502965947E-1,1.090057636E1
8.420379458E0,2.248743830E0,1.011808511E1,8.973101326E-1,1.040373302E1
8.430409458E0,1.829403743E0,9.660324728E0,8.364161325E-1,9.867531801E0
8.440439458E0,1.594507203E0,9.181633063E0,5.842994694E-1,9.337357485E0
8.450468458E0,1.579006381E0,8.848115484E0,3.542290020E-1,8.994881152E0
8.460498458E0,1.702044516E0,8.716475948E0,1.819196697E-1,8.882961401E0
8.470528458E0,1.946599633E0,8.735361870E0,1.048650619E-1,8.950239874E0
8.480558458E0,2.233836208E0,8.847509712E0,1.595225680E-1,9.126549170E0
8.490587458E0,2.483018957E0,8.955273896E0,3.799965119E-1,9.300898400E0
8.500617458E0,2.722768832E0,9.031707530E0,8.033570715E-1,9.467343535E0
8.510647458E0,2.883615795E0,9.181613767E0,1.347147031E0,9.717616814E0
8.520677458E0,2.964544768E0,9.292793895E0,1.767303389E0,9.913016964E0
8.530706458E0,2.977270648E0,9.305512758E0,2.102958126E0,9.993955227E0
8.540736458E0,2.835742594E0,9.278299817E0,2.289891272E0,9.968544808E0
8.550766458E0,2.435030712E0,9.245292284E0,2.325411937E0,9.839326434E0
8.560796458E0,1.846660923E0,9.356242032E0,2.251100843E0,9.798820160E0
8.570825458E0,1.744836194E0,9.613960401E0,2.104003608E0,9.994974693E0
8.580855458E0,2.126070123E0,9.487421976E0,1.606458181E0,9.854545033E0
8.590885458E0,2.540470190E0,7.531448818E0,3.972306319E-1,7.958297699E0
8.600915458E0,2.370795394E0,3.494525285E0,-2.554425155E0,4.935328321E0
8.610945458E0,1.168054709E0,6.645945311E-1,-2.651955543E0,2.973029750E0
8.620974458E0,1.701778614E0,1.369954095E0,4.343087254E0,4.861607920E0
8.631004458E0,1.674849554E0,-1.085861510E1,3.405145916E0,1.150259369E1
8.641034458E0,-6.413509718E-1,-3.125424474E1,4.273545733E0,3.155158219E1
8.651063458E0,-3.219005068E0,-6.040791703E1,8.070639870E0,6.102961299E1
8.661093458E0,-5.935541938E0,-8.892395980E1,1.163767589E1,8.987845562E1
8.671123458E0,-8.091594536E0,-8.842414916E1,5.100827930E0,8.893999383E1
8.681153458E0,-8.615952955E0,-5.233292624E1,-7.565857344E0,5.357435965E1
8.691182458E0,-6.025428261E0,-2.452034562E1,-1.690946237E1,3.038886396E1
8.701212458E0,-5.267226312E-1,-1.412019550E1,-1.271685321E1,1.900988462E1
8.711242458E0,5.346243026E-1,-8.910821609E0,-1.212146750E1,1.505385463E1
8.721272458E0,9.860175835E-1,-8.907714399E0,-9.698742689E0,1.320549947E1
8.731302458E0,8.655706421E-1,-1.049695194E1,-5.672425420E0,1.196292702E1
8.741331458E0,-7.029310696E-2,-1.047664340E1,-2.227515514E0,1.071106079E1
8.751361458E0,-5.387832809E-1,-8.869157858E0,2.109582217E-1,8.888011696E0
8.761391458E0,-6.840027554E-1,-6.438035864E0,1.434779837E0,6.631346675E0
8.771421458E0,-6.599918953E-1,-3.194328648E0,2.117438756E0,3.888813662E0
8.781450458E0,-1.400386222E-1,3.147287214E-1,2.494412842E0,2.518086656E0
8.791480458E0,8.088222447E-1,3.639005306E0,2.714470464E0,4.611388396E0
8.801510458E0,1.887506502E0,6.543626053E0,2.900454022E0,7.402321004E0
8.811540458E0,3.095804819E0,8.687247471E0,3.106659590E0,9.731577976E0
8.821569458E0,4.567304585E0,1.011413006E1,3.589432611E0,1.166361541E1
8.831599458E0,5.586421648E0,1.081107022E1,3.467495946E0,1.265349257E1
8.841629458E0,6.677564714E0,1.124668194E1,3.679333552E0,1.358731837E1
8.851659458E0,8.706221101E0,1.246167955E1,4.654228123E0,1.589822577E1
8.861688458E0,1.059384499E1,1.381391483E1,5.089595429E0,1.813719317E1
8.871718458E0,1.096885733E1,1.491172840E1,4.385041026E0,1.902377617E1
8.881748458E0,1.056228990E1,1.574142959E1,3.537965419E0,1.928397710E1
8.891778458E0,9.635148371E0,1.564687193E1,2.700922465E0,1.857298219E1
8.901807458E0,8.445054629E0,1.543893909E1,1.835907601E0,1.769322878E1
8.911837458E0,7.197492113E0,1.538656090E1,1.297664384E0,1.703625786E1
8.921867458E0,6.055077152E0,1.516215529E1,7.933198142E-1,1.634577220E1
8.931897458E0,4.941256830E0,1.453775452E1,2.771323673E-1,1.535705466E1
8.941926458E0,3.807760627E0,1.340709948E1,-9.395766579E-2,1.393765352E1
8.951956458E0,3.018768337E0,1.193253811E1,-3.966645849E-1,1.231485976E1
8.961986458E0,2.528451238E0,1.074969667E1,-6.522895774E-1,1.106230202E1
8.972016458E0,2.060307804E0,1.000878077E1,-8.397643212E-1,1.025308563E1
8.982045458E0,1.700617941E0,9.542799786E0,-7.755022518E-1,9.724121188E0
8.992075458E0,1.421345274E0,9.274810783E0,-5.921159542E-1,9.401751898E0
9.002105458E0,1.269900780E0,9.172889721E0,-4.121504239E-1,9.269542697E0
9.012135458E0,1.175814110E0,9.143843678E0,-2.045544608E-1,9.221402201E0
9.022165458E0,1.097662126E0,9.129066010E0,9.445928380E-2,9.195304829E0
9.032194458E0,1.003103294E0,9.141790136E0,3.466229439E-1,9.203189152E0
9.042224458E0,8.373588498E-1,9.120747761E0,5.650094318E-1,9.176515963E0
9.052254458E0,6.763024110E-1,9.081389567E0,7.659853236E-1,9.138695473E0
9.062284458E0,6.606486838E-1,9.136375029E0,9.463344312E-1,9.208982257E0
9.072313458E0,6.752200913E-1,9.132347467E0,1.145964075E0,9.228701214E0
9.082343458E0,6.742109350E-1,9.095590115E0,1.404308242E0,9.228022625E0
9.092373458E0,7.578823252E-1,9.018536092E0,1.690623149E0,9.206877076E0
9.102403458E0,1.012175322E0,8.925889299E0,2.009420217E0,9.205094691E0
9.112432458E0,1.330126371E0,8.930495735E0,2.253134505E0,9.305890894E0
9.122462458E0,1.842492151E0,8.672080963E0,2.302767864E0,9.159831079E0
9.132492458E0,2.766063079E0,7.488884597E0,1.791045424E0,8.181829940E0
9.142522458E0,4.489420842E0,4.171177944E0,-6.683753407E-1,6.164442435E0
9.152551458E0,4.473295975E0,2.481032658E0,-2.950493324E-1,5.123763660E0
9.162581458E0,3.633745735E0,4.078306618E0,2.436988506E0,5.981271263E0
9.172611458E0,3.141154654E0,2.487141829E0,3.826476395E0,5.540275141E0
9.182641458E0,1.214870514E0,-7.053492149E0,5.253891664E0,8.878684557E0
9.192670458E0,6.990651099E-1,-2.590661520E1,4.598977783E0,2.632094223E1
9.202700458E0,1.178677273E0,-5.075782668E1,8.581633308E0,5.149165641E1
9.212730458E0,6.677762935E-1,-7.487085526E1,1.300444033E1,7.599477851E1
9.222760458E0,2.774587881E-2,-8.504757391E1,1.633830518E1,8.660271828E1
9.232789458E0,-2.677101493E0,-6.469218597E1,4.296444014E0,6.488994706E1
9.242819458E0,-7.452810785E0,-3.321029041E1,-2.386087559E1,4.156692389E1
9.252849458E0,-3.329618601E0,-1.824918461E1,-3.109258093E1,3.620590681E1
9.262879458E0,-3.982081913E0,-1.203454747E1,-2.096519874E1,2.449952790E1
9.272908458E0,-6.612422054E0,-1.270678899E1,-7.772310249E0,1.629709847E1
9.282938458E0,-4.140644076E0,-1.459656816E1,-1.573626065E-1,1.517331534E1
9.292968458E0,-2.953624508E0,-1.329892365E1,1.998894644E0,1.376883611E1
9.302998458E0,-1.890177656E0,-1.021034014E1,3.719930770E0,1.103003637E1
9.313027458E0,-9.887627050E-1,-6.987766521E0,3.988060691E0,8.106242084E0
9.323057458E0,-3.782191046E-1,-3.876580017E0,3.693143506E0,5.367516304E0
9.333087458E0,2.475136618E-1,-4.432873589E-1,3.368003232E0,3.406055265E0
9.343117458E0,1.099080953E0,2.642788278E0,2.668345288E0,3.913103040E0
9.353146458E0,2.185162669E0,5.199031917E0,2.135608978E0,6.030397538E0
9.363176458E0,3.502462295E0,7.352829829E0,1.893475778E0,8.361614625E0
9.373206458E0,4.781436346E0,9.142992323E0,2.121088003E0,1.053353960E1
9.383236458E0,6.112268769E0,1.038007078E1,2.439514503E0,1.229052196E1
9.393266458E0,7.728672479E0,1.111969211E1,2.911865448E0,1.385131370E1
9.403295458E0,9.135947013E0,1.179763583E1,2.996901505E0,1.521943355E1
9.413325458E0,9.834911478E0,1.235333766E1,3.027026360E0,1.607772757E1
9.423355458E0,9.937380424E0,1.274330251E1,2.601877649E0,1.636804985E1
9.433385458E0,9.416571264E0,1.298965857E1,2.189030310E0,1.619243335E1
9.443414458E0,8.670136764E0,1.322941897E1,1.514028904E0,1.588965328E1
9.453444458E0,7.983822750E0,1.390533137E1,6.747546530E-1,1.604851894E1
9.463474458E0,7.069834532E0,1.441874497E1,-4.115000673E-1,1.606400010E1
9.473504458E0,6.113068668E0,1.458404576E1,-1.261618638E0,1.586365912E1
9.483533458E0,5.128855973E0,1.462815481E1,-2.051723653E0,1.563642052E1
9.493563458E0,4.222637827E0,1.430051427E1,-2.440579866E0,1.510932853E1
9.503593458E0,3.339460926E0,1.346586985E1,-2.171064301E0,1.404261978E1
9.513623458E0,2.489566377E0,1.247413412E1,-1.780898312E0,1.284420343E1
9.523652458E0,1.805004774E0,1.151659877E1,-1.365071086E0,1.173684406E1
9.533682458E0,1.518262581E0,1.067248536E1,-8.611332632E-1,1.081427832E1
9.543712458E0,1.566704716E0,9.928291512E0,-1.659952895E-1,1.005251662E1
9.553742458E0,1.899673534E0,9.279082174E0,7.531237149E-1,9.501437831E0
9.563771458E0,2.378935303E0,8.903911369E0,1.873353170E0,9.404702172E0
9.573801458E0,2.662255121E0,8.912478710E0,2.795910484E0,9.712723331E0
9.583831333E0,2.784118404E0,8.805009225E0,3.170546268E0,9.763803889E0
9.593861333E0,2.992917797E0,8.570202001E0,3.155451389E0,9.610556318E0
9.603890333E0,3.115742362E0,8.457641931E0,2.962715174E0,9.487741496E0
9.613920333E0,3.153010761E0,8.524181491E0,2.724539369E0,9.488216994E0
9.623950333E0,3.175487165E0,8.642564219E0,2.473300885E0,9.533879183E0
9.633980333E0,3.193910573E0,8.715331648E0,2.254464015E0,9.551998664E0
9.644009333E0,3.258377587E0,8.735464196E0,2.123769682E0,9.562204604E0
9.654039333E0,3.509265823E0,8.726878729E0,2.150178924E0,9.648659408E0
9.664069333E0,3.872794529E0,8.780886537E0,2.365895573E0,9.884329401E0
9.674099333E0,4.217809489E0,8.840845640E0,2.678784907E0,1.015511482E1
9.684129333E0,4.600280835E0,8.878436220E0,2.884188237E0,1.040710119E1
9.694158333E0,5.191064501E0,8.907654172E0,3.038447142E0,1.074828426E1
9.704188333E0,6.772705929E0,7.886332709E0,1.829184619E0,1.055507961E1
9.714218333E0,8.358871933E0,4.300120744E0,-1.173893885E0,9.473109588E0
9.724248333E0,5.230506309E0,3.117197442E-1,-3.454252002E0,6.275924023E0
9.734277333E0,4.242776515E0,-2.318318680E0,-2.000436555E0,5.232351333E0
9.744307333E0,3.569753807E0,1.861137752E0,5.319670501E0,6.671272009E0
9.754337333E0,1.322702746E0,-7.279444349E-1,6.405851619E0,6.581366167E0
9.764367333E0,-4.049133689E0,-1.797172838E1,5.250434790E0,1.915582340E1
9.774396333E0,-1.119094745E1,-4.859862770E1,3.588093599E0,4.999938334E1
9.784426333E0,-2.098412968E1,-8.629202044E1,6.560370140E0,8.904877847E1
9.794456333E0,-2.716048978E1,-1.074938186E2,7.961484048E0,1.111575390E2
9.804486333E0,-2.232168026E1,-8.771384811E1,4.213256262E0,9.060754985E1
9.814515333E0,-1.719137418E1,-4.017692509E1,-2.679917396E1,5.126328492E1
9.824545333E0,-6.641480961E0,-1.446038650E1,-3.526201991E1,3.868620032E1
9.834575333E0,-1.269265042E0,-6.520188074E0,-1.254587829E1,1.419587786E1
9.844605333E0,-3.038169399E0,-6.238306087E0,-2.598882705E0,7.409529502E0
9.854634333E0,-1.597980596E0,-3.120768337E0,-3.603750835E-1,3.524571917E0
9.864664333E0,3.278264844E-1,1.217261660E0,1.280189395E0,1.796686127E0
9.874694333E0,1.264902434E0,4.837659371E0,1.934799805E0,5.361564758E0
9.884724333E0,1.858358278E0,6.020500812E0,1.929137362E0,6.589498955E0
9.894753333E0,2.979779103E0,6.697137684E0,1.502011122E0,7.482431027E0
9.904783333E0,4.510903805E0,7.602575519E0,1.063198637E0,8.903808118E0
9.914813333E0,6.128463217E0,8.854644485E0,5.307400338E-1,1.078167312E1
9.924843333E0,7.819489678E0,1.019898251E1,9.099316400E-2,1.285192370E1
9.934872333E0,8.904817103E0,1.078990914E1,-2.622090304E-1,1.399237866E1
9.944902333E0,8.926344212E0,1.064417080E1,-4.004722917E-1,1.389742318E1
9.954932333E0,9.718585215E0,1.076208341E1,-3.968417555E-1,1.450623388E1
9.964962333E0,1.022906527E1,1.094950305E1,-1.297643334E-1,1.498473330E1
9.974991333E0,1.032900471E1,1.119098604E1,3.865179116E-1,1.523403764E1
9.985021333E0,1.066568622E1,1.156140949E1,9.453374809E-1,1.575806824E1
9.995051333E0,1.058650907E1,1.172925030E1,1.413223491E0,1.586337567E1
1.000508133E1,9.964140791E0,1.164460250E1,1.746841058E0,1.542505503E1
1.001511033E1,8.517268327E0,1.109533027E1,2.169488915E0,1.415474817E1
1.002514033E1,6.638315279E0,1.044693252E1,2.276319884E0,1.258520008E1
1.003517033E1,5.157245960E0,1.010326827E1,2.056130115E0,1.152826469E1
1.004520033E1,4.058793290E0,9.989135299E0,1.500135920E0,1.088609364E1
1.005522933E1,3.299582331E0,9.953935061E0,7.321006358E-1,1.051209009E1
1.006525933E1,2.917534323E0,9.926905721E0,2.697437525E-2,1.034679619E1
1.007528933E1,2.803164539E0,9.830237213E0,-4.891336226E-1,1.023379435E1
1.008531933E1,2.919056354E0,9.548596131E0,-8.769572175E-1,1.002325456E1
1.009534933E1,3.120341198E0,9.094475051E0,-1.109402751E0,9.678676568E0
1.010537833E1,3.249003623E0,8.706093632E0,-1.272386870E0,9.379288844E0
1.011540833E1,3.414906088E0,8.466191729E0,-1.554561803E0,9.260380575E0
1.012543833E1,3.661334653E0,8.552230584E0,-1.788745129E0,9.473416941E0
1.013546833E1,3.757908436E0,8.977865199E0,-1.733005961E0,9.885709332E0
1.014549733E1,3.469507973E0,9.621069446E0,-1.201295253E0,1.029784313E1
1.015552733E1,2.997087739E0,1.001924846E1,-5.484231468E-1,1.047227972E1
1.016555733E1,2.522286226E0,1.013706752E1,2.019195592E-1,1.044810208E1
1.017558733E1,2.094157774E0,1.015497169E1,9.112663400E-1,1.040861918E1
1.018561633E1,1.758693510E0,1.019101977E1,1.575065650E0,1.046091386E1
1.019564633E1,1.566686005E0,1.024112223E1,2.172285054E0,1.058555203E1
1.020567633E1,1.423855630E0,1.027097811E1,2.528435451E0,1.067301935E1
1.021570633E1,1.067475949E0,1.020623072E1,2.759386436E0,1.062642291E1
1.022573533E1,4.448554359E-1,1.007982327E1,2.534252261E0,1.040303649E1
1.023576533E1,-5.695878748E-2,9.321646396E0,1.251457347E0,9.405449555E0
1.024579533E1,-1.335060672E-1,7.906981566E0,9.375285244E-1,7.963487998E0
1.025582533E1,-4.331259944E-1,7.663996426E0,1.480869344E0,7.817762683E0
1.026585433E1,-7.314768840E-1,5.750953526E0,1.920480559E0,6.107108192E0
1.027588433E1,-1.723696682E-1,-4.173251367E-1,2.589386827E0,2.628458809E0
1.028591433E1,-4.646435101E-1,-1.664530973E1,2.939511083E0,1.690925649E1
1.029594433E1,-2.629784655E0,-4.827306876E1,6.683734696E0,4.880447976E1
1.030597333E1,-5.441435843E0,-8.989584188E1,1.637794345E1,9.153747126E1
1.031600333E1,-3.924933859E0,-1.099555712E2,1.764473688E1,1.114314564E2
1.032603333E1,-4.178120928E0,-7.302550674E1,-1.149060789E1,7.404198403E1
1.033606333E1,-6.691534882E0,-2.776610228E1,-4.318209924E1,5.177283814E1
1.034609233E1,-6.022295322E0,-1.286625776E1,-2.788693850E1,3.129680445E1
1.035612233E1,-6.461165110E0,-1.056469311E1,-7.470856462E0,1.446281754E1
1.036615233E1,-3.582369175E0,-1.045085367E1,-7.854488772E-1,1.107567791E1
1.037618233E1,-2.517415203E0,-8.402536016E0,1.060007227E0,8.835361121E0
1.038621133E1,-1.928294193E0,-5.348920612E0,3.306768851E0,6.577536807E0
1.039624133E1,-1.409199876E0,-3.243137112E0,4.356579119E0,5.611021675E0
1.040627133E1,-6.373863403E-1,-1.897696298E0,3.802036203E0,4.296858373E0
1.041630133E1,4.698350336E-1,5.322077215E-2,3.085566344E0,3.121585667E0
1.042633033E1,1.575268548E0,2.355040948E0,2.445500883E0,3.742748113E0
1.043636033E1,2.629560707E0,4.537300767E0,1.934765307E0,5.589723120E0
1.044639033E1,3.511208268E0,6.302274041E0,1.586158987E0,7.386686803E0
1.045642033E1,4.538079909E0,7.743588141E0,1.484976429E0,9.097388722E0
1.046645033E1,5.853097367E0,9.182916527E0,2.155593592E0,1.110095890E1
1.047647933E1,7.775953649E0,1.038208807E1,2.422352341E0,1.319549161E1
1.048650933E1,1.018212031E1,1.161072374E1,2.228763894E0,1.560294422E1
1.049653933E1,1.151686774E1,1.255465145E1,1.727827667E0,1.712433660E1
1.050656933E1,1.185155301E1,1.310549776E1,9.973437864E-1,1.769768558E1
1.051659833E1,1.140955496E1,1.339830293E1,9.015469154E-2,1.759831224E1
1.052662833E1,1.069794647E1,1.357612377E1,-3.770653027E-1,1.728870654E1
1.053665833E1,9.913616170E0,1.372566748E1,-8.426539421E-1,1.695239803E1
1.054668833E1,9.128066136E0,1.384752580E1,-1.296601360E0,1.663600725E1
1.055671733E1,8.290930796E0,1.392129193E1,-1.598315349E0,1.628178474E1
1.056674733E1,7.348491195E0,1.361319512E1,-1.588782048E0,1.555132254E1
1.057677733E1,6.091535711E0,1.267636125E1,-1.046177977E0,1.410288730E1
1.058680696E1,4.598422882E0,1.122991914E1,-2.183093047E-1,1.213689564E1
1.059683596E1,3.561491399E0,1.002079914E1,3.230597977E-1,1.063978402E1
1.060686596E1,2.958349350E0,9.343180522E0,6.678841015E-1,9.823081101E0
1.061689596E1,2.629246419E0,8.936418380E0,8.563329184E-1,9.354454354E0
1.062692596E1,2.469598136E0,8.649911245E0,7.643994125E-1,9.027966879E0
1.063695496E1,2.334248250E0,8.445802488E0,4.341136988E-1,8.773183531E0
1.064698496E1,2.222167650E0,8.456484182E0,2.265569486E-2,8.743607211E0
1.065701496E1,2.171393792E0,8.548917552E0,-3.750707444E-1,8.828341881E0
1.066704496E1,2.160156028E0,8.619195237E0,-6.669988330E-1,8.910762483E0
1.067707396E1,2.212416541E0,8.665181249E0,-6.821081845E-1,8.969137339E0
1.068710396E1,2.287410006E0,8.735576463E0,-3.028343153E-1,9.035167364E0
1.069713396E1,2.402723969E0,8.857200887E0,4.054775083E-1,9.186267035E0
1.070716396E1,2.538400860E0,9.037959373E0,1.143738697E0,9.457078130E0
1.071719296E1,2.670004143E0,9.195494472E0,1.709356313E0,9.726661283E0
1.072722296E1,2.810119218E0,9.338657116E0,2.091046178E0,9.973954124E0
1.073725296E1,2.882991312E0,9.458768865E0,2.364432746E0,1.016712789E1
1.074728296E1,2.971566981E0,9.502244083E0,2.644748265E0,1.030133711E1
1.075731196E1,3.217901698E0,9.493358654E0,2.942225361E0,1.044679089E1
1.076734196E1,3.702824741E0,9.206584886E0,3.284102705E0,1.045262871E1
1.077737196E1,3.803322591E0,8.180934729E0,3.524286443E0,9.685739554E0
1.078740196E1,3.409919583E0,6.591310097E0,3.718150878E0,8.300455789E0
1.079743196E1,4.108441998E0,3.252941723E0,4.567962981E0,6.951777564E0
1.080746096E1,4.285218237E0,-4.848069170E0,6.577917050E0,9.226909706E0
1.081749096E1,1.436200418E0,-1.965023712E1,5.132761914E0,2.036024890E1
1.082752096E1,-2.746845328E0,-4.713383001E1,4.712176369E0,4.744836875E1
1.083755096E1,-8.235137833E0,-8.258029215E1,9.022970036E0,8.347895624E1
1.084757996E1,-1.296705206E1,-1.002909283E2,7.326547179E0,1.013907936E2
1.085760996E1,-1.631806797E1,-7.280015973E1,-1.338786448E1,7.579826854E1
1.086763996E1,-1.046345325E1,-3.122030049E1,-2.597569420E1,4.193957207E1
1.087766996E1,-8.483821084E0,-1.515479131E1,-2.420777920E1,2.979361498E1
1.088769896E1,-6.794093875E0,-1.172602030E1,-1.219430042E1,1.823074947E1
1.089772896E1,-3.621430914E0,-1.255610624E1,-3.733555952E0,1.359080593E1
1.090775896E1,-2.788519603E0,-1.262503673E1,-1.243080041E0,1.298894306E1
1.091778896E1,-1.953487360E0,-1.098972254E1,1.069131807E0,1.121307973E1
1.092781796E1,-1.052763989E0,-8.725822138E0,2.293718859E0,9.083470163E0
1.093784796E1,-3.532963711E-1,-6.313529347E0,2.368763779E0,6.752519010E0
1.094787796E1,9.031387103E-1,-3.482737883E0,2.475129894E0,4.367080338E0
1.095790796E1,2.233279991E0,-3.504400063E-1,2.425437917E0,3.315583931E0
1.096793696E1,3.505672417E0,2.494567793E0,2.472310367E0,4.962350866E0
1.097796696E1,4.723921087E0,5.018424289E0,2.782398738E0,7.432479769E0
1.098799696E1,6.003447992E0,7.199713470E0,3.249303585E0,9.921453303E0
1.099802696E1,7.208780163E0,8.914756785E0,3.788726771E0,1.207451243E1
1.100805596E1,1.025672494E1,1.061045108E1,7.116454382E0,1.638371147E1
1.101808596E1,1.579971464E1,1.249715110E1,1.108421237E1,2.299281479E1
1.102811596E1,1.601653290E1,1.342147428E1,1.033240428E1,2.331145375E1
1.103814596E1,1.364500982E1,1.366860334E1,7.802414639E0,2.083013885E1
1.104817496E1,1.122575709E1,1.375895217E1,5.005206074E0,1.844934890E1
1.105820496E1,8.824988576E0,1.412614562E1,2.745361304E0,1.688091888E1
1.106823496E1,6.652704692E0,1.423409926E1,1.623474748E0,1.579568712E1
1.107826496E1,4.997639192E0,1.391056814E1,9.436564064E-1,1.481117115E1
1.108829396E1,3.790572737E0,1.346510503E1,5.624963351E-1,1.399978204E1
1.109832396E1,3.081015456E0,1.291571351E1,4.343230291E-1,1.328521540E1
1.110835396E1,2.704115045E0,1.234949020E1,3.376790428E-1,1.264658742E1
1.111838396E1,2.333256269E0,1.189625614E1,2.608746592E-1,1.212571856E1
1.112841296E1,1.622720019E0,1.177223436E1,-4.152949834E-1,1.189080283E1
1.113844296E1,7.937634717E-1,1.158499248E1,-1.479888182E0,1.170607450E1
1.114847296E1,6.284996688E-1,1.088147888E1,-2.066829350E0,1.109384415E1
1.115850296E1,6.712852076E-1,1.006131099E1,-2.734098397E0,1.044776994E1
1.116853296E1,5.681090409E-1,9.562037711E0,-3.493513716E0,1.019607528E1
1.117856196E1,4.763932706E-1,9.290529853E0,-3.932121549E0,1.009962749E1
1.118859196E1,5.354454710E-1,9.131567448E0,-3.585979246E0,9.825043159E0
1.119862196E1,7.488688423E-1,9.182116043E0,-2.366791513E0,9.511769637E0
1.120865196E1,9.114541818E-1,9.437756896E0,-9.070434809E-1,9.524953114E0
1.121868096E1,1.000945086E0,9.651227630E0,2.474319470E-1,9.706147969E0
1.122871096E1,1.104328976E0,9.700583977E0,1.017360560E0,9.816103835E0
1.123874096E1,1.274781305E0,9.640100963E0,1.468945702E0,9.834348755E0
1.124877096E1,1.455481026E0,9.582802927E0,1.731886804E0,9.846215967E0
1.125879996E1,1.599840449E0,9.477266532E0,1.879594488E0,9.793413390E0
1.126882996E1,1.730061596E0,9.342868865E0,2.009213372E0,9.711809828E0
1.127885996E1,1.815942283E0,9.177456397E0,2.128405355E0,9.594449523E0
1.128888996E1,1.959725609E0,9.106944823E0,2.108152792E0,9.550983021E0
1.129891896E1,2.143994909E0,9.207056172E0,2.112726485E0,9.686599544E0
1.130894896E1,2.697758537E0,9.095762023E0,2.334396623E0,9.770373355E0
1.131897896E1,4.634446408E0,7.504206056E0,2.217745986E0,9.094481805E0
1.132900896E1,5.963610327E0,3.816457776E0,1.351078699E0,7.208010248E0
1.133903796E1,6.975988474E0,1.127384108E-1,4.917555141E-1,6.994208220E0
1.134906796E1,6.420338096E0,1.229123906E0,2.024499017E0,6.843250917E0
1.135909796E1,4.550372510E0,-4.383227220E0,3.074270693E0,7.026358312E0
1.136912796E1,8.284601185E-1,-2.602423311E1,2.465099580E0,2.615384811E1
1.137915696E1,-4.035999674E0,-5.808234371E1,3.888397239E0,5.835210002E1
1.138918696E1,-1.185636410E1,-8.913789305E1,8.613016484E0,9.033449728E1
1.139921696E1,-1.604490359E1,-8.864993588E1,3.937612084E0,9.017624328E1
1.140924696E1,-1.531054242E1,-5.768543939E1,-3.033158335E0,5.975970780E1
1.141927596E1,-1.690656566E1,-2.729988974E1,-1.608549379E1,3.591460780E1
1.142930596E1,-7.641462427E0,-1.501620411E1,-1.187786782E1,2.061460836E1
1.143933596E1,-4.338809138E0,-9.346773636E0,-6.982809836E0,1.244777391E1
1.144936596E1,-6.202701806E0,-7.701827912E0,-5.788034229E0,1.145831589E1
1.145939496E1,-6.386827703E0,-5.833538430E0,-6.074855944E0,1.057003375E1
1.146942496E1,-5.029815835E0,-4.000683661E0,-4.696478350E0,7.959989069E0
1.147945496E1,-3.015719599E0,-2.612218450E0,-1.317627947E0,4.201713143E0
1.148948496E1,-1.548657577E0,-1.152283891E0,9.371256512E-1,2.145763954E0
1.149951396E1,4.277325958E-2,1.374996150E-1,1.775859035E0,1.781687686E0
1.150954396E1,1.808841717E0,1.908872082E0,2.018158296E0,3.314915367E0
1.151957396E1,3.230144598E0,4.099925528E0,1.810496187E0,5.524592284E0
1.152960396E1,4.519126744E0,6.175598207E0,1.689999690E0,7.836875570E0
1.153963396E1,6.317986679E0,7.963033560E0,1.942516376E0,1.034892405E1
1.154966296E1,8.181151661E0,9.211402407E0,2.277088793E0,1.252861964E1
1.155969296E1,1.015787659E1,1.010391380E1,2.627521198E0,1.456624174E1
1.156972296E1,1.284505108E1,1.101948603E1,2.934211167E0,1.717655393E1
1.157975350E1,1.429356544E1,1.138729344E1,2.831456292E0,1.849306923E1
1.158978250E1,1.420148583E1,1.147341825E1,1.827950710E0,1.834837676E1
1.159981250E1,1.323092053E1,1.166574370E1,1.100121465E0,1.767362728E1
1.160984250E1,1.202582810E1,1.218592720E1,8.028028286E-1,1.713948236E1
1.161987250E1,1.006741431E1,1.244590026E1,4.347849226E-1,1.601381598E1
1.162990150E1,7.857403609E0,1.235672203E1,-8.522437412E-2,1.464358679E1
1.163993150E1,6.058943331E0,1.243514138E1,-1.681466446E-1,1.383371999E1
1.164996150E1,4.650360775E0,1.238619668E1,-1.019812882E-2,1.323041297E1
1.165999150E1,3.604676595E0,1.210455501E1,2.946703871E-2,1.262991741E1
1.167002050E1,2.909366640E0,1.164428792E1,1.527187479E-1,1.200321534E1
1.168005050E1,2.500577269E0,1.103113486E1,2.927127850E-1,1.131479137E1
1.169008050E1,2.304020922E0,1.046407422E1,4.963548974E-1,1.072621694E1
1.170011050E1,2.240904614E0,9.977995183E0,6.757381546E-1,1.024883717E1
1.171013950E1,2.126797517E0,9.588421517E0,8.490636599E-1,9.858093323E0
1.172016950E1,1.995696510E0,9.416413974E0,9.771036494E-1,9.675039444E0
1.173019950E1,1.826063814E0,9.332233949E0,1.089958347E0,9.571473697E0
1.174022950E1,1.585922029E0,9.276698264E0,1.156135964E0,9.482031941E0
1.175025950E1,1.287865473E0,9.212453152E0,1.134381910E0,9.370950479E0
1.176028850E1,1.009395336E0,9.093350632E0,1.011208119E0,9.204914259E0
1.177031850E1,8.334024775E-1,9.085818248E0,8.240166000E-1,9.161094710E0
1.178034850E1,7.127877210E-1,9.105910451E0,5.954009199E-1,9.153151027E0
1.179037850E1,6.679677898E-1,9.105416946E0,4.271589109E-1,9.139872180E0
1.180040750E1,7.151333316E-1,9.098713113E0,4.452070729E-1,9.137625804E0
1.181043750E1,8.052497421E-1,9.116688623E0,6.686794690E-1,9.176577294E0
1.182046750E1,8.639741329E-1,9.094681458E0,9.915931229E-1,9.189283924E0
1.183049750E1,9.346190961E-1,9.067552131E0,1.257633176E0,9.201937607E0
1.184052650E1,1.178928630E0,9.109058592E0,1.468727016E0,9.301719206E0
1.185055650E1,1.479281679E0,8.895304268E0,1.479722121E0,9.138068169E0
1.186058650E1,1.761497397E0,7.009166161E0,1.872664003E-1,7.229547154E0
1.187061650E1,1.726719912E0,3.427878721E0,-3.014444321E0,4.880449646E0
1.188064550E1,1.674210161E0,4.981069352E0,-9.788829571E-1,5.345301058E0
1.189067550E1,2.471953394E0,2.300245521E0,5.598013169E-1,3.422727064E0
1.190070550E1,1.803741922E0,-1.261192493E1,5.725996659E-1,1.275311749E1
1.191073550E1,-7.304903126E-1,-3.706117776E1,3.788549600E0,3.726147637E1
1.192076450E1,-3.890124507E0,-6.485550104E1,8.713894402E0,6.555380263E1
1.193079450E1,-9.351148522E0,-8.692729938E1,1.462026107E1,8.864283044E1
1.194082450E1,-1.143362795E1,-8.469040727E1,1.289032022E1,8.642542037E1
1.195085450E1,-1.163960781E1,-5.029896526E1,-1.763067082E0,5.165824989E1
1.196088350E1,-1.262799893E1,-2.217623896E1,-2.117573826E1,3.316117945E1
1.197091350E1,-6.917349672E0,-1.067254851E1,-2.507048909E1,2.811196260E1
1.198094350E1,-1.043566903E0,-9.476224558E0,-8.537006189E0,1.279720041E1
1.199097350E1,-1.589512512E0,-9.888179612E0,-3.688568645E0,1.067277774E1
1.200100250E1,-4.925013265E-1,-9.638774815E0,-1.968006728E0,9.849953704E0
1.201103250E1,4.601685628E-1,-7.310120596E0,-6.871028030E-1,7.356747141E0
1.202106250E1,1.039526477E0,-4.350638933E0,8.201971257E-1,4.547680479E0
1.203109250E1,1.773409637E0,-1.855599854E0,1.770377855E0,3.118087604E0
1.204112150E1,2.646986286E0,4.533387226E-1,1.773165223E0,3.218099953E0
1.205115150E1,3.532823085E0,2.760245976E0,1.564913714E0,4.748552594E0
1.206118150E1,4.601139206E0,5.110634295E0,1.490416678E0,7.036363178E0
1.207121150E1,5.326921048E0,6.952383265E0,1.429807364E0,8.874461675E0
1.208124050E1,6.178400193E0,8.563306380E0,2.010682046E0,1.074921799E1
1.209127050E1,7.392494416E0,9.922969376E0,2.626802575E0,1.264967931E1
1.210130050E1,8.678861979E0,1.081958025E1,2.622639357E0,1.411609717E1
1.211133050E1,1.061238768E1,1.178389253E1,2.851443830E0,1.611253014E1
1.212136050E1,1.228810145E1,1.278585971E1,2.927546511E0,1.797348532E1
1.213138950E1,1.212273283E1,1.332140620E1,2.457512233E0,1.817855552E1
1.214141950E1,1.096021281E1,1.341100425E1,1.821183143E0,1.741545313E1
1.215144950E1,9.607467653E0,1.341511017E1,1.122525072E0,1.653870243E1
1.216147950E1,8.158717064E0,1.328943011E1,6.460202658E-1,1.560740078E1
1.217150850E1,6.785779719E0,1.308290529E1,2.723293912E-1,1.474053528E1
1.218153850E1,5.634433136E0,1.282218730E1,8.459517717E-2,1.400580166E1
1.219156850E1,4.769816175E0,1.251510673E1,2.755324960E-2,1.339327451E1
1.220159850E1,4.042452076E0,1.214744785E1,9.305258989E-2,1.280275622E1
1.221162750E1,3.480260417E0,1.175707136E1,2.614606233E-1,1.226414698E1
1.222165750E1,3.043347108E0,1.135543781E1,4.070867351E-1,1.176323293E1
1.223168750E1,2.781868395E0,1.088893174E1,4.767527282E-1,1.124877413E1
1.224171750E1,2.702245983E0,1.020337962E1,4.776087606E-1,1.056594525E1
1.225174650E1,2.650827322E0,9.556105710E0,5.090960900E-1,9.930016146E0
1.226177650E1,2.610834706E0,9.102603266E0,5.991746398E-1,9.488564397E0
1.227180650E1,2.521995327E0,8.885224838E0,7.360019711E-1,9.265494037E0
1.228183650E1,2.325031283E0,8.895444016E0,9.316778004E-1,9.241359112E0
1.229186650E1,2.143773299E0,8.995064199E0,1.088888379E0,9.310887273E0
1.230189550E1,1.987642701E0,9.144045407E0,1.207017338E0,9.435103643E0
1.231192550E1,1.877116731E0,9.294094316E0,1.278125182E0,9.567515892E0
1.232195550E1,1.778339570E0,9.392213518E0,1.317242031E0,9.649419307E0
1.233198550E1,1.691092535E0,9.437620656E0,1.389931254E0,9.688157023E0
1.234201450E1,1.621507306E0,9.445393360E0,1.480955883E0,9.697317773E0
1.235204450E1,1.536965339E0,9.447128813E0,1.583717190E0,9.701477486E0
1.236207450E1,1.411176381E0,9.482731340E0,1.669920352E0,9.731507921E0
1.237210450E1,1.295678962E0,9.588789307E0,1.710875566E0,9.826024605E0
1.238213350E1,1.188836444E0,9.615533302E0,1.545879858E0,9.811297432E0
1.239216350E1,1.142166747E0,9.029831159E0,6.523187403E-1,9.125125499E0
1.240219350E1,1.065752409E0,7.339137404E0,9.517498299E-2,7.416725983E0
1.241222350E1,9.625588466E-1,4.774284325E0,-1.366957397E0,5.058545529E0
1.242225250E1,1.427771364E0,5.702228678E0,1.126546714E0,5.985236041E0
1.243228250E1,1.837636330E0,2.384035537E0,3.413486384E0,4.551090201E0
1.244231250E1,-2.288668326E0,-1.780632000E1,3.469700346E0,1.828501724E1
1.245234250E1,-9.469556394E0,-5.438971476E1,7.395403991E0,5.570103742E1
1.246237150E1,-1.490906090E1,-1.011572986E2,1.670733114E1,1.036060523E2
1.247240150E1,-1.562972204E1,-1.143768521E2,1.005375288E1,1.158767900E2
1.248243150E1,-9.954150238E0,-7.160760840E1,-2.275842167E0,7.233197181E1
1.249246150E1,-6.684681360E0,-2.633158381E1,-2.073370513E1,3.417490014E1
1.250249050E1,-4.529996133E0,-1.058227452E1,-2.450493937E1,2.707392570E1
1.251252050E1,-2.513595217E0,-4.121788852E0,-1.452854516E1,1.530966782E1
1.252255050E1,-5.798696919E-1,-2.847454859E0,-7.090205061E0,7.662588065E0
1.253258050E1,4.108284415E-1,-1.903659289E0,-4.063468723E0,4.506048908E0
1.254260950E1,9.909621352E-1,-4.441346204E-1,-2.245469390E0,2.494272297E0
1.255263950E1,1.460087463E0,7.442300999E-1,-5.557462728E-1,1.730487723E0
1.256266950E1,2.042521890E0,1.298591752E0,8.930832535E-1,2.579890290E0
1.257269950E1,2.777025439E0,2.461458519E0,1.572636132E0,4.030363846E0
1.258272863E1,3.611450302E0,4.068330683E0,1.713852822E0,5.703611078E0
1.259275863E1,4.358442627E0,5.572302961E0,1.934630821E0,7.334124272E0
1.260278863E1,5.064827793E0,7.141468186E0,1.917617762E0,8.962717573E0
1.261281863E1,6.063309447E0,8.638767037E0,2.492856313E0,1.084464614E1
1.262284863E1,7.948355294E0,1.000852700E1,4.261416854E0,1.347243995E1
1.263287763E1,9.831898992E0,1.109616291E1,5.850880687E0,1.593812643E1
1.264290763E1,9.276097755E0,1.142022964E1,5.341080666E0,1.565230900E1
1.265293763E1,8.127818037E0,1.125764663E1,4.697060148E0,1.465804925E1
1.266296763E1,7.124148148E0,1.115577878E1,4.110655754E0,1.386010021E1
1.267299663E1,6.809338151E0,1.142197211E1,3.341053416E0,1.371098723E1
1.268302663E1,6.252964472E0,1.163133166E1,2.764851243E0,1.349191770E1
1.269305663E1,5.515407214E0,1.170860729E1,2.271621062E0,1.314045143E1
1.270308663E1,4.910809793E0,1.163687950E1,1.864666547E0,1.276753691E1
1.271311563E1,4.366904717E0,1.149977048E1,1.572971177E0,1.240116189E1
1.272314563E1,4.040450282E0,1.138036566E1,1.536553549E0,1.217369943E1
1.273317563E1,3.797369540E0,1.135899175E1,1.523996361E0,1.207349468E1
1.274320563E1,3.624653315E0,1.153202255E1,1.555662542E0,1.218793427E1
1.275323463E1,3.526307825E0,1.186465311E1,1.315844547E0,1.244734056E1
1.276326463E1,3.561944851E0,1.201631117E1,5.775680816E-1,1.254642460E1
1.277329463E1,3.817932736E0,1.191997478E1,-5.380982796E-1,1.252804690E1
1.278332463E1,4.175718015E0,1.136310351E1,-1.901633813E0,1.225450747E1
1.279335463E1,4.610654965E0,1.063071519E1,-2.734290186E0,1.190573759E1
1.280338363E1,4.829001107E0,1.006213896E1,-2.488433479E0,1.143495489E1
1.281341363E1,4.748292282E0,9.785113665E0,-1.727206693E0,1.101262784E1
1.282344363E1,4.540738345E0,9.756605566E0,-7.178989184E-1,1.078540846E1
1.283347363E1,4.170886753E0,9.814151523E0,4.417255676E-1,1.067281537E1
1.284350263E1,3.644489994E0,9.774690419E0,1.330367861E0,1.051649936E1
1.285353263E1,3.105314146E0,9.534807227E0,1.794380676E0,1.018701756E1
1.286356263E1,2.579932464E0,9.324302201E0,1.962432138E0,9.871666676E0
1.287359263E1,2.038574288E0,9.256209621E0,1.966617429E0,9.679916621E0
1.288362163E1,1.503749499E0,9.324678177E0,1.801848739E0,9.615484624E0
1.289365163E1,9.902278711E-1,9.323395883E0,1.349190048E0,9.472411299E0
1.290368163E1,3.770055149E-1,8.816513037E0,-2.331589667E-1,8.827649653E0
1.291371163E1,1.512372096E-1,7.306635071E0,-2.651428124E0,7.774307677E0
1.292374063E1,4.836582168E-1,6.132093753E0,-2.619277793E0,6.685590118E0
1.293377063E1,4.438407248E-1,5.276278898E0,-2.465966138E0,5.840984728E0
1.294380063E1,8.769875499E-1,6.104931682E0,2.490712724E0,6.651537257E0
1.295383063E1,7.900194995E-1,3.404802684E0,5.107920603E0,6.189318622E0
1.296385963E1,-3.750786235E0,-1.444322142E1,3.484379196E0,1.532370519E1
1.297388963E1,-1.313116119E1,-4.957856023E1,4.283455594E0,5.146658159E1
1.298391963E1,-1.981048124E1,-9.857586980E1,1.427197401E1,1.015546479E2
1.299394963E1,-2.017547847E1,-1.205290211E2,1.351997530E1,1.229515538E2
1.300397863E1,-1.074419795E1,-7.945052553E1,-2.291178682E0,8.020644174E1
1.301400863E1,-5.689931983E0,-2.968270497E1,-1.985481716E1,3.616147210E1
1.302403863E1,-2.940589602E0,-1.123569619E1,-2.005259806E1,2.317314448E1
1.303406863E1,-3.979383423E0,-4.448085705E0,-1.542643891E1,1.654073688E1
1.304409763E1,-3.713822769E0,-3.245479506E0,-8.964385028E0,1.023160866E1
1.305412763E1,-2.376855156E0,-3.367319693E0,-4.372345551E0,6.008800876E0
1.306415763E1,-1.294888710E0,-2.524340646E0,-1.810173420E0,3.365376692E0
1.307418763E1,-4.105908984E-1,-1.040348888E0,3.024349505E-1,1.158610199E0
1.308421763E1,3.518556172E-1,3.942251265E-1,1.685898453E0,1.766768072E0
1.309424663E1,1.317325939E0,1.886846790E0,2.359777778E0,3.296071843E0
1.310427663E1,2.286820606E0,3.451314946E0,2.506772686E0,4.839941388E0
1.311430663E1,3.372353853E0,5.137732632E0,2.657303406E0,6.695545422E0
1.312433663E1,4.714760546E0,6.726269097E0,2.934894122E0,8.722686884E0
1.313436563E1,6.672192292E0,8.383476432E0,4.213201883E0,1.151311848E1
1.314439563E1,9.949162563E0,1.018931590E1,6.418720171E0,1.562075423E1
1.315442563E1,1.204649684E1,1.166763001E1,7.656801428E0,1.843578813E1
1.316445563E1,1.142990210E1,1.207802736E1,7.664337319E0,1.831020135E1
1.317448463E1,1.015639373E1,1.170806935E1,6.251155343E0,1.671251521E1
1.318451463E1,8.521661341E0,1.138692623E1,4.478949648E0,1.491112977E1
1.319454463E1,7.292328104E0,1.127380600E1,2.988494378E0,1.375528442E1
1.320457463E1,6.162227964E0,1.116341057E1,1.949324874E0,1.289940528E1
1.321460363E1,5.477131341E0,1.111704916E1,1.558282971E0,1.249063632E1
1.322463363E1,4.484579055E0,1.091943666E1,1.239393371E0,1.186935728E1
1.323466363E1,4.096036545E0,1.076997014E1,8.683805946E-1,1.155525236E1
1.324469363E1,4.213151304E0,1.069054156E1,9.532880862E-1,1.153026803E1
1.325472363E1,4.155850930E0,1.061506804E1,1.055456485E0,1.144835162E1
1.326475263E1,4.062639296E0,1.063434046E1,1.157411900E0,1.144263245E1
1.327478263E1,3.982524255E0,1.097921275E1,1.151105166E0,1.173578524E1
1.328481263E1,3.968687404E0,1.150066627E1,7.709811115E-1,1.219057900E1
1.329484263E1,3.841756339E0,1.175284499E1,9.867885388E-2,1.236520095E1
1.330487163E1,3.482163394E0,1.173190377E1,-8.003259480E-1,1.226391249E1
1.331490163E1,3.129834445E0,1.132438091E1,-1.466273525E0,1.184007705E1
1.332493163E1,3.107963811E0,1.069138005E1,-1.713692608E0,1.126506941E1
1.333496163E1,3.426115785E0,1.007388250E1,-1.474895829E0,1.074228541E1
1.334499063E1,3.768539259E0,9.693187249E0,-7.911856536E-1,1.043004036E1
1.335502063E1,3.949228163E0,9.475288419E0,2.136229075E-2,1.026537627E1
1.336505063E1,3.987444395E0,9.375984571E0,7.283888964E-1,1.021466347E1
1.337508063E1,4.016626386E0,9.290346251E0,1.504315510E0,1.023263339E1
1.338510963E1,4.068388571E0,9.180703356E0,2.438257352E0,1.033354724E1
1.339513963E1,4.171690745E0,9.104392514E0,3.384059687E0,1.057094256E1
1.340516963E1,4.180318896E0,9.044904111E0,4.097298374E0,1.077372779E1
1.341519963E1,4.155926651E0,9.058539818E0,4.260242733E0,1.083875169E1
1.342522863E1,4.291068669E0,9.114077257E0,3.911586127E0,1.080648789E1
1.343525863E1,4.701956021E0,8.947973648E0,3.465752306E0,1.068578785E1
1.344528863E1,5.048342738E0,8.330531648E0,3.192891988E0,1.025076003E1
1.345531863E1,4.643549353E0,6.295592428E0,2.132377807E0,8.108271686E0
1.346534863E1,4.241973692E0,-2.020038176E0,-5.706700044E0,7.391976760E0
1.347537762E1,4.595048454E0,-3.880893508E0,-3.387791380E0,6.903110541E0
1.348540763E1,3.107657710E0,-3.589196384E-1,4.268669740E0,5.292249153E0
1.349543763E1,-7.216116080E-1,-3.983250187E0,5.274367443E0,6.648756071E0
1.350546763E1,-7.769387226E0,-1.985968906E1,4.399526333E0,2.177444510E1
1.351549663E1,-1.578568483E1,-4.604993398E1,5.965270352E0,4.904455847E1
1.352552663E1,-2.556182828E1,-7.348922836E1,8.607835851E0,7.828261996E1
1.353555663E1,-3.033448006E1,-8.376892350E1,8.824793864E0,8.952815318E1
1.354558663E1,-2.342571878E1,-6.757551817E1,-3.636138416E0,7.161310257E1
1.355561563E1,-9.141126477E0,-3.755167027E1,-1.486173120E1,4.140723594E1
1.356564562E1,-4.448878880E0,-1.881286438E1,-1.060693339E1,2.205047450E1
1.357567563E1,-5.302094940E0,-1.377453851E1,-1.128046481E1,1.857684064E1
1.358570508E1,-4.515466972E0,-1.039024026E1,-9.851701173E0,1.501341236E1
1.359573408E1,-3.473717383E0,-8.453495085E0,-5.821756291E0,1.083610345E1
1.360576408E1,-2.332195000E0,-6.619443390E0,-2.800409916E0,7.556352295E0
1.361579408E1,-1.208030368E0,-4.833965685E0,-6.692489147E-1,5.027370658E0
1.362582408E1,4.965455532E-3,-2.895513124E0,6.604172802E-1,2.969877421E0
1.363585308E1,1.611868610E0,-4.288166696E-1,1.570120075E0,2.290694480E0
1.364588308E1,3.509352947E0,2.204009122E0,2.318951933E0,4.748763248E0
1.365591308E1,5.663753414E0,4.830883033E0,2.751475153E0,7.936381363E0
1.366594308E1,7.469972947E0,6.826716660E0,3.133053921E0,1.059342169E1
1.367597208E1,9.443697667E0,8.333872747E0,3.916874349E0,1.319010103E1
1.368600208E1,1.096988527E1,9.473882748E0,4.528256879E0,1.518545184E1
1.369603208E1,1.170400203E1,1.017942708E1,4.538108268E0,1.616164676E1
1.370606208E1,1.228575672E1,1.068273202E1,4.585464867E0,1.691410859E1
1.371609108E1,1.299311661E1,1.108227694E1,4.581951860E0,1.768140900E1
1.372612108E1,1.305235943E1,1.136532662E1,4.873667110E0,1.798019374E1
1.373615108E1,1.049867570E1,1.101397445E1,3.312680386E0,1.557252953E1
1.374618108E1,8.392094643E0,1.075467382E1,2.093399098E0,1.380118043E1
1.375621108E1,6.799780877E0,1.103239552E1,1.395297682E0,1.303447837E1
1.376624008E1,5.139051179E0,1.162489388E1,7.462392032E-1,1.273204138E1
1.377627008E1,3.573523215E0,1.243960748E1,-1.591518545E-1,1.294369468E1
1.378630008E1,2.454882740E0,1.308273806E1,-1.195170879E0,1.336461439E1
1.379633008E1,1.757090058E0,1.311820610E1,-2.003549613E0,1.338614611E1
1.380635908E1,1.414813349E0,1.262815680E1,-2.527770038E0,1.295614381E1
1.381638908E1,1.456211051E0,1.184331194E1,-2.831810049E0,1.226392011E1
1.382641908E1,1.780836770E0,1.102416030E1,-2.458896854E0,1.143458192E1
1.383644908E1,2.075932880E0,1.050592391E1,-1.362886712E0,1.079543398E1
1.384647808E1,2.345276391E0,1.025701028E1,-1.291357577E-1,1.052251193E1
1.385650808E1,2.475648834E0,1.002747198E1,1.010522680E0,1.037787009E1
1.386653808E1,2.491576065E0,9.804056305E0,1.923455622E0,1.029694872E1
1.387656808E1,2.545180122E0,9.516736992E0,2.652682936E0,1.020210525E1
1.388659708E1,2.664049631E0,9.235151458E0,3.025138879E0,1.007653949E1
1.389662708E1,2.814813362E0,9.096076604E0,2.972544343E0,9.974858581E0
1.390665708E1,3.072931096E0,9.133756061E0,2.838292272E0,1.004610911E1
1.391668708E1,3.365545063E0,9.273227942E0,2.817252821E0,1.025946214E1
1.392671708E1,3.581421926E0,9.374252626E0,2.933031199E0,1.045494463E1
1.393674608E1,3.814032058E0,9.375035568E0,3.051167175E0,1.057108100E1
1.394677608E1,4.130416419E0,9.404123712E0,3.322543470E0,1.079523866E1
1.395680608E1,4.255203602E0,9.476521597E0,3.581319015E0,1.098804192E1
1.396683608E1,4.336544219E0,9.540004817E0,3.163314432E0,1.094640881E1
1.397686508E1,4.526058910E0,9.525239428E0,2.190676886E0,1.077100091E1
1.398689508E1,5.156118032E0,9.204859373E0,5.822842996E-1,1.056664773E1
1.399692508E1,7.230445266E0,7.224201025E0,-5.319436612E0,1.152236196E1
1.400695508E1,7.387721334E0,4.140466028E0,-8.014349309E0,1.165983192E1
1.401698408E1,3.542494088E0,2.744167303E0,-4.487691236E0,6.341852346E0
1.402701408E1,2.666304902E0,3.555515252E0,-3.807812448E-1,4.460478102E0
1.403704408E1,2.994818727E0,2.618788966E0,3.689715868E0,5.425955957E0
1.404707408E1,9.677928355E-1,-6.101343246E0,6.376199219E0,8.878002527E0
1.405710308E1,-4.307899294E0,-3.351516189E1,6.035932199E0,3.432574181E1
1.406713308E1,-9.070007377E0,-7.474004135E1,8.276405143E0,7.574191506E1
1.407716308E1,-1.442615339E1,-1.048205277E2,8.724938039E0,1.061677045E2
1.408719308E1,-1.789094793E1,-9.722573367E1,-6.317426077E-1,9.886014568E1
1.409722208E1,-1.633130957E1,-5.188312099E1,-1.664588042E1,5.688282035E1
1.410725208E1,-9.264409171E0,-2.003049325E1,-1.686795884E1,2.777729239E1
1.411728208E1,-7.074953769E0,-1.049707591E1,-1.183497264E1,1.732945905E1
1.412731208E1,-5.317318751E0,-6.385355374E0,-6.152523925E0,1.033925493E1
1.413734208E1,-3.454539685E0,-3.840464689E0,-2.631114312E0,5.797048903E0
1.414737108E1,-2.414273828E0,-2.060157092E0,-1.224186518E0,3.401705159E0
1.415740108E1,-1.599581856E0,-8.471826106E-1,2.601870632E-1,1.828681983E0
1.416743108E1,-4.055257478E-1,1.635969079E-1,1.619430814E0,1.677429951E0
1.417746108E1,1.048541422E0,1.465668923E0,2.187568506E0,2.834268949E0
1.418749008E1,2.365410108E0,2.900478580E0,2.099116505E0,4.291180616E0
1.419752008E1,3.557446588E0,4.413974803E0,1.765929294E0,5.937769451E0
1.420755008E1,4.768908395E0,5.893934906E0,1.674020419E0,7.764232113E0
1.421758008E1,6.093051894E0,7.214505172E0,1.738910480E0,9.601988123E0
1.422760908E1,8.285076563E0,8.604646195E0,2.282761177E0,1.216114421E1
1.423763908E1,1.136907468E1,9.955995619E0,2.473212592E0,1.531321287E1
1.424766908E1,1.466325448E1,1.141296973E1,2.637519352E0,1.876761622E1
1.425769908E1,1.418707127E1,1.143255557E1,1.196861309E0,1.825948507E1
1.426772808E1,1.352530211E1,1.134083380E1,-6.963683009E-2,1.765086847E1
1.427775808E1,1.241983922E1,1.156488507E1,-9.164966744E-1,1.699526225E1
1.428778808E1,1.026085307E1,1.179526420E1,-1.330694720E0,1.569025531E1
1.429781808E1,8.254440662E0,1.208299984E1,-1.242725700E0,1.468601521E1
1.430784708E1,6.953260347E0,1.229349609E1,-8.684740770E-1,1.415034002E1
1.431787708E1,5.806443018E0,1.210245469E1,-7.062029522E-2,1.342345623E1
1.432790708E1,4.671452851E0,1.175873898E1,8.493922734E-1,1.268116246E1
1.433793708E1,3.666054818E0,1.135292351E1,1.531850048E0,1.202810852E1
1.434796708E1,2.915505924E0,1.094678526E1,1.606260545E0,1.144169373E1
1.435799608E1,2.265808929E0,1.070044090E1,1.291847427E0,1.101372758E1
1.436802608E1,1.362751788E0,1.053305265E1,5.069583479E-1,1.063293456E1
1.437805608E1,5.981175363E-1,9.700540708E0,2.682574634E-1,9.722664073E0
1.438808608E1,4.194124465E-1,9.180474145E0,1.260308862E-2,9.190058278E0
1.439811508E1,4.675062338E-1,8.993293662E0,-3.683453500E-1,9.012966840E0
1.440814508E1,5.617820612E-1,8.828567072E0,-5.718096706E-1,8.864883639E0
1.441817508E1,7.966001022E-1,8.745098653E0,-6.076262784E-1,8.802302646E0
1.442820508E1,1.145553600E0,8.770030012E0,-5.250799656E-1,8.860103184E0
1.443823408E1,1.624521984E0,8.925066596E0,-2.188555077E-1,9.074347533E0
1.444826408E1,2.182410531E0,9.245930216E0,2.288998548E-1,9.502764673E0
1.445829408E1,2.710566863E0,9.462465475E0,7.409160443E-1,9.870885582E0
1.446832408E1,3.158111872E0,9.559721628E0,1.205532292E0,1.013978581E1
1.447835308E1,3.559243145E0,9.685521550E0,1.597500247E0,1.044172143E1
1.448838308E1,3.820583571E0,9.823008885E0,1.977688694E0,1.072378734E1
1.449841308E1,4.058889769E0,9.974622509E0,2.140549875E0,1.097950974E1
1.450844308E1,4.235633556E0,1.020530686E1,2.194598029E0,1.126521816E1
1.451847308E1,4.349558367E0,1.064920876E1,2.012575375E0,1.167796065E1
1.452850208E1,4.862596577E0,1.077031980E1,2.012916414E-1,1.181884734E1
1.453853208E1,5.624076548E0,8.850122248E0,-8.663414805E0,1.360182550E1
1.454856208E1,3.008603830E0,5.682262775E0,-8.197013987E0,1.041781386E1
1.455859208E1,8.353924312E-1,5.742744620E0,-7.618372357E-1,5.852981484E0
1.456862108E1,1.711320100E0,6.036007043E0,3.494200180E0,7.181325254E0
1.457865108E1,2.132240836E0,-1.944392163E0,7.114171629E0,7.677144640E0
1.458868213E1,1.601564500E0,-2.585197881E1,7.282366787E0,2.690581133E1
1.459871213E1,8.446927200E-1,-6.489906981E1,9.646662709E0,6.561753478E1
1.460874113E1,-4.301707020E-1,-1.081376298E2,1.940720813E1,1.098661538E2
1.461877113E1,-4.735303277E0,-1.110950579E2,1.294711774E1,1.119471431E2
1.462880112E1,-1.038161562E1,-5.733220675E1,-8.067019274E0,5.882037635E1
1.463883113E1,-1.126185312E1,-2.093068847E1,-2.842506243E1,3.705276279E1
1.464886013E1,-4.724084809E0,-8.291667545E0,-3.078224814E1,3.222755853E1
1.465889013E1,-4.041185569E0,-4.719628646E0,-1.554622965E1,1.674190347E1
1.466892013E1,-1.197521899E0,-6.373975523E0,-3.930091980E0,7.583353192E0
1.467895013E1,1.458637646E-1,-6.884696481E0,-1.066652003E0,6.968361958E0
1.468897913E1,5.160349077E-1,-5.422851638E0,1.361202568E0,5.614844997E0
1.469900913E1,1.053965299E0,-2.926048454E0,3.393729812E0,4.603260197E0
1.470903913E1,1.269166078E0,-6.668305063E-1,4.121682433E0,4.363910120E0
1.471906912E1,1.588176131E0,1.608552069E0,4.152291437E0,4.727712699E0
1.472909813E1,2.184934774E0,4.099758883E0,4.109510869E0,6.202422304E0
1.473912813E1,2.836744514E0,6.180034490E0,3.526955112E0,7.660245303E0
1.474915813E1,3.632794978E0,7.828342363E0,3.184677819E0,9.199038880E0
1.475918813E1,4.307862749E0,9.030243387E0,3.120076611E0,1.048035568E1
1.476921813E1,5.358928122E0,9.893898189E0,3.012242260E0,1.164821598E1
1.477924713E1,7.400789276E0,1.072902793E1,3.562466422E0,1.351202758E1
1.478927713E1,8.897931422E0,1.127395803E1,3.936346747E0,1.489194879E1
1.479930713E1,8.843174586E0,1.126008142E1,3.482711570E0,1.473500764E1
1.480933713E1,8.360003369E0,1.123518280E1,2.406397043E0,1.420949456E1
1.481936613E1,8.138914883E0,1.145824355E1,1.163577204E0,1.410273706E1
1.482939613E1,7.833788459E0,1.177029191E1,6.254696417E-1,1.415271089E1
1.483942613E1,7.453762127E0,1.214639769E1,1.866688514E-1,1.425231181E1
1.484945613E1,7.200195866E0,1.257302925E1,-4.578605572E-2,1.448882264E1
1.485948513E1,6.798435432E0,1.283485587E1,-2.249014922E-1,1.452593647E1
1.486951513E1,6.417910917E0,1.283429922E1,-3.754730694E-1,1.435443475E1
1.487954513E1,6.005710280E0,1.264777538E1,-3.244678803E-1,1.400500116E1
1.488957513E1,5.470801145E0,1.236312123E1,-1.479708453E-1,1.352029315E1
1.489960513E1,4.900008232E0,1.195919674E1,-2.825955670E-2,1.292413502E1
1.490963413E1,4.368612104E0,1.155485242E1,2.525529385E-2,1.235313822E1
1.491966413E1,3.977050677E0,1.117037694E1,-1.378200424E-1,1.185804568E1
1.492969413E1,3.683080156E0,1.074577436E1,-5.081147810E-1,1.137079270E1
1.493972413E1,3.444991474E0,1.030219990E1,-1.076339012E0,1.091612545E1
1.494975313E1,3.306370948E0,9.819226906E0,-1.650994084E0,1.049166752E1
1.495978313E1,3.404213870E0,9.443769003E0,-1.783682610E0,1.019583095E1
1.496981313E1,3.810495078E0,9.278317943E0,-1.300329545E0,1.011424310E1
1.497984313E1,4.188275203E0,9.308655637E0,-3.989344009E-1,1.021527619E1
1.498987213E1,4.256371876E0,9.417880456E0,6.184132949E-1,1.035353123E1
1.499990213E1,4.040652595E0,9.491735467E0,1.520589627E0,1.042746894E1
1.500993213E1,3.695338843E0,9.491137297E0,2.132933292E0,1.040608576E1
1.501996213E1,3.312354696E0,9.464852893E0,2.578891952E0,1.035402422E1
1.502999113E1,2.950171142E0,9.362161753E0,2.996041964E0,1.026303317E1
1.504002113E1,2.562281182E0,9.261239980E0,3.391564003E0,1.019012057E1
1.505005113E1,2.308833473E0,9.102401537E0,3.679106680E0,1.008564582E1
1.506008113E1,2.332600066E0,8.601488698E0,3.584919730E0,9.606158460E0
1.507011113E1,2.325915383E0,7.434473916E0,2.563629842E0,8.200822077E0
1.508014013E1,2.086830482E0,6.649299273E0,1.677114766E0,7.168037125E0
1.509017013E1,2.127301108E0,3.539663451E0,-2.909399092E-1,4.139960553E0
1.510020013E1,2.991870853E0,3.311888673E0,2.335725256E0,5.037411067E0
1.511023013E1,2.454277846E0,1.160213301E0,5.180172307E0,5.848398053E0
1.512025913E1,-3.018674782E0,-1.697536049E1,3.868022032E0,1.767022512E1
1.513028913E1,-1.256104363E1,-4.848165999E1,3.038671090E0,5.017454230E1
1.514031913E1,-2.313475197E1,-8.605221911E1,7.123611374E0,8.939209698E1
1.515034913E1,-2.816745750E1,-1.005069291E2,1.127799261E1,1.049868639E2
1.516037813E1,-1.911239035E1,-7.437652229E1,5.591481829E0,7.699620251E1
1.517040813E1,-1.359611540E1,-3.473479518E1,-4.547816400E0,3.757716041E1
1.518043813E1,-9.695253071E0,-1.564743209E1,-1.254653903E1,2.227679745E1
1.519046813E1,-2.655942467E0,-7.444472655E0,-1.473004138E1,1.671670788E1
1.520049713E1,-2.473985594E0,-3.580329666E0,-1.507551242E1,1.569109429E1
1.521052713E1,-3.040331115E0,-3.050104735E0,-1.244406891E1,1.316820425E1
1.522055713E1,-2.414361536E0,-3.432053633E0,-7.581907366E0,8.665647874E0
1.523058713E1,-1.554421763E0,-3.050687703E0,-4.149992897E0,5.380089546E0
1.524061613E1,-5.604009488E-1,-1.588708373E0,-1.476221977E0,2.239927420E0
1.525064613E1,5.354155040E-1,-1.285785180E-1,7.114599645E-1,8.996540881E-1
1.526067613E1,1.771307270E0,1.291775068E0,1.813244963E0,2.845007832E0
1.527070613E1,2.983275154E0,2.637316453E0,1.960279047E0,4.438249955E0
1.528073513E1,4.130767837E0,4.375131750E0,1.866587357E0,6.299934056E0
1.529076513E1,5.164932125E0,6.138323377E0,1.609256659E0,8.182007377E0
1.530079513E1,6.471396568E0,7.882088215E0,1.877613451E0,1.036975026E1
1.531082513E1,9.068176614E0,9.695201030E0,3.082118826E0,1.362821362E1
1.532085513E1,1.214561182E1,1.124943831E1,4.957371172E0,1.728124063E1
1.533088413E1,1.309914300E1,1.175912256E1,4.963302587E0,1.828931063E1
1.534091413E1,1.301009810E1,1.141599391E1,4.047372508E0,1.777551107E1
1.535094413E1,1.195443126E1,1.092699127E1,3.018105848E0,1.647472391E1
1.536097413E1,1.138355824E1,1.085074358E1,2.077014030E0,1.586310252E1
1.537100313E1,1.040535882E1,1.076445972E1,1.795178236E0,1.507871845E1
1.538103313E1,9.033610214E0,1.048265082E1,1.406228467E0,1.390933357E1
1.539106313E1,7.442931329E0,1.018238110E1,1.163253341E0,1.266614661E1
1.540109313E1,5.928758583E0,9.960236020E0,1.090183099E0,1.164237858E1
1.541112213E1,4.702216515E0,9.744025866E0,1.177612933E0,1.088318209E1
1.542115213E1,3.830249896E0,9.731083054E0,1.257248429E0,1.053306533E1
1.543118213E1,3.251756785E0,9.893736806E0,1.227208943E0,1.048646709E1
1.544121213E1,2.866395452E0,1.020566120E1,1.071254346E0,1.065454501E1
1.545124213E1,2.427944033E0,1.050120638E1,8.030168366E-1,1.080810269E1
1.546127113E1,2.029405416E0,1.072726558E1,5.051432991E-1,1.092922152E1
1.547130113E1,1.674841661E0,1.087455344E1,2.637737453E-1,1.100593402E1
1.548133113E1,1.391755439E0,1.091262583E1,1.176985308E-1,1.100164709E1
1.549136113E1,1.177918377E0,1.082546255E1,1.433385714E-1,1.089030198E1
1.550139013E1,1.064931460E0,1.076535785E1,1.888159490E-1,1.081954991E1
1.551142013E1,1.010269934E0,1.078583948E1,2.287757476E-1,1.083546570E1
1.552145013E1,9.667657721E-1,1.078994189E1,2.664155904E-1,1.083644126E1
1.553148013E1,9.703026067E-1,1.077871056E1,3.051053739E-1,1.082659585E1
1.554150913E1,1.053666360E0,1.066416360E1,3.662461265E-1,1.072234743E1
1.555153913E1,1.204168282E0,1.062821960E1,5.186339220E-1,1.070878397E1
1.556156913E1,1.413684837E0,1.070214945E1,8.293632209E-1,1.082692713E1
1.557159913E1,1.661426978E0,1.067849396E1,1.307444437E0,1.088576978E1
1.558162913E1,1.921818840E0,1.045307444E1,1.883263031E0,1.079383308E1
1.559165783E1,2.176915171E0,1.020278554E1,2.210978272E0,1.066415573E1
1.560168783E1,2.720592206E0,9.447742186E0,2.178664220E0,1.007015552E1
1.561171783E1,3.329860383E0,7.500567334E0,1.829393803E0,8.407922584E0
1.562174783E1,3.636586897E0,2.921953649E0,3.769239463E-2,4.665190040E0
1.563177683E1,3.506448050E0,3.322618314E0,2.513934356E0,5.445625431E0
1.564180683E1,3.430160889E0,1.622509373E0,5.288937535E0,6.509331812E0
1.565183683E1,-8.401865633E-1,-1.266851428E1,5.986920837E0,1.403710756E1
1.566186683E1,-8.615159488E0,-4.281273296E1,4.939883319E0,4.394944282E1
1.567189583E1,-1.668349439E1,-8.073294622E1,7.749697312E0,8.280220649E1
1.568192583E1,-2.405361852E1,-9.962923868E1,8.627595347E0,1.028542521E2
1.569195583E1,-1.996234746E1,-7.692242805E1,4.401769910E0,7.959227872E1
1.570198583E1,-1.550981202E1,-3.793181180E1,-8.195487864E0,4.179165750E1
1.571201483E1,-9.294072681E0,-1.608415595E1,-2.303511074E1,2.959216427E1
1.572204483E1,-7.512269366E0,-6.795811787E0,-2.380908797E1,2.587450325E1
1.573207483E1,-1.323087960E1,-5.039016429E0,-1.794222099E1,2.285544040E1
1.574210483E1,-1.032419947E1,-6.056847104E0,-7.291815303E0,1.401588605E1
1.575213383E1,-8.001825158E0,-5.097154709E0,-2.270634636E0,9.755304897E0
1.576216383E1,-5.746800249E0,-2.957366141E0,3.052942389E-1,6.470311597E0
1.577219383E1,-3.882034592E0,-1.149512896E0,1.918591323E0,4.480241638E0
1.578222383E1,-2.176289519E0,4.455303508E-1,2.395832879E0,3.267223370E0
1.579225283E1,6.821361780E-3,2.168031789E0,2.346422737E0,3.194699991E0
1.580228283E1,2.164772259E0,3.801321673E0,2.002056234E0,4.810874615E0
1.581231283E1,3.964337368E0,5.377006543E0,1.384921798E0,6.822475982E0
1.582234283E1,5.282191018E0,6.667573577E0,8.350034451E-1,8.547239911E0
1.583237283E1,6.761528392E0,7.709590675E0,9.235378915E-1,1.029606608E1
1.584240183E1,9.555059643E0,8.781950145E0,2.422152951E0,1.320184222E1
1.585243183E1,1.449299993E1,9.873582623E0,4.426117131E0,1.808660260E1
1.586246183E1,1.697703514E1,1.066194985E1,3.439356220E0,2.034025732E1
1.587249183E1,1.527520302E1,1.011443177E1,1.324651623E0,1.836813162E1
1.588252083E1,1.284673859E1,9.295663708E0,2.294803737E-1,1.585877414E1
1.589255083E1,1.067888689E1,9.171073576E0,-5.077043796E-1,1.408563025E1
1.590258083E1,9.239983013E0,9.501507334E0,-6.737097555E-1,1.327063723E1
1.591261083E1,8.260146375E0,9.955070590E0,-5.036259466E-1,1.294554316E1
1.592263983E1,7.301718732E0,1.031251907E1,-4.414624429E-1,1.264349774E1
1.593266983E1,6.246200997E0,1.048844308E1,-2.999966615E-1,1.221116141E1
1.594269983E1,5.300265346E0,1.076009653E1,-3.640593410E-2,1.199474116E1
1.595272983E1,4.438490717E0,1.099865357E1,1.443882197E-1,1.186134175E1
1.596275983E1,3.663216872E0,1.105775372E1,1.933855845E-1,1.165034219E1
1.597278883E1,3.131425764E0,1.107408382E1,2.804804464E-1,1.151172572E1
1.598281883E1,2.716764911E0,1.097861516E1,3.324791139E-1,1.131465178E1
1.599284883E1,2.383616876E0,1.080320805E1,3.811986995E-1,1.106960912E1
1.600287883E1,2.198113959E0,1.061007452E1,3.171500534E-1,1.084001709E1
1.601290783E1,2.055139304E0,1.044411300E1,1.924166644E-1,1.064613160E1
1.602293783E1,1.983682820E0,1.027209025E1,-8.735648822E-4,1.046187538E1
1.603296783E1,1.998119011E0,1.006923748E1,-1.977212584E-1,1.026747859E1
1.604299783E1,2.057109523E0,9.833208768E0,-4.033806968E-1,1.005417377E1
1.605302683E1,2.169272861E0,9.590898982E0,-5.519595794E-1,9.848641907E0
1.606305683E1,2.327756963E0,9.402112269E0,-6.659697962E-1,9.708845625E0
1.607308683E1,2.495160701E0,9.267291264E0,-7.282098254E-1,9.624905394E0
1.608311683E1,2.666466578E0,9.271921089E0,-6.828459569E-1,9.671858317E0
1.609314683E1,2.803023037E0,9.558337008E0,-6.432768253E-1,9.981610570E0
1.610317583E1,2.957070564E0,1.003259882E1,-3.892749468E-1,1.046655819E1
1.611320583E1,3.062133628E0,1.028727781E1,2.209872564E-1,1.073562213E1
1.612323583E1,3.359069272E0,1.005945625E1,7.323800596E-1,1.063072843E1
1.613326583E1,4.597197598E0,9.330138892E0,8.201281285E-1,1.043351943E1
1.614329483E1,5.823103489E0,7.639977234E0,4.753750511E-1,9.617887909E0
1.615332483E1,6.282199380E0,5.312966668E0,5.015285504E-1,8.242886312E0
1.616335483E1,7.035775670E0,3.374332843E0,1.902748293E0,8.031731599E0
1.617338483E1,6.774622647E0,-1.251901735E0,4.617628062E0,8.293687893E0
1.618341383E1,3.894227791E0,-1.954316876E1,4.806558616E0,2.049886487E1
1.619344383E1,1.209501820E0,-4.915753263E1,3.860420651E0,4.932371394E1
1.620347383E1,-3.632514312E0,-8.249740202E1,1.099301218E1,8.330583903E1
1.621350383E1,-1.111947927E1,-9.402697927E1,1.050103564E1,9.526272828E1
1.622353283E1,-1.512349350E1,-7.359025889E1,1.699721856E0,7.514742387E1
1.623356283E1,-1.073102417E1,-3.983418470E1,-1.158963824E0,4.127057484E1
1.624359283E1,-1.144770336E1,-1.853399664E1,-1.172741077E1,2.474047508E1
1.625362283E1,-1.909251098E1,-5.307802407E0,-3.251787950E1,3.808029975E1
1.626365183E1,-1.097243583E1,-3.520996215E0,-1.577346532E1,1.953443038E1
1.627368183E1,-7.084183599E0,-5.611933050E0,-3.088376516E0,9.550786320E0
1.628371183E1,-5.725291266E0,-5.464841078E0,-1.008703172E0,7.978779993E0
1.629374183E1,-3.730720930E0,-3.012182618E0,1.398669772E0,4.994777264E0
1.630377183E1,-2.384843329E0,2.952335197E-1,2.605066136E0,3.544151536E0
1.631380083E1,-1.131346182E0,3.283972312E0,3.102993386E0,4.657573003E0
1.632383083E1,8.139821202E-2,5.863869692E0,3.348721454E0,6.753186567E0
1.633386083E1,1.324536140E0,7.651755280E0,2.765841762E0,8.243399512E0
1.634389083E1,2.734549218E0,9.044181980E0,1.836513957E0,9.625371194E0
1.635391983E1,4.018511529E0,1.001336967E1,9.423062843E-1,1.083069472E1
1.636394983E1,5.606786331E0,1.061995046E1,5.506831688E-1,1.202175748E1
1.637397983E1,8.545746022E0,1.101394170E1,1.803109984E0,1.405659605E1
1.638400983E1,1.092473307E1,1.128574835E1,2.808803594E0,1.595641834E1
1.639403883E1,1.174583301E1,1.123396541E1,2.188230996E0,1.639984533E1
1.640406883E1,1.126668292E1,1.087651342E1,1.189664483E0,1.570515807E1
1.641409883E1,1.050931530E1,1.067945290E1,-2.964311756E-2,1.498323400E1
1.642412883E1,9.998024236E0,1.076054443E1,-7.516361833E-1,1.470764298E1
1.643415883E1,8.962802187E0,1.073139372E1,-1.209166775E0,1.403412692E1
1.644418783E1,7.967120179E0,1.076244360E1,-1.367795303E0,1.346016568E1
1.645421783E1,6.901046466E0,1.068031595E1,-1.138309046E0,1.276672780E1
1.646424783E1,5.972491078E0,1.053757723E1,-7.993658352E-1,1.213878780E1
1.647427783E1,5.199903152E0,1.057742250E1,-3.462464197E-1,1.179155401E1
1.648430683E1,4.559166430E0,1.076716114E1,5.244375028E-2,1.169275450E1
1.649433683E1,3.941609241E0,1.096024555E1,2.057939974E-1,1.164927539E1
1.650436683E1,3.358290423E0,1.102897489E1,3.193268256E-1,1.153335907E1
1.651439683E1,2.682933799E0,1.081323603E1,6.575275862E-1,1.116049056E1
1.652442583E1,2.175557448E0,1.035779289E1,1.230976889E0,1.065515030E1
1.653445583E1,1.857413953E0,9.968198758E0,1.850608671E0,1.030726567E1
1.654448583E1,1.618325690E0,9.710451154E0,2.242766368E0,1.009662521E1
1.655451583E1,1.508126140E0,9.525955712E0,2.364065687E0,9.930109932E0
1.656454583E1,1.643538592E0,9.237234821E0,2.274569374E0,9.654086807E0
1.657457483E1,2.093098259E0,8.983066882E0,1.997900033E0,9.437592673E0
1.658460413E1,2.626913672E0,8.906840824E0,1.736119019E0,9.447041768E0
1.659463413E1,2.988113140E0,8.857348822E0,1.560848583E0,9.477219876E0
1.660466413E1,3.147333699E0,8.770738694E0,1.381035300E0,9.420128723E0
1.661469313E1,3.241194082E0,8.692176674E0,1.176097408E0,9.351068363E0
1.662472313E1,3.297388163E0,8.616758117E0,9.578345887E-1,9.275706779E0
1.663475313E1,3.411924008E0,8.514399099E0,5.972020085E-1,9.192000201E0
1.664478313E1,3.836566350E0,8.221400970E0,-2.099887168E-1,9.074952921E0
1.665481213E1,4.763559946E0,7.414992748E0,-2.478736457E0,9.155203724E0
1.666484213E1,6.662671856E0,5.110274692E0,-8.497410014E0,1.194621616E1
1.667487213E1,6.583299412E0,3.466656870E0,-5.461405839E0,9.229544666E0
1.668490213E1,5.505221364E0,8.920313394E-1,-1.957627920E0,5.910625115E0
1.669493213E1,5.242149285E0,-2.342989252E0,3.496611571E0,6.722798543E0
1.670496113E1,1.531028661E0,-8.543866142E0,8.368513992E0,1.205710263E1
1.671499113E1,-7.021018467E0,-2.649035209E1,1.000866500E1,2.917544909E1
1.672502113E1,-1.634910499E1,-5.538376481E1,1.339793222E1,5.928034434E1
1.673505113E1,-2.346082312E1,-7.394334652E1,1.000716811E1,7.821874539E1
1.674508013E1,-2.536773814E1,-7.126980306E1,3.154420817E0,7.571563469E1
1.675511013E1,-1.813637428E1,-4.665243108E1,-5.706082578E0,5.037793938E1
1.676514013E1,-1.253963580E1,-2.189586965E1,-1.781072530E1,3.088516649E1
1.677517013E1,-1.134752653E1,-1.239651117E1,-2.082863351E1,2.676325506E1
1.678519913E1,-1.034055179E1,-9.449762399E0,-1.414221728E1,1.990545981E1
1.679522913E1,-9.578715724E0,-9.247006688E0,-8.480389354E0,1.578530745E1
1.680525913E1,-8.190086206E0,-8.583142474E0,-5.024865582E0,1.288398700E1
1.681528913E1,-6.241927852E0,-7.141305633E0,-1.776117482E0,9.649585627E0
1.682531813E1,-4.250025016E0,-5.181882618E0,1.141779953E0,6.798402869E0
1.683534813E1,-2.361456513E0,-2.777127473E0,2.770848148E0,4.578920541E0
1.684537813E1,-5.499882272E-1,-1.484923804E-1,3.337821075E0,3.386087206E0
1.685540813E1,1.230822523E0,2.308500620E0,2.881700832E0,3.892081561E0
