"Time (s)","Linear Acceleration x (m/s^2)","Linear Acceleration y (m/s^2)","Linear Acceleration z (m/s^2)","Absolute acceleration (m/s^2)"
3.080166643E-3,6.093680178E-1,-1.668719333E-1,5.477437735E-1,8.361811195E-1
1.312816655E-2,5.491231316E-1,-2.123153239E-1,5.682464504E-1,8.182408196E-1
2.317616669E-2,5.483600700E-1,-2.396574891E-1,5.494079641E-1,8.123937404E-1
3.322516661E-2,5.175364727E-1,-2.274180973E-1,5.111624960E-1,7.621352169E-1
4.327316652E-2,4.397794680E-1,-2.246412545E-1,4.941575503E-1,6.986138836E-1
5.332116666E-2,3.254222555E-1,-1.855993956E-1,4.576113562E-1,5.914008229E-1
6.337016658E-2,1.980017786E-1,-1.578040713E-1,4.295481563E-1,4.986165338E-1
7.341816672E-2,6.226583004E-2,-1.278107786E-1,3.833691859E-1,4.088820875E-1
8.346616663E-2,-4.883199826E-2,-1.034144408E-1,3.307443181E-1,3.499584470E-1
9.351416654E-2,-1.605807678E-1,-6.509295881E-2,2.700559938E-1,3.208637033E-1
1.035631667E-1,-2.684963952E-1,-1.402162313E-2,2.145249867E-1,3.439591401E-1
1.136111666E-1,-3.711311097E-1,2.002554417E-2,1.358436835E-1,3.957181186E-1
1.236591665E-1,-4.643050294E-1,3.533121586E-2,6.700777575E-2,4.704439362E-1
1.337071666E-1,-5.331238340E-1,5.651392400E-2,1.068754077E-2,5.362173715E-1
1.437561666E-1,-5.854089054E-1,5.573449016E-2,-5.503896385E-2,5.906261148E-1
1.538041667E-1,-5.733192024E-1,6.870887697E-2,-1.080343258E-1,5.874412593E-1
1.638521666E-1,-4.676239090E-1,6.450472891E-2,-1.156627496E-1,4.860152795E-1
1.739011665E-1,-2.944843452E-1,4.183331966E-2,-9.320593312E-2,3.117024256E-1
1.839491667E-1,-9.321952790E-2,1.572140872E-2,-5.059347197E-2,1.072228636E-1
1.939971666E-1,8.357132971E-2,-2.223462224E-2,9.379957169E-3,8.698579868E-2
2.040451667E-1,2.258699007E-1,-5.195251107E-2,8.366985530E-2,2.464080359E-1
2.140941666E-1,3.091079392E-1,-5.951880813E-2,1.361161637E-1,3.429545401E-1
2.241421666E-1,3.533444645E-1,-1.072718489E-1,1.629022586E-1,4.036046407E-1
2.341901667E-1,3.691664453E-1,-1.481526572E-1,1.796557009E-1,4.364736476E-1
2.442391666E-1,3.208343840E-1,-1.589893019E-1,1.542564194E-1,3.898811909E-1
2.542871665E-1,2.080369163E-1,-1.381036323E-1,1.103648798E-1,2.730061876E-1
2.643351667E-1,1.007153660E-1,-9.065815508E-2,4.228245892E-2,1.419517255E-1
2.743831666E-1,1.762687013E-2,-4.504461050E-2,1.112842083E-2,4.963431510E-2
2.844321667E-1,-3.249473155E-2,6.317916512E-3,-1.281475782E-2,3.549706559E-2
2.944801666E-1,-8.841794059E-2,7.100858688E-2,-2.682015494E-2,1.165301349E-1
3.045281665E-1,-1.120425922E-1,1.366587853E-1,-2.106415585E-2,1.779687184E-1
3.145761667E-1,-1.240825939E-1,1.811917645E-1,-1.840250328E-2,2.203760372E-1
3.246251666E-1,-1.558091475E-1,1.917629457E-1,-8.727554083E-3,2.472360976E-1
3.346731665E-1,-2.131808580E-1,1.870875120E-1,-2.220772505E-2,2.845013154E-1
3.447211666E-1,-3.004913360E-1,1.714561504E-1,-2.687723838E-2,3.470081274E-1
3.547701666E-1,-3.718029548E-1,1.268436491E-1,-4.396748029E-2,3.952972146E-1
3.648181667E-1,-4.141704176E-1,6.865332842E-2,-6.950446375E-2,4.255364671E-1
3.748661666E-1,-3.769458733E-1,1.734050274E-2,-9.646385550E-2,3.894793446E-1
3.849141665E-1,-2.839441542E-1,1.063550055E-2,-1.168871565E-1,3.072458363E-1
3.949631667E-1,-1.821697113E-1,7.148981273E-2,-1.067876995E-1,2.229354386E-1
4.050111666E-1,-6.192625299E-2,1.473913497E-1,-8.876307249E-2,1.828604763E-1
4.150591667E-1,6.702590212E-2,1.651335561E-1,-4.618481755E-2,1.841048622E-1
4.251081666E-1,1.747832161E-1,1.408272654E-1,-5.568888187E-3,2.245272897E-1
4.351561666E-1,1.837839814E-1,1.123302752E-1,4.496633090E-2,2.200377546E-1
4.452041667E-1,9.757468030E-2,4.231454551E-2,8.871870674E-2,1.385003535E-1
4.552521666E-1,-1.755582646E-2,-5.085557342E-2,1.009697199E-1,1.144088315E-1
4.653011665E-1,-1.154857251E-1,-9.614752114E-2,1.133985615E-1,1.882565597E-1
4.753489166E-1,-2.219747780E-1,-9.964591026E-2,1.217996947E-1,2.720979146E-1
4.853969165E-1,-3.274078238E-1,-6.169865012E-2,1.268250111E-1,3.564929031E-1
4.954459167E-1,-4.250329363E-1,7.480927706E-3,1.639700333E-1,4.556260891E-1
5.054939166E-1,-4.950327323E-1,5.386221170E-2,2.055460024E-1,5.387092936E-1
5.155419167E-1,-5.661423299E-1,4.622691751E-2,2.643970585E-1,6.265459840E-1
5.255899166E-1,-6.591662684E-1,2.291523814E-2,3.216284359E-1,7.338052387E-1
5.356389165E-1,-7.649736822E-1,1.363278329E-2,3.783509593E-1,8.535338514E-1
5.456869167E-1,-8.389425682E-1,2.741291642E-2,4.214963941E-1,9.392738210E-1
5.557349166E-1,-8.834739393E-1,4.018089652E-2,4.787022630E-1,1.005632419E0
5.657839165E-1,-8.502110298E-1,5.163208365E-2,5.368024635E-1,1.006817537E0
5.758319166E-1,-7.609681933E-1,6.628462136E-2,5.949470298E-1,9.682087639E-1
5.858799166E-1,-6.284954296E-1,8.651189446E-2,6.446074323E-1,9.044388065E-1
5.959279167E-1,-4.653366244E-1,7.020868778E-2,6.884231043E-1,8.339027547E-1
6.059769166E-1,-3.351201551E-1,-5.456621647E-3,7.036584632E-1,7.794039555E-1
6.160249165E-1,-2.208300394E-1,-3.527098954E-2,6.781752741E-1,7.140949877E-1
6.260729167E-1,-1.541380133E-1,1.053200483E-2,6.332429302E-1,6.518175043E-1
6.361219166E-1,-1.405430907E-1,8.241591990E-2,5.655473757E-1,5.885478556E-1
6.461699167E-1,-1.506672522E-1,1.150580013E-1,4.692753819E-1,5.061208834E-1
6.562179166E-1,-1.926667790E-1,1.296240002E-1,3.625508324E-1,4.305414907E-1
6.662659165E-1,-2.474845719E-1,9.989675581E-2,2.897810642E-1,3.939556324E-1
6.763149167E-1,-2.827194549E-1,7.124773800E-2,2.326644384E-1,3.730137682E-1
6.863629166E-1,-2.675041227E-1,3.455762923E-2,2.471782509E-1,3.658548525E-1
6.964109165E-1,-1.940528615E-1,5.302079737E-2,3.594015221E-1,4.118703340E-1
7.064599167E-1,-1.436520553E-1,1.017368746E-1,6.669616301E-1,6.898000585E-1
7.165079166E-1,-1.943842524E-1,1.604107600E-1,1.203735881E0,1.229836136E0
7.265559167E-1,-3.259965983E-1,1.678244448E-1,1.860255553E0,1.896045767E0
7.366039166E-1,-3.908221932E-1,1.579987836E-1,2.461213521E0,2.497053783E0
7.466529165E-1,-3.250122195E-1,1.752480698E-1,2.775817112E0,2.800268820E0
7.567009167E-1,-1.640338410E-1,1.820366871E-1,2.745401065E0,2.756314834E0
7.667489166E-1,9.074747130E-2,2.038508946E-1,2.373727480E0,2.384192199E0
7.767979165E-1,5.115331364E-1,2.640900797E-1,1.734721534E0,1.827749578E0
7.868459166E-1,9.455761935E-1,4.092881387E-1,1.089149092E0,1.499292121E0
7.968939166E-1,1.296542888E0,6.575264168E-1,7.707811368E-1,1.645438546E0
8.069419167E-1,1.314504219E0,1.122714522E0,8.951303637E-1,1.946706862E0
8.169909166E-1,1.264374577E0,1.624458835E0,9.991944301E-1,2.288208707E0
8.270389165E-1,1.561365623E0,2.198448420E0,1.258671641E-1,2.699422273E0
8.370869167E-1,2.068673269E0,2.775622984E0,-2.028815432E0,4.012428704E0
8.471359166E-1,1.636862825E0,3.103217919E0,-5.333185170E0,6.383740708E0
8.571839167E-1,-1.129921508E0,3.511926014E0,-4.154315159E0,5.555959087E0
8.672319166E-1,-4.754728312E0,3.910328391E0,1.095800958E0,6.252910457E0
8.772799165E-1,-6.918374104E0,3.666771394E0,2.791172485E0,8.312626333E0
8.873289167E-1,-6.723688720E0,3.072126519E0,1.023159828E0,7.462761379E0
8.973769166E-1,-3.034333918E0,2.186967412E0,9.299815232E-1,3.854202177E0
9.074249165E-1,7.953166384E-1,1.141537879E0,6.923482671E-1,1.554021688E0
9.174739167E-1,1.963248556E0,8.006077838E-1,-1.445001939E0,2.565803640E0
9.275219166E-1,2.050834292E0,1.724434528E0,-3.309517043E0,4.258227188E0
9.375699167E-1,2.497179744E0,2.720773178E0,-3.181486993E0,4.874461288E0
9.476179166E-1,4.343616427E0,3.289780936E0,-2.518218026E0,6.002589799E0
9.576669165E-1,5.971140372E0,3.002346432E0,-1.480081725E0,6.845381169E0
9.677149167E-1,6.117987930E0,2.443778878E0,-9.382816458E-1,6.654487506E0
9.777629166E-1,4.208028266E0,1.355417333E0,-2.531249716E0,5.094299084E0
9.878119165E-1,3.259207599E0,-3.148187685E-1,-3.575653648E0,4.848385715E0
9.978599166E-1,2.037972756E0,-2.029214796E0,-1.203201592E0,3.117489329E0
1.007907917E0,-1.172455616E0,-4.093502946E0,9.421758914E-1,4.361090913E0
1.017955917E0,-5.200125931E0,-6.877133693E0,-3.179604775E-1,8.627709800E0
1.028004917E0,-7.972372148E0,-1.055811031E1,-2.161684929E-1,1.323174742E1
1.038052917E0,-9.340947470E0,-1.405159128E1,5.794690114E-1,1.688301814E1
1.048100917E0,-1.064279904E1,-1.631307678E1,3.746292796E-1,1.948142687E1
1.058149917E0,-1.033165350E1,-1.607598856E1,1.027639819E0,1.913730691E1
1.068197917E0,-7.146259979E0,-1.267115956E1,2.099243975E0,1.469809993E1
1.078245917E0,-2.365984012E0,-1.007053439E1,1.780460209E0,1.049683675E1
1.088293917E0,1.302730996E0,-9.026250324E0,2.064192694E0,9.350464931E0
1.098342917E0,1.840224600E0,-8.166665184E0,1.758332006E0,8.554097162E0
1.108390917E0,1.288007707E0,-8.306798970E0,9.502755276E-1,8.459603806E0
1.118438917E0,5.779504895E-2,-9.540161523E0,3.285936026E-1,9.545993709E0
1.128487917E0,-1.873085075E0,-1.206087163E1,-1.434203886E0,1.228942688E1
1.138535917E0,-4.590239704E0,-1.674568888E1,-2.824351925E0,1.759162756E1
1.148583917E0,-7.045650448E0,-2.100241744E1,-3.412470138E0,2.241400635E1
1.158631917E0,-9.255791545E0,-2.355399734E1,-3.343123330E0,2.552718044E1
1.168680917E0,-1.194441381E1,-2.414127998E1,-2.640230706E0,2.706365161E1
1.178728917E0,-1.302400511E1,-2.053550323E1,-2.318574203E0,2.442759482E1
1.188776917E0,-9.254765943E0,-1.238742927E1,-1.043009956E0,1.549796652E1
1.198825917E0,-5.100535569E0,-4.856074592E0,2.477722184E-1,7.046865588E0
1.208873917E0,-2.604925218E0,3.124880683E-1,6.540742207E-1,2.703904079E0
1.218921917E0,-1.084055509E0,3.844665329E0,3.517240548E-1,4.010029632E0
1.228970917E0,-3.215647012E-2,6.421346741E0,3.411990301E-1,6.430485579E0
1.239018917E0,8.475265731E-1,8.641421088E0,1.097907125E0,8.752020325E0
1.249066917E0,1.890057934E0,1.021984889E1,2.108803003E0,1.060493660E1
1.259114917E0,2.655425865E0,1.101892470E1,3.058621205E0,1.173981055E1
1.269163917E0,2.592913283E0,1.135018935E1,3.365354444E0,1.211922473E1
1.279211917E0,2.212184261E0,1.185350481E1,3.002355788E0,1.242632189E1
1.289259917E0,1.874299542E0,1.214438975E1,2.666812148E0,1.257422317E1
1.299308917E0,2.069819324E0,1.116198619E1,2.339713057E0,1.159087334E1
1.309356917E0,1.849804825E0,1.084590910E1,1.532130130E0,1.110868781E1
1.319404917E0,1.666854656E0,1.050878671E1,2.310112113E-1,1.064266737E1
1.329452917E0,1.472697861E0,1.024740448E1,-1.331703365E0,1.043798694E1
1.339501917E0,1.183225895E0,1.019329434E1,-2.386111298E0,1.053550189E1
1.349549917E0,8.711610188E-1,1.021582016E1,-2.895712515E0,1.065396893E1
1.359597917E0,1.644856115E-1,1.025036551E1,-3.315757191E0,1.077456701E1
1.369646917E0,-4.609490199E-1,1.022632175E1,-3.620228727E0,1.085800104E1
1.379694917E0,-8.712792787E-1,1.017263379E1,-3.599468772E0,1.082579241E1
1.389742917E0,-9.665463553E-1,1.014974896E1,-3.518691827E0,1.078576877E1
1.399790917E0,-9.532724449E-1,1.016906114E1,-3.395900298E0,1.076339499E1
1.409839917E0,-8.139156812E-1,1.019171092E1,-3.248448722E0,1.072780729E1
1.419887917E0,-7.894919345E-1,1.016808349E1,-3.115619279E0,1.066397219E1
1.429935917E0,-7.503517693E-1,1.016271691E1,-3.013674828E0,1.062666828E1
1.439984917E0,-6.774927579E-1,1.024127893E1,-2.857959382E0,1.065414109E1
1.450032917E0,-7.597769693E-1,1.034344616E1,-2.679765485E0,1.071192245E1
1.460080917E0,-8.818680746E-1,1.047239013E1,-2.583005760E0,1.082222552E1
1.470128917E0,-8.385804062E-1,1.058738264E1,-2.479158041E0,1.090605854E1
1.480177542E0,-8.596994528E-1,1.082565902E1,-2.185577529E0,1.107748733E1
1.490225542E0,-1.394501584E0,1.107513165E1,-2.082016323E0,1.135508554E1
1.500273542E0,-1.728932645E0,1.144216137E1,-1.839052818E0,1.171726846E1
1.510322542E0,-1.237696656E0,1.167622191E1,-1.521648411E0,1.183982537E1
1.520370542E0,-2.685614455E-1,1.175406589E1,-1.261249679E0,1.182459052E1
1.530418542E0,5.056683791E-1,1.190318860E1,-1.034354907E0,1.195874113E1
1.540467542E0,1.047212861E0,1.212490800E1,-6.978388757E-1,1.219003806E1
1.550515542E0,1.377064894E0,1.254387153E1,-4.111890686E-1,1.262592955E1
1.560563542E0,1.557181064E0,1.294582316E1,-3.096188396E-1,1.304281465E1
1.570611542E0,1.715659611E0,1.319993731E1,-4.729578853E-2,1.331105066E1
1.580660542E0,2.515361954E0,1.309287830E1,2.202733845E0,1.351305089E1
1.590708542E0,5.658924199E0,1.143693162E1,1.151424819E1,1.718734241E1
1.600756542E0,5.229516960E0,8.762905764E0,1.000653661E1,1.429220557E1
1.610805542E0,3.130612124E0,8.846029782E0,1.983743924E0,9.591048698E0
1.620853542E0,2.891246996E0,9.019506730E0,-1.193539506E-1,9.472331086E0
1.630901542E0,3.069618941E0,8.724829865E0,-1.184177383E-1,9.249823748E0
1.640950542E0,3.296008513E0,8.279326996E0,-2.221129185E-1,8.914048562E0
1.650998542E0,3.388246878E0,7.933617972E0,-5.996740651E-1,8.647665582E0
1.661046542E0,2.779822162E0,7.438026100E0,-1.953634272E0,8.177305814E0
1.671094542E0,-2.378138035E0,4.834483749E0,-4.871895989E0,7.263824348E0
1.681143542E0,-7.117966472E0,-3.730342323E-1,-1.067626383E1,1.283694709E1
1.691191542E0,-1.340001967E1,-7.625862640E0,-1.720524962E1,2.310270380E1
1.701239542E0,-1.943511221E1,-1.637967306E1,-1.634113289E1,3.021671558E1
1.711288542E0,-2.005754715E1,-3.204662199E1,-8.806321925E0,3.881806904E1
1.721336542E0,-1.197578880E1,-4.512395020E1,-1.795704778E-1,4.668642891E1
1.731384542E0,-3.213764793E0,-5.382941116E1,2.280064295E0,5.397344239E1
1.741432542E0,5.446738683E0,-6.018917971E1,5.667530715E-1,6.043778226E1
1.751481542E0,9.637146950E0,-5.198714530E1,1.194352415E0,5.288633430E1
1.761529542E0,1.013131035E1,-3.918910583E1,1.124455589E1,4.201034995E1
1.771577542E0,8.538045824E0,-2.154484492E1,2.078624587E1,3.113111926E1
1.781626542E0,4.351924151E0,-8.915076628E0,1.308204808E1,1.641821602E1
1.791674542E0,-1.451311962E0,-3.605835221E0,3.104287959E0,4.974430398E0
1.801722542E0,-2.270076520E0,-2.994978940E-1,1.028104234E0,2.509969065E0
1.811771542E0,-5.128417432E-2,8.183681166E-1,2.301897506E-1,8.516711584E-1
1.821819542E0,2.662294882E0,5.734072030E-1,-7.635365096E-1,2.828356035E0
1.831867542E0,4.256658097E0,1.974528712E-1,-2.214041190E0,4.802093729E0
1.841915542E0,4.042503239E0,-1.912571615E-1,-2.957718143E0,5.012634872E0
1.851964542E0,2.435350409E0,-1.030799800E-1,-2.624135660E0,3.581570194E0
1.862012542E0,4.718723497E-1,-4.553694606E-2,-2.070244709E0,2.123829155E0
1.872060542E0,-1.098983890E0,-2.575663412E-1,-1.837100433E0,2.156164189E0
1.882109542E0,-2.331802944E0,-6.568586648E-2,-1.858297759E0,2.982430245E0
1.892157542E0,-2.996019160E0,4.507910907E-1,-1.792903084E0,3.520489296E0
1.902205542E0,-3.478986309E0,1.135724577E0,-1.633413261E0,4.007649552E0
1.912254542E0,-4.000792126E0,2.052658038E0,-1.508418501E0,4.742896692E0
1.922302542E0,-4.509846336E0,3.018709280E0,-1.410509799E0,5.607214779E0
1.932350542E0,-4.973625262E0,3.966870382E0,-1.307955483E0,6.494902341E0
1.942398542E0,-5.403297964E0,4.839462653E0,-1.240101469E0,7.358931941E0
1.952447542E0,-5.706083747E0,5.699253030E0,-1.207064043E0,8.154623255E0
1.962495542E0,-5.930671792E0,6.421186527E0,-1.095338370E0,8.809328605E0
1.972543542E0,-6.131430679E0,6.901939335E0,-8.217752892E-1,9.268577204E0
1.982592542E0,-6.220853317E0,7.154726163E0,-5.057596322E-1,9.494467613E0
1.992640542E0,-6.315134992E0,7.276063489E0,-2.914667434E-1,9.638826833E0
2.002688542E0,-6.471077310E0,7.313419595E0,-1.772612661E-1,9.766901724E0
2.012737542E0,-6.415449824E0,7.215596847E0,-1.269617629E-1,9.656031979E0
2.022785542E0,-6.127780262E0,6.750958380E0,-1.104808191E-1,9.117967756E0
2.032833542E0,-5.678049272E0,6.118274444E0,-1.871448147E-1,8.349164562E0
2.042881542E0,-5.214583756E0,5.381227648E0,-2.215416821E-1,7.496570914E0
2.052930542E0,-4.770215247E0,4.519993594E0,-2.199980537E-1,6.575233436E0
2.062978542E0,-4.342798401E0,3.541752661E0,-2.263784258E-1,5.608489730E0
2.073026542E0,-3.915244145E0,2.440962274E0,-3.000697517E-1,4.623578203E0
2.083075542E0,-3.625829775E0,1.215647829E0,-1.633629461E-1,3.827679277E0
2.093123542E0,-3.602992889E0,-7.909060836E-2,3.690886773E-2,3.604049854E0
2.103171542E0,-3.412907510E0,-1.145773602E0,9.119390622E-3,3.600113607E0
2.113220542E0,-2.863287950E0,-2.432486735E0,-2.332021630E-1,3.764278529E0
2.123268542E0,-2.102950525E0,-3.698328817E0,-6.091771062E-1,4.297805684E0
2.133316542E0,-1.219471323E0,-4.948077607E0,-1.127310580E0,5.219330556E0
2.143364542E0,8.826430500E-2,-5.788296184E0,-1.876125920E0,6.085393312E0
2.153413542E0,9.814545625E-1,-6.693107198E0,-1.939874458E0,7.037332586E0
2.163461542E0,2.450202044E0,-7.613639621E0,-1.773058219E0,8.192358255E0
2.173509542E0,3.687821370E0,-8.168847365E0,-1.738843821E0,9.129823195E0
2.183558542E0,4.821512285E0,-8.365351818E0,-1.802367972E0,9.822149564E0
2.193606542E0,4.848100160E0,-7.431038092E0,-1.689030222E0,9.032011148E0
2.203654542E0,3.520675203E0,-5.101471708E0,-2.117957404E0,6.550260379E0
2.213703542E0,2.349310092E0,-2.610624499E0,-1.913267434E0,3.999401262E0
2.223751542E0,2.041416766E0,-1.310045278E0,-5.345080892E-1,2.483807549E0
2.233799542E0,1.701592380E0,-5.439243722E-1,4.899183921E-1,1.852374255E0
2.243847542E0,9.984243518E-1,6.315934306E-1,1.049950747E0,1.580556237E0
2.253896542E0,3.646013778E-1,1.746880819E0,1.444846988E0,2.296107484E0
2.263944542E0,-7.486365616E-2,2.423380866E0,1.689253439E0,2.954988421E0
2.273992542E0,-1.890925223E-1,2.954173561E0,1.816659737E0,3.473204574E0
2.284041542E0,3.232779354E-2,3.244398941E0,1.907623701E0,3.763800972E0
2.294089542E0,6.429457998E-1,3.242041928E0,1.888932492E0,3.806872880E0
2.304137542E0,1.722535060E0,3.222332134E0,2.101050911E0,4.214850690E0
2.314186542E0,3.206468638E0,3.143362563E0,2.617275707E0,5.197335995E0
2.324234542E0,4.321782339E0,2.828836740E0,2.527456627E0,5.750491882E0
2.334282542E0,4.516632906E0,2.320317843E0,2.025293215E0,5.466777873E0
2.344330542E0,4.166430882E0,1.892544901E0,1.466375266E0,4.805322978E0
2.354379542E0,3.699540652E0,1.678668956E0,1.010044962E0,4.186253854E0
2.364427542E0,3.369441940E0,1.535468890E0,6.587389831E-1,3.760949447E0
2.374475542E0,3.406812957E0,1.321031027E0,3.390170319E-1,3.669663478E0
2.384524542E0,3.358903795E0,1.062630288E0,2.326607108E-2,3.523061048E0
2.394572542E0,3.027847601E0,8.926143068E-1,-2.058405559E-1,3.163382957E0
2.404620542E0,2.195189475E0,8.446881884E-1,-1.945567453E-1,2.360128660E0
2.414669542E0,1.398527099E0,7.210540760E-1,-7.639621139E-2,1.575320097E0
2.424717542E0,9.631463456E-1,4.307632077E-1,-5.254417621E-2,1.056394204E0
2.434765542E0,8.258241937E-1,1.188861734E-1,-9.821209989E-2,8.400982904E-1
2.444814542E0,7.571097618E-1,-1.478678977E-1,-1.596617317E-1,7.877639083E-1
2.454862542E0,6.692018446E-1,-3.383070338E-1,-2.207570954E-1,7.816754142E-1
2.464910542E0,5.243815157E-1,-4.200195336E-1,-2.995025718E-1,7.355910366E-1
2.474959625E0,3.036792380E-1,-4.781630766E-1,-3.870657226E-1,6.860618638E-1
2.485008625E0,3.508300155E-2,-5.228972000E-1,-4.663060196E-1,7.014938365E-1
2.495056625E0,-1.736798465E-1,-4.977991962E-1,-5.486745771E-1,7.609287223E-1
2.505104625E0,-3.604668117E-1,-5.239496988E-1,-6.441620207E-1,9.052095437E-1
2.515153625E0,-5.118711054E-1,-5.934882957E-1,-7.024095710E-1,1.052435077E0
2.525201625E0,-7.172533858E-1,-6.180980569E-1,-7.681101286E-1,1.219217289E0
2.535249625E0,-9.066131258E-1,-6.725268638E-1,-8.414049768E-1,1.407906985E0
2.545298625E0,-1.129411923E0,-7.551778418E-1,-8.546523555E-1,1.605084270E0
2.555346625E0,-1.333916536E0,-7.907996643E-1,-8.167998934E-1,1.752672103E0
2.565394625E0,-1.545143693E0,-8.293544501E-1,-7.633690600E-1,1.912597751E0
2.575442625E0,-1.823619677E0,-8.223962635E-1,-6.486549481E-1,2.103016306E0
2.585491625E0,-1.938634409E0,-8.190306062E-1,-5.091602632E-1,2.165261804E0
2.595539625E0,-1.977313156E0,-7.866189051E-1,-3.603964989E-1,2.158337846E0
2.605587625E0,-2.094860902E0,-7.355195028E-1,-2.391511933E-1,2.233075106E0
2.615636625E0,-2.271808757E0,-7.397482091E-1,-1.524942148E-1,2.394075381E0
2.625684625E0,-2.338766978E0,-8.124185747E-1,-1.039599129E-1,2.478036033E0
2.635732625E0,-2.261993621E0,-9.242570990E-1,-1.687951557E-1,2.449358718E0
2.645781625E0,-2.055857635E0,-1.088671448E0,-2.827291759E-1,2.343435922E0
2.655829625E0,-1.793315313E0,-1.142368768E0,-3.861278292E-1,2.161037000E0
2.665877625E0,-1.520906984E0,-9.935372490E-1,-3.557937169E-1,1.851178946E0
2.675926625E0,-1.077699147E0,-7.247442538E-1,-2.207744177E-1,1.317357594E0
2.685974625E0,-7.487096518E-1,-4.028012377E-1,-9.106453657E-2,8.550483785E-1
2.696022625E0,-6.425019962E-1,-1.337135428E-1,1.541326046E-2,6.564493089E-1
2.706070625E0,-5.423830462E-1,1.159596419E-1,6.545957923E-2,5.584898959E-1
2.716119625E0,-3.654597491E-1,2.921356648E-1,7.776080534E-2,4.742898035E-1
2.726167625E0,-4.156142414E-2,3.613590968E-1,7.558110952E-2,3.715107709E-1
2.736215625E0,3.395571685E-1,3.022495937E-1,1.068835938E-1,4.669882121E-1
2.746264625E0,7.076306230E-1,1.490870422E-1,1.522088706E-1,7.390098680E-1
2.756312625E0,9.379571253E-1,-3.327007234E-2,2.303276718E-1,9.663960384E-1
2.766360625E0,1.091509101E0,-5.004807293E-2,3.244865549E-1,1.139819482E0
2.776409625E0,1.164209872E0,-1.661018550E-2,4.399456751E-1,1.244673741E0
2.786457625E0,1.206182648E0,8.440397322E-2,5.776826870E-1,1.340043991E0
2.796505625E0,1.221698820E0,2.771042275E-1,7.406632984E-1,1.455306456E0
2.806554625E0,1.092985816E0,4.189570946E-1,9.224685819E-1,1.490332622E0
2.816602625E0,9.048346952E-1,4.577714968E-1,1.106330477E0,1.500749044E0
2.826650625E0,6.467286560E-1,3.732418084E-1,1.256701130E0,1.461802015E0
2.836699625E0,4.002541906E-1,2.543164587E-1,1.313288144E0,1.396282932E0
2.846747625E0,2.343201506E-1,1.454541671E-1,1.292184373E0,1.321288501E0
2.856795625E0,1.279958430E-1,4.064399600E-2,1.209139878E0,1.216574746E0
2.866843625E0,2.414753884E-2,-5.139819503E-2,1.074367404E0,1.075867184E0
2.876892625E0,-9.193109393E-2,-9.150366247E-2,8.981277926E-1,9.074457439E-1
2.886940625E0,-1.712272319E-1,-7.658916950E-2,6.885518161E-1,7.136443577E-1
2.896988625E0,-2.277841330E-1,-8.487701297E-2,4.641684969E-1,5.239676632E-1
2.907037625E0,-2.768273619E-1,-1.351806092E-1,2.671277813E-1,4.077553641E-1
2.917085625E0,-2.979782027E-1,-1.609744316E-1,1.198482596E-1,3.592594915E-1
2.927133625E0,-2.775597256E-1,-1.704024822E-1,-1.425653502E-2,3.260056073E-1
2.937182625E0,-2.360278299E-1,-1.601260006E-1,-1.238171303E-1,3.109343248E-1
2.947230625E0,-2.126866221E-1,-1.818799818E-1,-2.336934753E-1,3.645937018E-1
2.957278625E0,-2.003422728E-1,-2.030346233E-1,-3.395959063E-1,4.434923495E-1
2.967327625E0,-2.166112733E-1,-1.552283728E-1,-4.143711233E-1,4.926659307E-1
2.977375625E0,-2.222748864E-1,-4.059078634E-2,-4.515489630E-1,5.049259381E-1
2.987423625E0,-2.214638776E-1,8.337427855E-2,-4.230190091E-1,4.847087800E-1
2.997471625E0,-2.633170778E-1,1.519089085E-1,-3.137825688E-1,4.368886590E-1
3.007520625E0,-3.292628530E-1,1.462768704E-1,-1.043446597E-1,3.750983300E-1
3.017568625E0,-4.347825837E-1,9.791805804E-2,2.287666114E-1,5.009570877E-1
3.027616625E0,-5.726324469E-1,1.883563578E-2,6.798839767E-1,8.891034373E-1
3.037665625E0,-7.062460023E-1,-1.473697150E-1,1.367311739E0,1.545976274E0
3.047713625E0,-7.800627145E-1,-4.713493162E-1,2.313956072E0,2.486978231E0
3.057761625E0,-9.337290037E-1,-7.894390172E-1,3.581368132E0,3.784344264E0
3.067810625E0,-1.195835415E0,-9.210656887E-1,5.011502355E0,5.233883854E0
3.077858625E0,-1.085318362E0,-8.085822165E-1,5.827663733E0,5.982757368E0
3.087906625E0,-5.466608691E-1,-4.032526428E-1,5.380216080E0,5.422930561E0
3.097955625E0,3.159376332E-1,1.627309352E-1,3.773752052E0,3.790448851E0
3.108003625E0,1.064558700E0,7.741672593E-1,1.448866364E0,1.957507065E0
3.118051625E0,1.308762107E0,1.537814208E0,-1.113616839E0,2.306051442E0
3.128100625E0,5.714606649E-1,2.339099684E0,-3.556167802E0,4.294680903E0
3.138148625E0,-9.811458296E-1,2.720831650E0,-6.484700153E0,7.100486468E0
3.148196625E0,-2.793758124E0,2.426897382E0,-7.017487918E0,7.933476668E0
3.158244625E0,-5.856465948E0,2.321825255E0,-4.601838825E0,7.801665623E0
3.168293625E0,-8.404360932E0,2.146214073E0,1.475804486E0,8.798722430E0
3.178341625E0,-8.731588662E0,2.007736804E0,4.214964818E0,9.901392632E0
3.188389625E0,-4.836779658E0,1.924184770E0,3.816751891E0,6.454805921E0
3.198438625E0,-1.903209930E0,1.780229829E0,1.502519245E0,3.008153980E0
3.208486625E0,-7.032095432E-1,2.031866509E0,-5.410709675E-1,2.217147483E0
3.218534625E0,2.460099041E-1,2.585339969E0,-1.739222721E0,3.125603830E0
3.228583625E0,2.455525349E0,3.570503420E0,-1.130526402E0,4.478413710E0
3.238631625E0,4.806134985E0,5.210956728E0,3.916967905E-1,7.099748580E0
3.248679625E0,5.379437816E0,6.082317576E0,-6.892743858E-1,8.149112681E0
3.258728625E0,5.013437784E0,5.807562760E0,-3.414423108E0,8.397656148E0
3.268776625E0,5.819981076E0,5.218434148E0,-3.355735189E0,8.506773380E0
3.278824625E0,8.217499123E0,2.920811688E0,-1.336716183E0,8.822995121E0
3.288873625E0,9.605658524E0,-2.002406482E0,-2.780431734E0,1.019848558E1
3.298921625E0,8.081821500E0,-7.938200435E0,-5.110242532E0,1.242760812E1
3.308969625E0,5.218463969E0,-1.571528552E1,-1.985873480E0,1.667771743E1
3.319018625E0,2.577167900E0,-2.567968710E1,1.642619117E0,2.586090334E1
3.329066625E0,3.008931566E0,-3.362746586E1,5.286178234E0,3.417314456E1
3.339114625E0,6.148542556E0,-3.614520441E1,6.810368430E0,3.729157406E1
3.349162625E0,9.153317921E0,-3.060155281E1,5.794769636E0,3.246255717E1
3.359211625E0,1.075568188E1,-1.929616950E1,4.020588167E0,2.245421964E1
3.369259625E0,9.386824139E0,-1.247773133E1,1.789138647E0,1.571646473E1
3.379307625E0,8.113912189E0,-9.654207371E0,8.152854645E-1,1.263740406E1
3.389356625E0,7.310114164E0,-9.222615613E0,1.105177553E0,1.182014489E1
3.399404625E0,6.946201004E0,-9.668538896E0,1.131149642E0,1.195867268E1
3.409452625E0,5.731198708E0,-1.121950057E1,9.376407178E-1,1.263340816E1
3.419501625E0,3.246002832E0,-1.143297540E1,6.884136757E-1,1.190476267E1
3.429549625E0,2.430710936E-1,-9.551212175E0,5.848578054E-1,9.572188685E0
3.439597625E0,-2.514434878E0,-6.595232409E0,6.833815619E-1,7.091296330E0
3.449646625E0,-4.600648332E0,-3.335538322E0,5.459234621E-1,5.708748847E0
3.459694625E0,-6.065167108E0,-2.997002077E-1,5.478238438E-1,6.097227503E0
3.469742625E0,-7.643685538E0,2.191044676E0,6.999052817E-1,7.982259879E0
3.479790750E0,-9.258823326E0,3.847107126E0,2.250248319E-1,1.002879249E1
3.489838750E0,-1.065336146E1,5.374273555E0,-8.441134071E-1,1.196200042E1
3.499886750E0,-1.137450909E1,6.736378348E0,-1.853869078E0,1.334897302E1
3.509935750E0,-1.060543300E1,7.499196746E0,-1.616419498E0,1.308915478E1
3.519983750E0,-9.169468516E0,7.903933412E0,-4.676252246E-1,1.211486647E1
3.530031750E0,-7.684118450E0,8.549297621E0,1.937210612E0,1.165714164E1
3.540080750E0,-7.276641194E0,9.517429302E0,5.258744853E0,1.308378252E1
3.550128750E0,-7.525560672E0,9.522083101E0,4.856159962E0,1.307235325E1
3.560176750E0,-7.552671288E0,8.708841823E0,1.505362746E0,1.162552736E1
3.570224750E0,-7.908132883E0,8.097178043E0,-5.490296493E-1,1.133156174E1
3.580273750E0,-9.374335071E0,7.544448348E0,-2.048150420E0,1.220621887E1
3.590321750E0,-1.034832274E1,7.415140682E0,-3.651449350E0,1.324406196E1
3.600369750E0,-9.758671387E0,7.550959808E0,-4.175147911E0,1.302614760E1
3.610418750E0,-8.525028752E0,7.781200356E0,-4.265090075E0,1.230504724E1
3.620466750E0,-7.892396271E0,7.790143088E0,-4.172071691E0,1.184830918E1
3.630514750E0,-7.665090441E0,7.695815805E0,-4.236588991E0,1.165881120E1
3.640563750E0,-7.480763984E0,7.717314262E0,-4.456555982E0,1.163527655E1
3.650611750E0,-7.074832147E0,7.770112866E0,-4.457585092E0,1.141481356E1
3.660659750E0,-6.640765262E0,7.804189269E0,-4.243926955E0,1.109126005E1
3.670708750E0,-6.337633908E0,7.848745637E0,-4.226647263E0,1.093768525E1
3.680756750E0,-6.155987231E0,7.872696417E0,-4.216181039E0,1.084673731E1
3.690804750E0,-6.049193684E0,7.925779195E0,-4.151971595E0,1.080044389E1
3.700853750E0,-5.959310285E0,7.964844443E0,-4.244692940E0,1.081524592E1
3.710901750E0,-5.906256158E0,8.012782255E0,-4.259880790E0,1.082751706E1
3.720949750E0,-5.804928004E0,8.099273685E0,-4.141536654E0,1.079109583E1
3.730998750E0,-5.661605732E0,8.168947937E0,-3.905787444E0,1.067898241E1
3.741046750E0,-5.471026847E0,8.278267481E0,-3.691765317E0,1.058730270E1
3.751094750E0,-5.296472257E0,8.402021461E0,-3.506819348E0,1.053301310E1
3.761143750E0,-5.153442931E0,8.531084713E0,-3.462175857E0,1.055102090E1
3.771191750E0,-5.028918872E0,8.705342265E0,-3.460071736E0,1.063226718E1
3.781239750E0,-4.881663178E0,8.906168979E0,-3.470915982E0,1.073302096E1
3.791288750E0,-4.718752148E0,9.049658482E0,-3.522347214E0,1.079675277E1
3.801336750E0,-4.557850514E0,9.155637512E0,-3.510081802E0,1.081297248E1
3.811384750E0,-4.281695875E0,9.162222061E0,-3.555210612E0,1.072001657E1
3.821433750E0,-3.754532546E0,8.917473986E0,-3.586928541E0,1.031910429E1
3.831481750E0,-3.486689139E0,8.450566215E0,-3.438730861E0,9.766982156E0
3.841529750E0,-3.236045024E0,8.101105033E0,-3.180641778E0,9.285277178E0
3.851577750E0,-7.844349700E-1,3.759865499E0,5.515583800E0,6.721130221E0
3.861626750E0,-5.917484567E-1,1.163814016E0,1.375712083E1,1.381893638E1
3.871674750E0,-2.254023428E0,3.866599404E0,4.951269602E0,6.674300206E0
3.881722750E0,-1.452286839E0,3.759823984E0,-5.826699235E-1,4.072458433E0
3.891771750E0,-1.522648577E-1,1.238788769E0,-2.765264642E0,3.033887068E0
3.901819750E0,5.517924441E0,-9.744304778E0,-8.629641287E0,1.413752717E1
3.911867750E0,1.532942542E1,-3.057214131E1,-1.097414555E1,3.591766945E1
3.921916750E0,1.829692829E1,-5.361663800E1,7.111898232E-1,5.665710235E1
3.931964750E0,1.762506334E1,-6.436479335E1,6.505036769E0,6.705061509E1
3.942012750E0,9.738468672E0,-5.872435395E1,7.194754447E0,5.995958648E1
3.952061750E0,-6.254395285E0,-4.030471248E1,1.419615901E1,4.318701471E1
3.962109750E0,-8.551464599E0,-1.694306632E1,1.230430408E1,2.261837620E1
3.972157750E0,9.298610705E-1,-6.970047703E0,4.253962823E0,8.218418723E0
3.982206750E0,2.269377193E0,-2.290906933E0,2.686685957E-2,3.224755688E0
3.992254750E0,1.191752305E0,1.390604122E0,-1.217075792E0,2.198937667E0
4.002302750E0,3.978420679E-1,3.767078040E0,-2.861182367E0,4.747159130E0
4.012351750E0,1.102596299E-1,4.562080683E0,-3.893636929E0,5.998762029E0
4.022399750E0,1.212839703E-1,3.942239571E0,-4.054551719E0,5.656443430E0
4.032447750E0,6.483607601E-1,2.181654047E0,-3.565292382E0,4.229810377E0
4.042496750E0,1.653431496E0,-2.333220309E-1,-2.576798941E0,3.070532147E0
4.052544750E0,2.409037354E0,-2.169860213E0,-2.161852452E0,3.896839789E0
4.062592750E0,2.211060280E0,-3.571257126E0,-1.950616524E0,4.631152108E0
4.072641750E0,1.417948334E0,-4.011045511E0,-1.712496852E0,4.586034130E0
4.082689750E0,5.060089794E-1,-3.480150490E0,-1.486290444E0,3.817925065E0
4.092737750E0,-2.537960565E-1,-2.236726048E0,-1.197082919E0,2.549581018E0
4.102786750E0,-1.014265628E0,-4.868777668E-1,-7.014635646E-1,1.325834023E0
4.112834750E0,-1.312366915E0,9.179567242E-1,-1.698218536E-1,1.610525048E0
4.122882750E0,-1.403973196E0,1.818555404E0,3.866354406E-2,2.297777048E0
4.132931750E0,-1.645755563E0,2.622545217E0,1.415501274E-1,3.099401754E0
4.142979750E0,-2.037477497E0,3.371282351E0,1.923253016E-1,3.943836744E0
4.153027750E0,-2.387182800E0,4.096311949E0,2.908900617E-1,4.750055824E0
4.163076750E0,-2.767010328E0,4.793731579E0,3.353272196E-1,5.545146793E0
4.173124750E0,-3.110722820E0,5.294245053E0,4.145197157E-1,6.154466162E0
4.183172750E0,-3.247181338E0,5.658081615E0,5.786984215E-1,6.549272179E0
4.193221750E0,-3.163955579E0,5.689356033E0,7.763120911E-1,6.556069511E0
4.203269750E0,-2.857047801E0,5.162306725E0,1.001689437E0,5.984606469E0
4.213317750E0,-2.359070265E0,4.213401858E0,1.087191517E0,4.949742733E0
4.223365750E0,-2.019216058E0,3.031553274E0,1.150008740E0,3.819694863E0
4.233414750E0,-1.874504487E0,1.946483127E0,1.124099727E0,2.926800955E0
4.243462750E0,-1.799715090E0,1.185107237E0,1.083247570E0,2.411820654E0
4.253511750E0,-1.889660470E0,5.302629375E-1,1.011882303E0,2.208144305E0
4.263559750E0,-1.926921852E0,1.791762292E-2,9.530528820E-1,2.149804330E0
4.273607750E0,-1.977299708E0,-3.698375595E-1,9.509665954E-1,2.225046386E0
4.283656750E0,-2.198917367E0,-8.103445673E-1,1.044327918E0,2.565641578E0
4.293704750E0,-2.312944504E0,-1.109302179E0,1.092301984E0,2.788079487E0
4.303752750E0,-2.125885643E0,-1.333927061E0,1.051051047E0,2.720929892E0
4.313800750E0,-1.919563715E0,-1.513754085E0,9.211574900E-1,2.612414096E0
4.323849750E0,-1.814647710E0,-1.818779352E0,7.487301171E-1,2.676098173E0
4.333897750E0,-1.848604830E0,-2.228489660E0,4.936874342E-1,2.937215223E0
4.343945750E0,-1.473127046E0,-2.394628353E0,1.558353138E-1,2.815782819E0
4.353994750E0,-7.962130165E-1,-2.222271146E0,-8.586051464E-2,2.362163467E0
4.364042750E0,-2.109149158E-2,-1.672312447E0,-5.279567957E-2,1.673278565E0
4.374090750E0,3.543974018E-1,-1.132717354E0,2.084731551E-1,1.205034098E0
4.384139750E0,7.288320422E-2,-7.440137529E-1,5.003204425E-1,8.995493156E-1
4.394187750E0,-5.755466992E-1,-3.073126978E-1,7.668623328E-1,1.006862917E0
4.404235750E0,-9.396610039E-1,1.560738802E-2,8.771653783E-1,1.285544824E0
4.414284750E0,-8.708123785E-1,1.909718174E-1,8.590495348E-1,1.238043027E0
4.424332750E0,-5.834123737E-1,1.887574768E-1,7.830158508E-1,9.945417062E-1
4.434380750E0,-2.655705947E-1,1.297602403E-1,6.630485272E-1,7.259468370E-1
4.444429750E0,-1.286785054E-1,8.796434283E-2,5.971106823E-1,6.171199643E-1
4.454477750E0,-9.528096378E-2,-2.105056107E-2,4.795068033E-1,4.893346121E-1
4.464525750E0,-5.383180618E-2,-5.080938041E-2,3.210775916E-1,3.295000399E-1
4.474574542E0,-2.289067984E-2,-1.379364020E-1,1.824424839E-1,2.298601621E-1
4.484622542E0,1.388111454E-1,-2.182514173E-1,4.768989086E-3,2.586985862E-1
4.494670542E0,3.467439812E-1,-1.775290686E-1,-2.225449912E-1,4.486359680E-1
4.504719542E0,6.126905519E-1,-9.522833884E-2,-3.764320127E-1,7.253683265E-1
4.514767542E0,8.782190466E-1,1.071356088E-1,-4.791722695E-1,1.006157441E0
4.524815542E0,1.145701681E0,4.032713538E-1,-4.862076394E-1,1.308303480E0
4.534864542E0,1.316477800E0,7.150454772E-1,-3.288638170E-1,1.533804173E0
4.544912542E0,1.444503171E0,1.021628442E0,-1.166086829E-1,1.773107913E0
4.554960542E0,1.491941047E0,1.288974252E0,8.153357506E-2,1.973319648E0
4.565009542E0,1.571195962E0,1.463541121E0,3.204613682E-1,2.171014706E0
4.575057542E0,1.694629223E0,1.432313481E0,5.366118443E-1,2.282814575E0
4.585105542E0,1.789071404E0,1.337326632E0,6.674935075E-1,2.331258585E0
4.595154542E0,1.732474157E0,1.071253177E0,7.927198168E-1,2.185738955E0
4.605202542E0,1.523730605E0,5.652509218E-1,7.723446822E-1,1.799383191E0
4.615250542E0,1.450174094E0,1.936311311E-1,6.047248900E-1,1.583095104E0
4.625299542E0,1.143680883E0,-9.993476272E-3,4.522493132E-1,1.229892383E0
4.635347542E0,5.487740529E-1,-1.151176429E-1,3.495875188E-1,6.607696013E-1
4.645395542E0,6.635303378E-2,-2.588480508E-1,2.535177656E-1,3.683426339E-1
4.655444542E0,-1.917635304E-1,-4.030819041E-1,1.142242249E-1,4.607553000E-1
4.665492542E0,-3.651153481E-1,-4.471090990E-1,-5.149405282E-2,5.795406813E-1
4.675540542E0,-5.245408523E-1,-3.896490955E-1,-1.989702054E-1,6.830509981E-1
4.685589542E0,-7.654356122E-1,-2.689689964E-1,-2.790291675E-1,8.579587833E-1
4.695637542E0,-9.851032251E-1,-1.774624103E-1,-3.095153439E-1,1.047721823E0
4.705685541E0,-1.107600054E0,-2.006752717E-1,-2.738882224E-1,1.158474515E0
4.715734542E0,-1.168273687E0,-2.841045141E-1,-1.865811797E-1,1.216713327E0
4.725782542E0,-1.169623809E0,-3.608123821E-1,-4.513228219E-2,1.224843808E0
4.735830542E0,-1.072202765E0,-3.805818182E-1,7.860879779E-2,1.140456326E0
4.745879542E0,-9.030650353E-1,-3.886907369E-1,1.874757306E-1,1.000876664E0
4.755927542E0,-7.007946432E-1,-3.615789521E-1,2.357714295E-1,8.230678207E-1
4.765975542E0,-5.346477646E-1,-2.988278031E-1,2.470764728E-1,6.604491438E-1
4.776024542E0,-4.277051139E-1,-2.387213498E-1,2.418139056E-1,5.462540730E-1
4.786072542E0,-3.655591518E-1,-2.171246588E-1,2.160943794E-1,4.769417068E-1
4.796120542E0,-2.990231001E-1,-2.797068232E-1,1.867004629E-1,4.500086490E-1
4.806169542E0,-2.566179228E-1,-3.824780703E-1,1.554647100E-1,4.861188214E-1
4.816217542E0,-2.275935137E-1,-4.136916769E-1,1.338205469E-1,4.907622130E-1
4.826265542E0,-1.669502860E-1,-3.448541611E-1,1.089032221E-1,3.983173386E-1
4.836314542E0,-8.114882827E-2,-2.127503568E-1,1.222384186E-1,2.584377636E-1
4.846362542E0,1.473966122E-2,-6.665124178E-2,2.248851200E-1,2.350169416E-1
4.856410542E0,1.072116226E-1,7.079048574E-2,3.847994149E-1,4.056799411E-1
4.866459542E0,1.935475159E-1,1.625531799E-1,5.537745551E-1,6.087285397E-1
4.876507542E0,2.901841566E-1,2.200494361E-1,6.789260566E-1,7.704344160E-1
4.886555542E0,3.402968413E-1,2.486458290E-1,7.499545240E-1,8.602665148E-1
4.896604542E0,3.610693672E-1,2.813159770E-1,7.544931328E-1,8.824792657E-1
4.906652542E0,3.449021083E-1,2.432804239E-1,7.180146933E-1,8.328793002E-1
4.916700542E0,2.368286061E-1,8.866893232E-2,6.822776806E-1,7.276350746E-1
4.926749542E0,2.632825792E-2,-1.070128173E-1,6.388691211E-1,6.483044609E-1
4.936797542E0,-1.968991399E-1,-2.614564937E-1,5.784837921E-1,6.646595122E-1
4.946845542E0,-3.708277854E-1,-3.621771222E-1,4.974928021E-1,7.184598823E-1
4.956894542E0,-4.928872427E-1,-4.211650032E-1,3.975217867E-1,7.604875836E-1
4.966942542E0,-5.856834322E-1,-3.960664147E-1,3.180569565E-1,7.752766701E-1
4.976990542E0,-6.820733204E-1,-3.426854289E-1,2.708921639E-1,8.099628893E-1
4.987039542E0,-7.541089708E-1,-2.748284912E-1,2.217673481E-1,8.327015048E-1
4.997087542E0,-7.607753813E-1,-2.514121467E-1,2.019230676E-1,8.262930313E-1
5.007135542E0,-7.567522046E-1,-3.050235128E-1,1.940340042E-1,8.386670599E-1
5.017184542E0,-6.948044631E-1,-3.737212801E-1,2.337798862E-1,8.228449868E-1
5.027232542E0,-6.584187019E-1,-4.262357086E-1,2.921900622E-1,8.369988642E-1
5.037281542E0,-6.776791379E-1,-4.016545987E-1,3.600984371E-1,8.661676021E-1
5.047329542E0,-6.807299227E-1,-3.205046010E-1,4.441568398E-1,8.737229110E-1
5.057377542E0,-6.446403229E-1,-1.742411792E-1,5.774768651E-1,8.828367143E-1
5.067426542E0,-6.084752941E-1,-9.400451660E-2,7.351072741E-1,9.588856747E-1
5.077474542E0,-5.054029155E-1,-2.958223343E-2,8.673268533E-1,1.004272416E0
5.087522542E0,-4.040297377E-1,2.026001751E-2,9.914480388E-1,1.070803302E0
5.097571542E0,-3.032132149E-1,1.149398875E-1,1.091006241E0,1.138175755E0
5.107619542E0,-2.276511088E-1,2.710582066E-1,1.115851060E0,1.170649891E0
5.117667542E0,-1.959521833E-1,4.699933469E-1,1.071326852E0,1.186183893E0
5.127716542E0,-8.574415505E-2,6.354794902E-1,9.140157008E-1,1.116517328E0
5.137764542E0,-2.153529525E-2,6.709200490E-1,7.715231484E-1,1.022665854E0
5.147812542E0,7.186111093E-2,6.571416700E-1,6.386609602E-1,9.191773582E-1
5.157861542E0,9.769732565E-2,6.585923642E-1,6.247019023E-1,9.129847405E-1
5.167909542E0,-1.148656279E-2,6.475990140E-1,6.622123754E-1,9.263053785E-1
5.177957542E0,-2.575695571E-1,6.807883948E-1,7.572331381E-1,1.050341345E0
5.188006542E0,-5.078780419E-1,8.292503697E-1,8.500150019E-1,1.291557890E0
5.198054542E0,-6.875278956E-1,1.016110425E0,9.026054442E-1,1.523112468E0
5.208102542E0,-8.636279047E-1,1.238674164E0,8.829880357E-1,1.749238324E0
5.218151542E0,-1.000850946E0,1.506192466E0,7.600339544E-1,1.961624320E0
5.228199542E0,-1.163411143E0,1.710876589E0,6.313179537E-1,2.163142748E0
5.238247542E0,-1.258209127E0,1.900377831E0,4.961263078E-1,2.332523831E0
5.248296542E0,-1.386075454E0,2.003384721E0,2.609097060E-1,2.450067219E0
5.258344542E0,-1.610156253E0,2.025232258E0,-2.552778140E-1,2.599872231E0
5.268392542E0,-1.905405560E0,1.905871875E0,-8.375779742E-1,2.822136569E0
5.278441542E0,-2.310137256E0,1.722458754E0,-1.084896997E0,3.079058264E0
5.288489542E0,-3.116747791E0,1.513728942E0,-1.000427535E0,3.606431388E0
5.298537542E0,-3.980227177E0,1.236214825E0,-1.606014962E0,4.466510890E0
5.308586542E0,-3.964532665E0,1.183615027E0,-1.976327316E0,4.585229923E0
5.318634542E0,-3.248485560E0,1.432808155E0,-1.456309869E0,3.837503886E0
5.328682542E0,-2.336141578E0,1.718593159E0,-6.154007363E-1,2.964766093E0
5.338731542E0,-1.584368277E0,1.808189460E0,1.272868681E-1,2.407482899E0
5.348779542E0,-1.297707215E0,1.631320542E0,4.558968794E-1,2.133797715E0
5.358827542E0,-9.622142994E-1,1.296593758E0,4.019248132E-1,1.663897619E0
5.368876541E0,-3.630204369E-1,9.077632731E-1,9.295499256E-1,1.349029674E0
5.378924542E0,4.804317963E-1,6.239101893E-1,1.733557938E0,1.904022521E0
5.388972542E0,1.303319664E0,5.180276388E-1,1.296603114E0,1.910019481E0
5.399021542E0,2.019883956E0,5.859564972E-1,-9.735314392E-2,2.105410612E0
5.409069542E0,2.629095853E0,7.174521911E-1,-1.555221954E0,3.137769586E0
5.419117542E0,2.574466487E0,9.675685948E-1,-1.764970935E0,3.267902856E0
5.429166542E0,1.690701356E0,8.741330123E-1,-6.499822661E-1,2.011232593E0
5.439214542E0,1.133676589E0,4.356321841E-1,-3.597136172E-1,1.266645924E0
5.449262542E0,8.525000685E-1,-1.783201969E-1,-1.013396147E0,1.336235837E0
5.459311542E0,5.134964852E-1,-1.100782785E0,-1.454679081E0,1.895123376E0
5.469359542E0,3.832995310E-1,-2.438650870E0,-1.032254587E0,2.675721609E0
5.479408792E0,1.068206266E-1,-4.202489784E0,-9.387828983E-2,4.204895262E0
5.489456792E0,4.858209557E-1,-6.005402132E0,1.583811184E-1,6.027102234E0
5.499504792E0,2.132702620E0,-7.522368677E0,-4.211766976E-1,7.830187788E0
5.509553792E0,4.278849450E0,-8.426903118E0,-8.762293853E-2,9.451398127E0
5.519601792E0,6.554973160E0,-8.134910710E0,1.882470149E-1,1.044891776E1
5.529649792E0,7.978672523E0,-6.341481376E0,-2.755149543E-1,1.019556324E1
5.539698792E0,8.395935679E0,-4.129205461E0,-3.717016518E-1,9.363772519E0
5.549746792E0,8.151063058E0,-2.525737545E0,2.070469826E-1,8.535926873E0
5.559794792E0,7.115068592E0,-2.199783924E0,-7.180614710E-2,7.447711494E0
5.569843792E0,4.908318880E0,-3.562440110E0,-8.396573172E-1,6.122711668E0
5.579891792E0,2.937263706E0,-5.895372151E0,-8.755259652E-1,6.644507250E0
5.589939792E0,3.010938916E0,-8.553992350E0,1.957343745E-1,9.070548507E0
5.599988792E0,4.601012321E0,-1.090038527E1,5.789222602E-1,1.184579522E1
5.610036792E0,6.216338097E0,-1.301064189E1,6.842949700E-1,1.443564759E1
5.620084792E0,7.385406421E0,-1.567984555E1,1.666852317E0,1.741206998E1
5.630133792E0,8.035065994E0,-1.785974601E1,2.253940836E0,1.971327123E1
5.640181792E0,7.476199647E0,-1.825034821E1,1.762306359E0,1.980087105E1
5.650229792E0,5.617994274E0,-1.713694479E1,1.681858612E0,1.811257532E1
5.660278792E0,3.903577196E0,-1.582150838E1,1.723149894E0,1.638680225E1
5.670326792E0,3.137285259E0,-1.492834268E1,1.576981782E0,1.533573753E1
5.680374792E0,2.476716536E0,-1.433646061E1,1.761659657E0,1.465509033E1
5.690423792E0,1.118902137E0,-1.265221692E1,1.988567292E0,1.285631887E1
5.700471792E0,-5.636096084E-1,-9.664323639E0,1.900002440E0,9.865435442E0
5.710519792E0,-2.062397161E0,-6.528745474E0,1.561438129E0,7.022541459E0
5.720568791E0,-3.167622368E0,-3.518274921E0,1.165595663E0,4.875520806E0
5.730616792E0,-3.769992877E0,-6.765427315E-1,8.380983764E-1,3.920837314E0
5.740664792E0,-4.457143042E0,1.379195035E0,6.985615915E-1,4.717657400E0
5.750713792E0,-5.270385489E0,3.128294288E0,1.118618547E0,6.230128074E0
5.760761792E0,-6.272217014E0,4.742721639E0,1.519536397E0,8.008939111E0
5.770810792E0,-7.083437494E0,5.894055943E0,1.405430322E0,9.321492186E0
5.780858792E0,-7.613310422E0,6.673884476E0,9.472658926E-1,1.016860572E1
5.790906792E0,-7.667908798E0,7.329801739E0,6.773256737E-1,1.062927979E1
5.800955792E0,-7.515320444E0,7.921948684E0,4.659540904E-1,1.092952083E1
5.811003792E0,-7.778992447E0,8.340918058E0,3.343771201E-1,1.141032189E1
5.821051792E0,-8.675177064E0,9.412495170E0,1.244333099E0,1.286087584E1
5.831100792E0,-1.190153968E1,1.084089569E1,6.576737666E-1,1.611223762E1
5.841148792E0,-1.043356579E1,1.047756024E1,2.788665053E-1,1.478906117E1
5.851196792E0,-8.286069421E0,9.322615280E0,-7.277637559E-1,1.249398824E1
5.861245792E0,-8.028757433E0,8.575227098E0,-1.487217082E0,1.184091552E1
5.871293792E0,-8.389376857E0,8.330534572E0,-2.147045547E0,1.201620801E1
5.881341792E0,-8.097197923E0,8.137634928E0,-2.719297925E0,1.179746997E1
5.891390792E0,-7.923810437E0,7.970082378E0,-3.389297622E0,1.173866787E1
5.901438792E0,-7.867373697E0,7.827257119E0,-4.560509536E0,1.199832364E1
5.911486792E0,-8.084421172E0,7.726283306E0,-6.368042938E0,1.286877190E1
5.921535792E0,-7.905367734E0,7.654182460E0,-7.247060714E0,1.317578222E1
5.931583792E0,-7.476734083E0,7.549838896E0,-6.446683896E0,1.242824819E1
5.941631792E0,-7.220640655E0,7.580287102E0,-5.445521293E0,1.180051296E1
5.951680792E0,-6.951217330E0,7.603857229E0,-4.682251489E0,1.131642815E1
5.961728792E0,-6.736946113E0,7.612105896E0,-4.150933714E0,1.098002048E1
5.971776792E0,-6.451242970E0,7.610473353E0,-3.583682460E0,1.060097262E1
5.981825792E0,-6.332417023E0,7.711866996E0,-3.365287201E0,1.053079085E1
5.991873792E0,-6.535762718E0,7.879454629E0,-3.399515047E0,1.078696909E1
6.001922792E0,-6.766801411E0,8.050876865E0,-3.420960295E0,1.105934849E1
6.011970792E0,-6.854718391E0,8.170306245E0,-3.335028445E0,1.117423300E1
6.022018792E0,-6.763205373E0,8.261764299E0,-3.174947175E0,1.113902984E1
6.032067792E0,-6.532238601E0,8.370837675E0,-2.966724317E0,1.102463232E1
6.042115792E0,-6.214918978E0,8.495499144E0,-2.694995435E0,1.086562120E1
6.052163792E0,-5.892086601E0,8.598707178E0,-2.432875429E0,1.070389333E1
6.062212792E0,-5.516364988E0,8.686548729E0,-2.261127648E0,1.053561150E1
6.072260792E0,-5.162258193E0,8.742179723E0,-2.144670408E0,1.037661925E1
6.082308792E0,-4.845672396E0,8.809717403E0,-2.096914152E0,1.027076972E1
6.092357792E0,-4.555197633E0,8.862797842E0,-2.140347708E0,1.019215872E1
6.102405792E0,-4.294602141E0,8.357884338E0,-1.719764941E0,9.552770782E0
6.112453792E0,-3.958271466E0,6.432144794E0,1.864171287E0,7.779173108E0
6.122502792E0,-3.605441703E0,6.655018435E0,1.070123933E0,7.644190309E0
6.132550792E0,-3.341424421E0,7.891695775E0,-1.797320656E0,8.756388577E0
6.142598792E0,-2.908133170E0,7.135632080E0,-3.505710424E0,8.465488130E0
6.152647792E0,-1.601926297E0,8.980773604E-1,-7.121439718E0,7.354428221E0
6.162695792E0,2.743126498E0,-6.771463981E0,-5.310723091E0,9.032233787E0
6.172744792E0,9.022533249E0,-1.725677763E1,-5.133678172E0,2.013844909E1
6.182792792E0,1.794299516E1,-3.521300153E1,-1.000125775E1,4.076679664E1
6.192840792E0,2.216395747E1,-5.249589516E1,-1.279047668E1,5.840082459E1
6.202889792E0,1.242983328E1,-6.468746610E1,8.789709985E-1,6.587671527E1
6.212937792E0,8.822723365E-1,-6.456230294E1,1.629536674E1,6.659285504E1
6.222985792E0,-6.092165456E0,-4.190473054E1,2.030529835E1,4.696196400E1
6.233034792E0,-1.290856178E0,-1.628745662E1,2.174792340E1,2.720146549E1
6.243082792E0,6.475245205E0,-6.663772302E0,1.026469001E1,1.384552357E1
6.253130792E0,5.791653070E0,-2.230737330E0,1.828222606E0,6.470072041E0
6.263179792E0,4.046185816E0,1.542036483E0,-1.037640458E0,4.452661439E0
6.273227792E0,3.259081592E0,3.926088392E0,-2.508109360E0,5.685630611E0
6.283275792E0,3.266074862E0,5.737245898E0,-2.569891040E0,7.084318983E0
6.293324792E0,3.856729889E0,6.646273339E0,-1.962231433E0,7.930804936E0
6.303372792E0,4.751397153E0,5.990315146E0,-1.707022104E0,7.834128855E0
6.313420792E0,4.901370341E0,3.060160192E0,-1.037428862E0,5.870627757E0
6.323469792E0,4.044086080E0,1.944620204E-1,-4.104762930E-1,4.069513299E0
6.333517792E0,3.378194345E0,-1.860300431E0,1.183902564E-1,3.858358586E0
6.343566792E0,2.909240633E0,-3.477286524E0,6.117163327E-1,4.574866063E0
6.353614792E0,2.473595877E0,-3.158499250E0,9.347949511E-1,4.119300387E0
6.363662792E0,1.849141604E0,-8.848883808E-1,1.211333168E0,2.381109020E0
6.373711792E0,8.948619765E-1,9.588100505E-1,1.320191367E0,1.860913731E0
6.383759792E0,-2.272979370E-1,2.090929234E0,1.321036874E0,2.483704458E0
6.393807792E0,-1.187636450E0,3.003991254E0,1.171775585E0,3.436204565E0
6.403856792E0,-1.996372156E0,3.527383713E0,9.464326644E-1,4.162171600E0
6.413904792E0,-2.782465104E0,3.877858803E0,7.442529041E-1,4.830508600E0
6.423952792E0,-3.206664519E0,4.522269915E0,6.550226390E-1,5.582354089E0
6.434001792E0,-3.573656824E0,4.928613980E0,6.557623118E-1,6.123094240E0
6.444049792E0,-3.901807244E0,4.796441764E0,8.196246833E-1,6.237125779E0
6.454097792E0,-3.921101301E0,4.439125432E0,1.056661450E0,6.016427797E0
6.464146792E0,-3.713530408E0,3.800030608E0,1.153712366E0,5.437057379E0
6.474194792E0,-3.498738204E0,2.789055793E0,1.146551281E0,4.618937223E0
6.484243125E0,-3.345404913E0,2.191417728E0,1.075211742E0,4.141271059E0
6.494292125E0,-3.177923115E0,1.803081332E0,1.062646075E0,3.805195698E0
6.504340125E0,-3.138457333E0,1.655533862E0,1.191683600E0,3.743102537E0
6.514389125E0,-3.264430332E0,1.682615241E0,1.288014139E0,3.891873568E0
6.524437125E0,-3.458616364E0,1.540804474E0,1.325830421E0,4.011724304E0
6.534485125E0,-3.581327201E0,1.255006022E0,1.182972418E0,3.974967720E0
6.544534125E0,-3.464363592E0,6.317986679E-1,9.518121028E-1,3.647866628E0
6.554582125E0,-3.104014894E0,-1.860268271E-1,7.361481515E-1,3.195532592E0
6.564630125E0,-2.422212592E0,-1.191963682E0,6.181979712E-1,2.769487316E0
6.574679125E0,-1.639759828E0,-2.435672883E0,5.336554190E-1,2.984309433E0
6.584727125E0,-9.447398955E-1,-3.555396554E0,4.351695963E-1,3.704423127E0
6.594775125E0,-2.937407255E-1,-4.243209794E0,3.059250804E-1,4.264352603E0
6.604824125E0,6.970056474E-2,-4.533603573E0,8.644282423E-2,4.534963273E0
6.614872125E0,2.267456675E-1,-3.873235409E0,-1.134277976E-1,3.881524443E0
6.624920125E0,2.513332093E-1,-2.651669614E0,-1.446251050E-1,2.667477562E0
6.634969125E0,-1.157491422E-1,-1.632639674E0,-1.436812913E-1,1.643032100E0
6.645017125E0,-7.084316915E-1,-6.946965820E-1,-1.840925682E-1,1.009142644E0
6.655066125E0,-1.193773980E0,8.284218192E-2,-1.696861982E-1,1.208615963E0
6.665114125E0,-1.420823117E0,6.075350618E-1,-8.574824810E-2,1.547640121E0
6.675162125E0,-1.344266692E0,8.610750103E-1,2.328598816E-2,1.596573002E0
6.685211125E0,-9.867000997E-1,8.231061155E-1,2.647622902E-2,1.285216618E0
6.695259125E0,-5.941835296E-1,5.626927650E-1,1.488003094E-2,8.184733532E-1
6.705307125E0,-2.963129157E-1,2.042654622E-1,-2.673310451E-3,3.599067513E-1
6.715356125E0,-1.191943216E-1,1.613831520E-4,-1.131961747E-1,1.643797017E-1
6.725404125E0,1.126986498E-1,-9.111306846E-2,-2.029029878E-1,2.493435369E-1
6.735452125E0,3.458253837E-1,-2.574645996E-2,-2.658320383E-1,4.369493664E-1
6.745501125E0,6.188131714E-1,7.314515948E-2,-2.465479211E-1,6.701237444E-1
6.755549125E0,8.874196404E-1,2.086029267E-1,-2.219169637E-1,9.382302159E-1
6.765597125E0,1.052133366E0,3.657667279E-1,-1.978265083E-1,1.131328974E0
6.775646125E0,1.132036153E0,5.489231569E-1,-2.038421237E-1,1.274509355E0
6.785694125E0,1.208811264E0,8.317243266E-1,-2.008107810E-1,1.480984469E0
6.795743125E0,1.281081680E0,1.093971949E0,-1.532274556E-1,1.691574281E0
6.805791125E0,1.386786475E0,1.362884227E0,-6.958084300E-2,1.945628854E0
6.815839125E0,1.564241869E0,1.403576755E0,1.491589630E-1,2.106923997E0
6.825888125E0,1.923156245E0,1.288861985E0,4.113061590E-1,2.351354485E0
6.835936125E0,2.125215552E0,1.047894135E0,6.643140109E-1,2.460881218E0
6.845984125E0,2.198911227E0,8.100095218E-1,9.198756342E-1,2.517438618E0
6.856033125E0,1.994304580E0,4.929571170E-1,1.139160474E0,2.349030452E0
6.866081125E0,1.642434930E0,2.527084744E-1,1.231086963E0,2.068097962E0
6.876129125E0,1.291961594E0,5.944279432E-2,1.167209494E0,1.742147012E0
6.886178125E0,8.557768482E-1,-9.065055370E-2,1.070705878E0,1.373674857E0
6.896226125E0,4.575329304E-1,-2.302019566E-1,9.330143277E-1,1.064351943E0
6.906275125E0,1.110269308E-1,-3.088663030E-1,7.123183358E-1,7.842976373E-1
6.916323125E0,-1.311740971E-1,-3.321668726E-1,4.899417078E-1,6.062873511E-1
6.926371125E0,-3.045762008E-1,-2.871900898E-1,2.655467673E-1,4.957417628E-1
6.936420125E0,-4.888085175E-1,-1.982755744E-1,4.061841443E-2,5.290527627E-1
6.946468125E0,-7.171089596E-1,-1.273558652E-1,-1.677706504E-1,7.474033499E-1
6.956516125E0,-9.152722675E-1,-9.212931454E-2,-3.641985778E-1,9.893693639E-1
6.966565125E0,-1.125285543E0,-1.253368217E-1,-5.452025735E-1,1.256671285E0
6.976613125E0,-1.266042641E0,-2.811475772E-1,-6.687249311E-1,1.459143915E0
6.986661125E0,-1.303710405E0,-5.041065878E-1,-7.548848963E-1,1.588595442E0
6.996710125E0,-1.251260880E0,-7.438938850E-1,-7.924053097E-1,1.657388934E0
7.006758125E0,-1.191659042E0,-9.836958003E-1,-8.014698096E-1,1.740707487E0
7.016806125E0,-1.198881522E0,-1.135843860E0,-8.183037242E-1,1.843116698E0
7.026855125E0,-1.294934319E0,-1.140194188E0,-7.871532675E-1,1.896446135E0
7.036903125E0,-1.426609522E0,-1.038059118E0,-6.992778754E-1,1.897833241E0
7.046952125E0,-1.519445180E0,-8.454050571E-1,-6.002635375E-1,1.839494409E0
7.057000125E0,-1.606419005E0,-6.990732229E-1,-4.901638290E-1,1.819215757E0
7.067048125E0,-1.640593641E0,-6.016796601E-1,-3.755433456E-1,1.787344039E0
7.077097125E0,-1.663997122E0,-5.658011448E-1,-2.589042572E-1,1.776527166E0
7.087145125E0,-1.626021795E0,-6.260093397E-1,-1.544085201E-1,1.749193118E0
7.097193125E0,-1.540064802E0,-7.164277589E-1,-8.429806553E-2,1.700639436E0
7.107242125E0,-1.464028194E0,-7.831602770E-1,-1.724913999E-2,1.660426483E0
7.117290125E0,-1.391054943E0,-8.091511506E-1,2.868717089E-3,1.609275510E0
7.127338125E0,-1.252966513E0,-7.238338423E-1,3.171529770E-2,1.447365322E0
7.137387125E0,-1.088494277E0,-5.713542455E-1,5.542232193E-2,1.230584048E0
7.147435125E0,-9.117072201E-1,-4.560939306E-1,6.898888551E-2,1.021758873E0
7.157484125E0,-7.785830766E-1,-3.639137453E-1,8.760766268E-2,8.638865225E-1
7.167532125E0,-6.665299594E-1,-3.049258643E-1,1.109860003E-1,7.413230482E-1
7.177580125E0,-5.178294182E-1,-2.553800672E-1,1.158111957E-1,5.888790352E-1
7.187629125E0,-3.411417639E-1,-1.766361988E-1,1.202094714E-1,4.025274734E-1
7.197677125E0,-1.179172897E-1,-9.613524199E-2,1.018223170E-1,1.830689930E-1
7.207725125E0,6.373640478E-2,-5.972170651E-2,6.390071154E-2,1.082234377E-1
7.217774125E0,1.739973503E-1,-2.311111987E-2,2.906650901E-2,1.779158895E-1
7.227822125E0,2.690812629E-1,1.879762888E-2,-2.169200063E-2,2.706078709E-1
7.237870125E0,4.021814328E-1,7.792701244E-2,-3.737423301E-2,4.113628052E-1
7.247919125E0,4.859141457E-1,1.513662869E-1,-5.958239660E-3,5.089791847E-1
7.257967125E0,5.275650322E-1,2.289547455E-1,5.273377217E-2,5.775170902E-1
7.268016125E0,5.842210436E-1,3.565404063E-1,1.070823991E-1,6.927495430E-1
7.278064125E0,5.739539176E-1,4.346352339E-1,1.713432261E-1,7.400603943E-1
7.288112125E0,6.327120030E-1,3.674238288E-1,2.326899469E-1,7.677690799E-1
7.298161125E0,6.436866421E-1,1.387491649E-1,2.682609717E-1,7.110188274E-1
7.308209125E0,5.333853507E-1,-6.409659326E-2,2.966502269E-1,6.136853125E-1
7.318257125E0,4.358005840E-1,-1.834774411E-1,3.516210707E-1,5.892567333E-1
7.328306125E0,2.567833990E-1,-2.141092497E-1,4.716785145E-1,5.781531854E-1
7.338354125E0,1.911162436E-2,-1.835288966E-1,6.635760192E-1,6.887533980E-1
7.348402125E0,-1.694610804E-1,-1.247737348E-1,8.605546812E-1,8.859119042E-1
7.358451125E0,-2.972736132E-1,-9.996633768E-2,9.833005285E-1,1.032106971E0
7.368499125E0,-4.288754341E-1,-9.576102018E-2,1.080669387E0,1.166597889E0
7.378548125E0,-5.873580748E-1,-1.071204060E-1,1.140463014E0,1.287291799E0
7.388596125E0,-7.163546687E-1,-1.243328547E-1,1.148699621E0,1.359460735E0
7.398644125E0,-7.484029654E-1,-2.207686436E-1,1.101564047E0,1.349921902E0
7.408693125E0,-7.048265907E-1,-3.484174544E-1,9.965293423E-1,1.269348642E0
7.418741125E0,-6.878173327E-1,-3.961161160E-1,9.160517013E-1,1.212085550E0
7.428789125E0,-7.081100947E-1,-3.908699942E-1,8.205443772E-1,1.152168535E0
7.438838125E0,-7.762438980E-1,-2.969841760E-1,7.460427368E-1,1.116841061E0
7.448886125E0,-8.247684789E-1,-1.348549193E-1,7.132164681E-1,1.098684042E0
7.458935125E0,-8.762570134E-1,3.861442745E-2,6.835161209E-1,1.111985483E0
7.468983125E0,-8.875351229E-1,3.100562114E-1,6.846925076E-1,1.163037952E0
7.479030667E0,-9.001022512E-1,5.584476864E-1,7.109242865E-1,1.275719884E0
7.489079667E0,-9.297833025E-1,8.308133304E-1,7.536125422E-1,1.456941881E0
7.499127667E0,-8.810312650E-1,1.129594941E0,8.045382822E-1,1.643010246E0
7.509175667E0,-8.537481567E-1,1.307851987E0,9.602379405E-1,1.833417475E0
7.519224667E0,-9.383658457E-1,1.438073573E0,1.217499057E0,2.104967937E0
7.529272667E0,-9.979831794E-1,1.516577706E0,1.439006789E0,2.316617988E0
7.539320667E0,-9.983810824E-1,1.692791736E0,1.544018104E0,2.499260001E0
7.549369667E0,-9.188115871E-1,2.013367088E0,1.522240149E0,2.686089506E0
7.559417667E0,-9.801681751E-1,2.371758138E0,1.516706344E0,2.981000579E0
7.569466667E0,-1.084528988E0,2.713703309E0,1.348862019E0,3.218667041E0
7.579514667E0,-1.110667503E0,2.964459983E0,4.354720070E-1,3.195503272E0
7.589562667E0,-1.160962329E0,3.016806012E0,-1.264455707E0,3.470994134E0
7.599611667E0,-1.505158971E0,2.926529680E0,-3.154288085E0,4.558466060E0
7.609659667E0,-2.500429042E0,2.886888481E0,-4.028808183E0,5.551357120E0
7.619707667E0,-4.022241760E0,2.530193124E0,-3.875369058E0,6.131785332E0
7.629756667E0,-5.223597239E0,1.842137809E0,-1.703787425E0,5.795026438E0
7.639804667E0,-5.618493041E0,9.682936496E-1,1.041238761E0,5.795622038E0
7.649852667E0,-4.046709141E0,3.033523786E-1,9.835051811E-1,4.175543076E0
7.659901667E0,-6.849355325E-1,2.141466719E-1,7.424969852E-2,7.214627492E-1
7.669949667E0,1.498956098E0,4.014815211E-1,4.920490444E-2,1.552571389E0
7.679998667E0,2.299679511E0,1.038935031E0,7.600393631E-2,2.524616495E0
7.690046667E0,3.118555750E0,1.386975340E0,-3.662444454E-1,3.432670324E0
7.700094667E0,4.296240531E0,1.760262172E0,-4.027632308E-1,4.660302977E0
7.710143667E0,5.682839895E0,1.098861390E0,-1.790242016E-1,5.790873449E0
7.720191667E0,6.685327477E0,-8.319295639E-1,-1.263040096E0,6.854267325E0
7.730239667E0,7.139727470E0,-3.343235012E0,-3.637262251E0,8.682315668E0
7.740288667E0,8.861661143E0,-6.784051282E0,-4.077036018E0,1.188169233E1
7.750336667E0,1.198180090E1,-1.064556127E1,-2.009659368E0,1.615333583E1
7.760385667E0,1.251014245E1,-1.260179521E1,-1.866543064E-1,1.775792067E1
7.770433667E0,1.009529150E1,-1.292426448E1,-1.363740990E-1,1.640030855E1
7.780481667E0,7.690704753E0,-1.261369781E1,-3.543881194E-1,1.477761492E1
7.790530667E0,6.937138404E0,-1.326391286E1,-3.968686527E-1,1.497373629E1
7.800578667E0,7.353106987E0,-1.441989336E1,-1.341983501E-1,1.618701690E1
7.810626667E0,7.152281442E0,-1.463816174E1,1.000250364E0,1.632272679E1
7.820675667E0,6.408079993E0,-1.361407922E1,2.462684096E0,1.524701463E1
7.830723667E0,5.665287724E0,-1.170319862E1,3.277749705E0,1.340910087E1
7.840772667E0,5.090065545E0,-1.016070547E1,3.313103725E0,1.183745577E1
7.850820667E0,4.683672947E0,-9.848270026E0,3.346819940E0,1.140729672E1
7.860868667E0,4.228406690E0,-1.066549560E1,3.440880005E0,1.197797456E1
7.870917667E0,3.875530441E0,-1.127286811E1,3.478467076E0,1.241760946E1
7.880965667E0,3.570220415E0,-1.151357926E1,3.399493412E0,1.252459727E1
7.891013667E0,2.782706301E0,-1.077049288E1,3.099790866E0,1.154797275E1
7.901062667E0,1.829993727E0,-8.999219815E0,2.772530977E0,9.592797420E0
7.911110667E0,6.501770514E-1,-7.080892201E0,2.529704881E0,7.547262507E0
7.921159666E0,-6.941223854E-1,-4.947637897E0,2.312672024E0,5.505395402E0
7.931207667E0,-2.006786631E0,-2.483828212E0,2.156297012E0,3.853078247E0
7.941255667E0,-3.113637072E0,2.197950822E-1,2.029452193E0,3.723133345E0
7.951304667E0,-4.096963329E0,2.497373287E0,1.760879638E0,5.111035018E0
7.961352667E0,-5.059295157E0,4.154192952E0,1.566742723E0,6.731156612E0
7.971400667E0,-6.304649180E0,4.958024890E0,1.210691729E0,8.111497184E0
7.981449667E0,-7.274047953E0,5.523089286E0,6.980603389E-1,9.159889581E0
7.991497667E0,-8.132367756E0,6.025593737E0,1.594920163E-1,1.012267864E1
8.001545667E0,-8.836004730E0,6.449482373E0,-4.641210613E-1,1.094925618E1
8.011594667E0,-9.166091748E0,6.784577531E0,-9.538878644E-1,1.144367215E1
8.021642667E0,-9.213066525E0,7.075266010E0,-1.432143327E0,1.170431623E1
8.031691667E0,-9.200480978E0,7.166730496E0,-1.836622862E0,1.180610265E1
8.041739667E0,-9.124710419E0,7.073089092E0,-2.074017332E0,1.172989674E1
8.051787667E0,-9.074397467E0,6.932949459E0,-2.224837489E0,1.163444796E1
8.061836667E0,-9.052027189E0,6.857843728E0,-2.365594003E0,1.160022637E1
8.071884667E0,-9.024124861E0,6.797778205E0,-2.471602854E0,1.156518217E1
8.081932667E0,-9.058482515E0,6.790310726E0,-2.847309263E0,1.167354253E1
8.091981667E0,-9.382569705E0,6.789341843E0,-3.433965672E0,1.207973084E1
8.102029667E0,-9.805756676E0,6.756146030E0,-4.109500929E0,1.259707788E1
8.112078667E0,-9.934324669E0,6.860500703E0,-4.552946747E0,1.290296867E1
8.122126667E0,-9.584959965E0,6.992757120E0,-4.325140395E0,1.262841831E1
8.132174667E0,-9.299556785E0,7.114922411E0,-4.271659714E0,1.246398628E1
8.142223667E0,-9.141611795E0,7.189555687E0,-4.646703634E0,1.252400223E1
8.152271667E0,-8.467171138E0,7.018263844E0,-4.611342305E0,1.192532986E1
8.162319667E0,-7.838941610E0,6.920168030E0,-4.170978554E0,1.125765487E1
8.172368667E0,-7.511130329E0,7.115242839E0,-3.822753473E0,1.102983244E1
8.182416667E0,-7.214643166E0,7.280071755E0,-3.503506608E0,1.083167020E1
8.192465667E0,-6.975765111E0,7.437254267E0,-3.201310224E0,1.068748975E1
8.202513667E0,-6.651373281E0,7.657429419E0,-2.958463663E0,1.056548622E1
8.212561666E0,-6.294343463E0,7.818550615E0,-2.767619315E0,1.041192634E1
8.222610667E0,-5.893061332E0,7.970607458E0,-2.479129974E0,1.021786869E1
8.232658667E0,-5.632104775E0,8.056258643E0,-2.284673947E0,1.009176112E1
8.242706667E0,-5.353303685E0,8.067050849E0,-2.220131796E0,9.932983184E0
8.252755667E0,-5.214328818E0,8.004259939E0,-2.125795742E0,9.786542276E0
8.262803667E0,-5.093975578E0,8.033200148E0,-1.936211177E0,9.707203795E0
8.272852667E0,-4.820241101E0,8.151637840E0,-1.689466278E0,9.619678791E0
8.282900667E0,-4.575765506E0,8.251655048E0,-1.590743204E0,9.568589496E0
8.292948667E0,-4.436706146E0,8.329735842E0,-1.529233565E0,9.560722563E0
8.302997667E0,-4.291222743E0,8.328889166E0,-1.553709425E0,9.497315428E0
8.313045667E0,-4.113410962E0,7.271180479E0,-1.314821284E0,8.456888926E0
8.323093667E0,-3.316694792E0,5.151428565E0,-1.181423198E0,6.239666768E0
8.333142667E0,-1.792904254E0,2.697204806E0,-1.557895009E0,3.593947173E0
8.343190667E0,8.457368866E-1,-5.006736875E-1,-1.496219163E0,1.790144353E0
8.353239667E0,6.874675523E0,-8.307903509E0,3.093741336E0,1.121845175E1
8.363287667E0,1.285428383E1,-2.430187727E1,8.799009397E0,2.886583479E1
8.373335667E0,1.768976395E1,-3.376205473E1,2.015403673E-1,3.811620005E1
8.383384667E0,1.598114906E1,-3.472595653E1,2.930661322E0,3.833898744E1
8.393432667E0,9.645468707E0,-3.277727602E1,2.884063107E0,3.428852155E1
8.403480667E0,4.975207518E0,-2.596385008E1,2.454347720E0,2.654991570E1
8.413529667E0,6.463055515E0,-1.982136875E1,5.829154188E0,2.164802033E1
8.423577667E0,6.719877505E0,-1.374519485E1,2.204029120E1,2.683023614E1
8.433626667E0,9.898660161E0,-7.195054409E0,2.153300782E1,2.476737181E1
8.443674667E0,7.905436732E0,-6.465405511E0,3.036235140E0,1.065439450E1
8.453722667E0,6.385065937E0,-5.844420683E0,9.566360557E-1,8.708700976E0
8.463771667E0,6.182299116E0,-5.387525100E0,6.273723257E-1,8.224344661E0
8.473819667E0,5.675182967E0,-4.800012658E0,-2.287606180E-2,7.432923149E0
8.483868667E0,4.692738178E0,-3.838954938E0,-5.393212979E-1,6.086890346E0
8.493916667E0,3.797002628E0,-3.032221026E0,-1.073876238E0,4.976424769E0
8.503964667E0,3.138800565E0,-2.160124599E0,-1.183520302E0,3.989853077E0
8.514013667E0,2.730089546E0,-1.336738987E0,-6.419144972E-1,3.106817386E0
8.524061667E0,2.463814362E0,-1.154602312E0,3.401395512E-1,2.742112803E0
8.534109667E0,2.057659454E0,-1.786629022E0,-1.506125808E-2,2.725111471E0
8.544158667E0,1.799310463E0,-1.720808669E0,-1.216418784E0,2.770988141E0
8.554206667E0,1.336146664E0,-1.216264125E0,-1.757981758E0,2.520929628E0
8.564255667E0,7.310580772E-1,-4.495234144E-1,-1.809620274E0,2.002808715E0
8.574303667E0,1.839993051E-1,7.510514617E-2,-1.798801755E0,1.809747022E0
8.584351667E0,-4.498882806E-1,4.681339324E-1,-1.740479288E0,1.857637476E0
8.594400667E0,-9.633702940E-1,1.546523636E0,-1.601550759E0,2.425857068E0
8.604448667E0,-1.587324337E0,2.524220778E0,-1.407197643E0,3.297194913E0
8.614496667E0,-2.281192954E0,3.101396511E0,-1.113201687E0,4.007707525E0
8.624545667E0,-2.456805890E0,3.955727343E0,-6.085356666E-1,4.696167549E0
8.634593667E0,-2.516908250E0,4.345654766E0,-1.621925528E-1,5.024524744E0
8.644642667E0,-2.504658333E0,4.481126567E0,7.150209188E-2,5.134094002E0
8.654690667E0,-2.570314963E0,4.230286862E0,4.700693607E-2,4.950157129E0
8.664738666E0,-2.564875883E0,4.150578203E0,-1.146510351E-1,4.880474626E0
8.674787667E0,-2.499952494E0,3.916339914E0,-2.010220116E-1,4.650579603E0
8.684835667E0,-2.492644059E0,3.676224003E0,-2.180841869E-1,4.446960539E0
8.694883667E0,-2.413052344E0,3.564756777E0,-1.790528530E-1,4.308407179E0
8.704932667E0,-2.270104879E0,3.468143817E0,-1.031893229E-1,4.146329188E0
8.714980667E0,-2.108557420E0,3.256861696E0,9.190763198E-2,3.880928950E0
8.725029667E0,-1.923888901E0,2.913498575E0,3.907360198E-1,3.513189020E0
8.735077667E0,-1.772649499E0,2.299423403E0,5.483921566E-1,2.954719646E0
8.745125667E0,-1.715602893E0,1.422538691E0,6.935458499E-1,2.334077004E0
8.755174667E0,-1.895254501E0,6.203428030E-1,7.150115633E-1,2.118503328E0
8.765222667E0,-2.218740013E0,3.306015730E-2,7.722873795E-1,2.349537830E0
8.775271667E0,-2.275643946E0,-4.793494767E-1,1.024303544E0,2.541166866E0
8.785319667E0,-1.811673816E0,-1.167759717E0,1.438661803E0,2.591442177E0
8.795367667E0,-1.382473569E0,-1.335630355E0,1.836540855E0,2.658575544E0
8.805416667E0,-9.892646885E-1,-1.315094934E0,1.984063767E0,2.577717661E0
8.815464667E0,-8.041570437E-1,-1.589160948E0,1.885696058E0,2.593829349E0
8.825512667E0,-8.344771957E-1,-2.057910007E0,1.765339310E0,2.836858944E0
8.835561667E0,-6.057019597E-1,-2.949627936E0,1.587453561E0,3.403995980E0
8.845609667E0,-4.601431274E-1,-3.950875908E0,1.410391685E0,4.220231847E0
8.855658667E0,-8.537192130E-1,-3.956317327E0,1.225365901E0,4.228806555E0
8.865706667E0,-1.774074465E0,-3.085689721E0,1.011960071E0,3.700389769E0
8.875754667E0,-2.578563631E0,-1.971660068E0,7.111044538E-1,3.322966049E0
8.885803667E0,-2.748890099E0,-8.474281937E-1,4.314631194E-1,2.908726825E0
8.895851667E0,-2.330459839E0,-1.929896915E-1,1.938644350E-1,2.346459354E0
8.905899667E0,-1.696554419E0,-1.381030476E-1,7.924128380E-3,1.702184520E0
8.915948667E0,-1.389804223E0,-3.722852039E-1,-8.892328620E-2,1.441547572E0
8.925996667E0,-1.318243074E0,-3.114870250E-1,-2.786771286E-1,1.382913559E0
8.936045667E0,-1.342889088E0,-1.583461082E-1,-2.893927542E-1,1.382813350E0
8.946093667E0,-1.184250035E0,-3.989526004E-1,-3.627086341E-1,1.301218227E0
8.956141667E0,-1.023589599E0,-6.096745580E-1,-3.658363098E-1,1.246304513E0
8.966190667E0,-8.359232122E-1,-5.587382931E-1,-3.043861846E-1,1.050527033E0
8.976238667E0,-8.644348204E-1,-3.421930933E-1,-2.134444213E-1,9.538879352E-1
8.986287667E0,-1.095841888E0,2.621131361E-1,-7.153834462E-2,1.129021911E0
8.996335667E0,-1.143535287E0,8.913840526E-1,7.086005847E-2,1.451640324E0
9.006383667E0,-9.231817961E-1,1.282790236E0,1.818986928E-1,1.590881062E0
9.016432667E0,-3.506282866E-1,1.581388829E0,2.639152479E-1,1.641152668E0
9.026480667E0,3.377299136E-1,1.451870663E0,2.575189787E-1,1.512714759E0
9.036528667E0,9.006132978E-1,1.176553345E0,1.489051938E-1,1.489145675E0
9.046577667E0,1.249161145E0,9.725398976E-1,-3.281924745E-2,1.583450196E0
9.056625667E0,1.587816673E0,6.722619849E-1,-2.401954329E-1,1.740916945E0
9.066674667E0,1.994274175E0,4.416980857E-1,-4.807428682E-1,2.098413779E0
9.076722667E0,2.244106404E0,2.009261173E-1,-6.939966702E-1,2.357544535E0
9.086770667E0,2.581604475E0,-4.755072713E-2,-8.933212352E-1,2.732208917E0
9.096819667E0,2.899333403E0,-1.133921295E-1,-1.036258761E0,3.081042709E0
9.106867667E0,2.986032701E0,1.023543406E-1,-1.064324226E0,3.171695723E0
9.116916667E0,2.773839876E0,5.741995007E-1,-9.368677890E-1,2.983557269E0
9.126964667E0,2.431811966E0,1.167959107E0,-7.072324276E-1,2.788909397E0
9.137012667E0,2.117576165E0,1.796893809E0,-5.596779406E-1,2.833054107E0
9.147061667E0,1.849276383E0,2.119703967E0,-4.190628561E-1,2.844043200E0
9.157109667E0,1.927398107E0,2.201995926E0,-3.487326193E-1,2.947077190E0
9.167157667E0,1.872843001E0,1.918822873E0,-2.143039620E-1,2.689860277E0
9.177206667E0,1.742738944E0,1.435400226E0,-1.516416907E-2,2.257818148E0
9.187254667E0,1.864558081E0,1.236290254E0,1.547184956E-1,2.242527200E0
9.197303667E0,1.729158201E0,9.802155375E-1,9.950487542E-1,2.222820867E0
9.207351667E0,1.411891203E0,4.287389016E-1,2.976511095E0,3.322178820E0
9.217399667E0,6.866478896E-1,-1.016134983E-1,4.078314804E0,4.136962928E0
9.227448667E0,8.452851892E-2,-1.946491313E-1,3.309189599E0,3.315986905E0
9.237496667E0,-1.563805667E-1,-1.013989055E-1,1.998794803E0,2.007465388E0
9.247545667E0,-2.032860535E-1,-6.788032651E-3,9.265988358E-1,9.486604764E-1
9.257593667E0,-1.133073449E-2,-9.162528455E-2,2.073715762E-1,2.269946011E-1
9.267641667E0,1.332501510E-1,-4.226396710E-1,-2.297137872E-1,4.991475916E-1
9.277690667E0,1.282048810E-1,-6.164824712E-1,-4.007038414E-1,7.463582902E-1
9.287738667E0,9.739619404E-2,-7.248880953E-1,-4.139267349E-1,8.404071104E-1
9.297787667E0,-5.543160439E-3,-6.918203366E-1,-3.049170935E-1,7.560559097E-1
9.307835667E0,-1.247789973E-1,-5.685727251E-1,-1.639968574E-1,6.047641781E-1
9.317883667E0,-2.927148315E-1,-3.263354445E-1,-6.138882078E-2,4.426571836E-1
9.327932667E0,-5.011707008E-1,-1.482602459E-1,3.065231044E-2,5.235386671E-1
9.337980667E0,-6.923945332E-1,2.640134811E-2,7.826490842E-2,6.973038194E-1
9.348028667E0,-7.715523845E-1,6.844750643E-2,7.769897103E-2,7.784698281E-1
9.358077667E0,-8.144849807E-1,2.047987282E-2,8.571550369E-2,8.192388886E-1
9.368125667E0,-7.272205496E-1,-9.693514109E-2,5.997489095E-2,7.360999503E-1
9.378174667E0,-5.988741660E-1,-3.146573853E-1,-3.201935291E-3,6.765129631E-1
9.388222667E0,-4.683035016E-1,-5.821259862E-1,-6.688629985E-2,7.501017335E-1
9.398270667E0,-3.841030115E-1,-8.304905641E-1,-1.169466154E-1,9.224566176E-1
9.408319667E0,-3.872184080E-1,-9.227508563E-1,-1.451325703E-1,1.011172933E0
9.418367667E0,-4.137027866E-1,-8.703217971E-1,-1.526696312E-1,9.756628734E-1
9.428416667E0,-5.264780349E-1,-7.781234854E-1,-1.224921513E-1,9.474489996E-1
9.438464667E0,-6.839616787E-1,-5.745860016E-1,-7.527120709E-2,8.964476593E-1
9.448512667E0,-7.654566622E-1,-4.736800164E-1,-8.194869082E-2,9.038872980E-1
9.458561667E0,-7.213762575E-1,-5.314113307E-1,-1.019228160E-1,9.017593735E-1
9.468609667E0,-6.455846483E-1,-6.307689732E-1,-1.466575424E-1,9.144164644E-1
9.478658792E0,-5.251589030E-1,-8.531806844E-1,-2.279466856E-1,1.027457466E0
9.488706792E0,-3.152614027E-1,-9.718505108E-1,-3.140668166E-1,1.068887802E0
9.498754792E0,-2.223672724E-1,-9.889138556E-1,-3.713040411E-1,1.079474181E0
9.508803792E0,-4.160305631E-1,-7.559777409E-1,-3.883451664E-1,9.462535297E-1
9.518851792E0,-5.027681601E-1,-5.238064420E-1,-3.948998952E-1,8.264955770E-1
9.528899792E0,-1.918699497E-1,-5.140825224E-1,-4.528914106E-1,7.114812346E-1
9.538948792E0,1.712497437E-1,-5.363668460E-1,-4.683771765E-1,7.323885906E-1
9.548996792E0,2.822158635E-1,-3.987432700E-1,-3.973136258E-1,6.296825440E-1
9.559045792E0,2.498526943E-1,-2.294956130E-1,-2.372578100E-1,4.139877699E-1
9.569093792E0,2.039809951E-1,-3.468743742E-2,4.318049988E-2,2.113670274E-1
9.579141792E0,1.834970292E-1,2.640158200E-1,6.976546884E-1,7.681780895E-1
9.589190792E0,1.579660392E-1,5.754677618E-1,1.665305729E0,1.768999600E0
9.599238792E0,4.900200605E-2,5.675547248E-1,2.290405827E0,2.360186097E0
9.609287792E0,-1.565767407E-2,2.689052618E-1,2.542018533E0,2.556249875E0
9.619335792E0,-2.194205680E-1,2.952025294E-2,2.475017627E0,2.484900217E0
9.629383792E0,-2.852368274E-1,-1.323014402E-1,2.075367454E0,2.099050688E0
9.639432792E0,-2.179833224E-1,-2.469074517E-1,1.526743090E0,1.561865705E0
9.649480792E0,-2.942564499E-1,-1.629695016E-1,1.088293133E0,1.139090804E0
9.659529792E0,-4.478552037E-1,8.435953438E-2,9.157447225E-1,1.022877906E0
9.669577792E0,-5.580588466E-1,1.026063555E-1,9.218842989E-1,1.082510231E0
9.679625791E0,-6.059191838E-1,-1.162286139E-1,1.069714774E0,1.234883333E0
9.689674792E0,-6.909578723E-1,-4.279735011E-1,1.256936188E0,1.496820857E0
9.699722792E0,-6.831456998E-1,-6.407478315E-1,1.328507861E0,1.625478074E0
9.709770792E0,-8.322382969E-1,-4.639122427E-1,1.192967575E0,1.526763501E0
9.719819792E0,-1.286324586E0,2.042958677E-1,8.387970456E-1,1.549176628E0
9.729867792E0,-1.931242067E0,1.206985763E0,4.595695156E-1,2.323298236E0
9.739916792E0,-2.359998803E0,2.262926252E0,8.539463773E-2,3.270737197E0
9.749964792E0,-2.528075262E0,3.182494469E0,-3.306968826E-1,4.077842077E0
9.760012792E0,-2.627328240E0,4.096790836E0,-7.533657897E-1,4.924846073E0
9.770061792E0,-2.741465889E0,4.793078445E0,-1.102544551E0,5.630705168E0
9.780109792E0,-2.825522538E0,4.752891117E0,-1.331297568E0,5.687346024E0
9.790158792E0,-2.339338251E0,4.765809955E0,-1.349254367E0,5.477767367E0
9.800206792E0,-1.396673824E0,4.472090279E0,-1.043243845E0,4.799859056E0
9.810254792E0,-7.614261764E-1,3.746701078E0,-7.071233770E-1,3.888130947E0
9.820303792E0,-4.510270259E-1,3.207101891E0,-3.489168066E-1,3.257402471E0
9.830351792E0,-3.426950768E-1,2.622216604E0,3.152380139E-2,2.644702929E0
9.840400792E0,-7.342532882E-1,2.018995033E0,7.061977628E-1,2.261456193E0
9.850448792E0,-1.199400463E0,1.428456073E0,1.644076535E0,2.486370020E0
9.860496792E0,-1.101684134E0,1.256180727E0,1.228561989E0,2.073900314E0
9.870545792E0,-1.562843800E-1,1.205432743E0,-9.238817078E-1,1.526777756E0
9.880593792E0,7.532693106E-1,8.626139975E-1,-3.133845050E0,3.336540478E0
9.890642792E0,1.458416913E0,6.290434599E-3,-4.181450332E0,4.428492559E0
9.900690792E0,2.122119744E0,-1.324487316E0,-3.939836365E0,4.666901482E0
9.910738792E0,1.846630518E0,-3.591153447E0,8.105506817E-1,4.118667231E0
9.920787792E0,1.147609627E0,-6.063242204E0,8.894444143E0,1.082548154E1
9.930835792E0,2.651155351E0,-6.819684214E0,5.597362373E0,9.212338629E0
9.940884792E0,5.102516606E0,-6.741926771E0,-2.732890947E0,8.885828337E0
9.950932792E0,6.336027678E0,-6.844834843E0,-5.487922377E0,1.082193618E1
9.960980792E0,6.410728197E0,-6.707634605E0,-5.070782597E0,1.057367647E1
9.971029792E0,6.411786543E0,-6.031834470E0,-2.257881274E0,9.088017473E0
9.981077792E0,7.521389269E0,-5.774862206E0,5.263250717E0,1.084537404E1
9.991126792E0,8.803348031E0,-9.158136612E0,1.222483458E1,1.763000236E1
1.000117479E1,8.597138954E0,-1.440975897E1,9.364693013E0,1.921586394E1
1.001122279E1,7.388733487E0,-1.746324281E1,2.724588778E0,1.915676424E1
1.002127179E1,6.318186069E0,-1.903913292E1,1.629327226E0,2.012617114E1
1.003131979E1,4.285432245E0,-1.910141512E1,4.332237160E0,2.004986953E1
1.004136879E1,2.444997438E0,-1.639098158E1,4.407472115E0,1.714841392E1
1.005141679E1,2.096964145E0,-1.306414391E1,1.995782756E0,1.338104120E1
1.006146479E1,2.043559478E0,-1.127732602E1,9.651162726E-1,1.150155063E1
1.007151379E1,1.968280377E0,-1.046964662E1,1.033343924E0,1.070305693E1
1.008156179E1,2.053252700E0,-9.669393759E0,1.145757229E0,9.951169879E0
1.009161079E1,2.068831729E0,-8.265317068E0,1.035985403E0,8.583052878E0
1.010165879E1,1.363591155E0,-6.313784285E0,7.498811415E-1,6.502735929E0
1.011170679E1,1.879780430E-1,-3.732960706E0,3.173054431E-1,3.751135044E0
1.012175579E1,-1.057728567E0,-1.362282549E0,7.811923966E-2,1.726472148E0
1.013180379E1,-2.087685199E0,7.417672527E-1,-2.845939261E-1,2.233750624E0
1.014185279E1,-3.059409994E0,2.587202892E0,-7.852648361E-1,4.082921648E0
1.015190079E1,-4.101722378E0,3.774305198E0,-1.092688923E0,5.680094654E0
1.016194879E1,-5.101050124E0,5.063764769E0,-1.364744373E0,7.316074986E0
1.017199779E1,-5.766765566E0,6.293988537E0,-1.523783230E0,8.671320091E0
1.018204579E1,-6.196179821E0,7.430690183E0,-1.868661364E0,9.853917813E0
1.019209479E1,-6.446066430E0,8.392630833E0,-2.254281144E0,1.081988023E1
1.020214279E1,-6.246337237E0,8.824585703E0,-2.102871003E0,1.101417760E1
1.021219079E1,-5.814353131E0,8.889852909E0,-1.705483702E0,1.075847860E1
1.022223979E1,-5.390227098E0,8.971101725E0,-1.171708415E0,1.053129218E1
1.023228779E1,-4.973154561E0,9.071020115E0,-4.602262310E-1,1.035507027E1
1.024233679E1,-4.499729191E0,9.409007306E0,7.623266476E-1,1.045744343E1
1.025238479E1,-3.269683178E0,1.063412529E1,5.668599586E0,1.248633132E1
1.026243279E1,-3.278606029E0,1.059643413E1,3.119721100E0,1.152242742E1
1.027248179E1,-3.845628950E0,9.955672853E0,-3.940741222E-1,1.067986790E1
1.028252979E1,-3.929336520E0,9.749392440E0,-1.597802109E0,1.063218275E1
1.029257879E1,-3.980660455E0,9.582644468E0,-2.022259533E0,1.057176742E1
1.030262679E1,-3.957969750E0,9.570292225E0,-2.251091049E0,1.059827480E1
1.031267479E1,-3.930565020E0,9.463036748E0,-2.432863003E0,1.053172485E1
1.032272379E1,-3.904882002E0,9.403124422E0,-2.569429403E0,1.050089614E1
1.033277179E1,-3.843020215E0,9.368114803E0,-2.659510145E0,1.046916298E1
1.034282079E1,-3.802600167E0,9.333139683E0,-2.773294038E0,1.045267546E1
1.035286879E1,-3.730091769E0,9.299509422E0,-2.886512213E0,1.042719583E1
1.036291679E1,-3.688147060E0,9.278608550E0,-2.984854779E0,1.042134173E1
1.037296579E1,-3.619996008E0,9.224796624E0,-3.080922193E0,1.037753947E1
1.038301379E1,-3.497727512E0,9.207832097E0,-3.188812678E0,1.035310562E1
1.039306279E1,-3.425957618E0,9.191629463E0,-3.320742527E0,1.035618505E1
1.040311079E1,-3.314773982E0,9.158565212E0,-3.402088114E0,1.031703673E1
1.041315879E1,-3.227761566E0,9.136221247E0,-3.497218805E0,1.030143304E1
1.042320779E1,-3.145441248E0,9.127826985E0,-3.595269010E0,1.030228059E1
1.043325579E1,-3.047195746E0,9.112424249E0,-3.638448066E0,1.027423875E1
1.044330479E1,-2.971759062E0,9.087761863E0,-3.661286998E0,1.023834899E1
1.045335279E1,-2.906278433E0,9.049106505E0,-3.688565136E0,1.019501327E1
1.046340079E1,-2.800180413E0,8.956873110E0,-3.731072932E0,1.009888566E1
1.047344979E1,-2.730347116E0,8.606599749E0,-3.794577495E0,9.794241828E0
1.048349792E1,-2.682774462E0,8.440353468E0,-3.885837036E0,9.671430864E0
1.049354692E1,-2.560475854E0,8.416121437E0,-3.962487894E0,9.648235432E0
1.050359492E1,-2.348111121E0,8.357160453E0,-3.973138889E0,9.546810426E0
1.051364292E1,-1.713527132E0,8.157054700E0,-3.862299362E0,9.186461396E0
1.052369192E1,-1.290433717E-1,7.072055889E0,-1.784732477E0,7.294922666E0
1.053373992E1,5.149114237E0,1.406409731E0,1.848815213E1,1.924326206E1
1.054378892E1,5.660608197E0,-1.670291650E0,3.015693521E1,3.072902700E1
1.055383692E1,3.901712519E0,-3.628232396E0,2.126154264E1,2.191895587E1
1.056388492E1,2.542576942E0,-6.869904195E0,3.996059682E0,8.344385786E0
1.057393392E1,2.688003627E0,-8.612089115E0,-6.854604371E0,1.133044763E1
1.058398192E1,3.846053750E0,-1.024168590E1,-9.989773815E0,1.481485202E1
1.059403092E1,7.510127531E0,-1.822267684E1,-7.805576228E0,2.119893835E1
1.060407892E1,1.442950502E1,-3.028459396E1,-2.494035696E0,3.363907639E1
1.061412692E1,1.542486601E1,-3.667530830E1,7.282893037E0,4.044805634E1
1.062417592E1,1.027896775E1,-3.405444358E1,9.040695285E0,3.670281292E1
1.063422392E1,6.083259562E0,-2.812606155E1,5.726477666E0,2.934065323E1
1.064427292E1,6.537373041E0,-2.015642356E1,2.541893110E0,2.134197455E1
1.065432092E1,6.993049480E0,-1.293358026E1,2.314109562E0,1.488406337E1
1.066436892E1,5.481086982E0,-7.681369674E0,3.125815653E0,9.940647769E0
1.067441792E1,3.758060464E0,-4.254125376E0,2.658222296E0,6.267914082E0
1.068446592E1,2.574374101E0,-2.282003962E0,7.636826169E-1,3.523940299E0
1.069451492E1,1.888399372E0,-1.064334751E0,-6.097912100E-1,2.251822810E0
1.070456292E1,1.427179333E0,-2.778737211E-1,-6.003669602E-1,1.573052809E0
1.071461192E1,5.022845954E-1,1.520317000E-1,1.151097491E-1,5.372650248E-1
1.072465992E1,-9.226809821E-1,-1.240603745E-2,1.321522193E0,1.611804892E0
1.073470792E1,-2.073983126E0,-5.486670488E-1,2.148216160E0,3.035996411E0
1.074475692E1,-2.330340263E0,-9.381459904E-1,1.873125129E0,3.133560497E0
1.075480492E1,-1.949416383E0,-9.244962502E-1,7.778208920E-1,2.293452177E0
1.076485392E1,-1.307644996E0,-2.944201720E-1,-4.458753365E-1,1.412594595E0
1.077490192E1,-7.446212786E-1,5.445482701E-1,-1.270059679E0,1.569727764E0
1.078494992E1,-5.008181137E-1,1.296479738E0,-1.698188131E0,2.194429635E0
1.079499892E1,-3.502251211E-1,1.918677278E0,-1.908346709E0,2.728693331E0
1.080504692E1,-1.334951493E-1,2.411990490E0,-1.965682167E0,3.114390062E0
1.081509592E1,1.471919596E-2,2.682288558E0,-1.887548163E0,3.279897351E0
1.082514392E1,4.961713314E-2,2.913207384E0,-1.743665143E0,3.395527537E0
1.083519192E1,1.062327987E-1,2.959916112E0,-1.534750560E0,3.335842933E0
1.084524092E1,2.064298090E-1,2.913454136E0,-1.312303473E0,3.202025714E0
1.085528892E1,2.333603302E-1,2.683651544E0,-1.042583694E0,2.888498471E0
1.086533792E1,-6.309730411E-2,2.460620613E0,-7.966176438E-1,2.587128667E0
1.087538592E1,-5.014364567E-1,2.293189686E0,-5.405208541E-1,2.408800583E0
1.088543392E1,-9.056044811E-1,2.331730438E0,-2.249716222E-1,2.511513198E0
1.089548292E1,-1.276938343E0,2.506356949E0,-6.836213708E-2,2.813728855E0
1.090553092E1,-1.555445902E0,2.677414904E0,1.029332149E-1,3.098153930E0
1.091557992E1,-1.744797749E0,2.759655992E0,3.164915107E-1,3.280272436E0
1.092562792E1,-1.844101597E0,2.545614570E0,5.707185070E-1,3.194774461E0
1.093567592E1,-1.819302093E0,2.201275549E0,8.497505616E-1,2.979521802E0
1.094572492E1,-1.686978726E0,1.839325883E0,1.175763313E0,2.758883161E0
1.095577292E1,-1.561205410E0,1.424891025E0,1.620233636E0,2.663237466E0
1.096582192E1,-1.357920526E0,9.349779689E-1,1.969566180E0,2.568525432E0
1.097586992E1,-1.107738633E0,5.542604953E-1,2.191272717E0,2.517134422E0
1.098591892E1,-8.129421929E-1,2.139390957E-1,2.261379663E0,2.412567704E0
1.099596692E1,-5.583301574E-1,-9.562010229E-2,2.208195729E0,2.279693871E0
1.100601492E1,-5.418983120E-1,-3.410014307E-1,2.105770052E0,2.200955081E0
1.101606392E1,-6.843902797E-1,-5.076891768E-1,1.947546735E0,2.125811996E0
1.102611192E1,-9.128070813E-1,-6.257427067E-1,1.727448183E0,2.051547691E0
1.103616092E1,-1.166814222E0,-6.956075782E-1,1.504133661E0,2.026756868E0
1.104620892E1,-1.343005448E0,-7.122937775E-1,1.310362197E0,2.007006514E0
1.105625692E1,-1.437077792E0,-7.222264427E-1,1.159065565E0,1.982482434E0
1.106630592E1,-1.455021143E0,-7.808687532E-1,1.076953627E0,1.971464342E0
1.107635392E1,-1.494819047E0,-7.360247022E-1,9.922790013E-1,1.939286972E0
1.108640292E1,-1.631874273E0,-6.485608810E-1,8.848796830E-1,1.966381681E0
1.109645092E1,-1.686933410E0,-6.696342462E-1,7.522051173E-1,1.964679845E0
1.110649892E1,-1.652337189E0,-7.522483867E-1,6.059188549E-1,1.913957544E0
1.111654792E1,-1.575658557E0,-7.139157951E-1,4.830221128E-1,1.796019491E0
1.112659592E1,-1.403927003E0,-6.296983480E-1,4.125420777E-1,1.593022914E0
1.113664492E1,-1.172683657E0,-5.151250809E-1,3.857740726E-1,1.337670529E0
1.114669292E1,-9.719972759E-1,-2.973338395E-1,4.107634278E-1,1.096317796E0
1.115674092E1,-8.155965364E-1,-1.020666575E-1,4.972916579E-1,9.606842904E-1
1.116678992E1,-5.986706829E-1,1.134886086E-2,6.790675592E-1,9.053552525E-1
1.117683792E1,-3.802380019E-1,1.687097132E-2,8.163514119E-1,9.007192657E-1
1.118688692E1,-2.117230010E-1,-1.258262336E-2,8.977996176E-1,9.225123875E-1
1.119693492E1,-1.550038397E-2,-1.218384326E-1,9.393522710E-1,9.473476418E-1
1.120698392E1,2.271187198E-1,-2.167662245E-1,9.382980180E-1,9.894309877E-1
1.121703192E1,4.408186644E-1,-2.611144316E-1,9.181391573E-1,1.051418734E0
1.122707992E1,5.350880599E-1,-2.673276830E-1,8.784026492E-1,1.062720347E0
1.123712892E1,5.957619855E-1,-2.100606376E-1,8.517398574E-1,1.060433213E0
1.124717692E1,6.222829092E-1,-1.758620274E-1,7.900787026E-1,1.020973960E0
1.125722592E1,5.838935995E-1,-1.441087228E-1,6.813590100E-1,9.088174514E-1
1.126727392E1,5.164597079E-1,-5.456855536E-2,5.292706285E-1,7.415091067E-1
1.127732192E1,3.930983680E-1,4.426576138E-2,3.588377408E-1,5.340882969E-1
1.128737092E1,2.875216269E-1,1.105468744E-1,2.041696044E-1,3.695599069E-1
1.129741892E1,2.187069154E-1,1.414570105E-1,5.580637436E-2,2.663778371E-1
1.130746792E1,1.354694617E-1,1.262905025E-1,-3.578086674E-2,1.886306881E-1
1.131751592E1,-3.157934994E-2,8.212706745E-2,-7.848841824E-2,1.179090427E-1
1.132756492E1,-1.962816739E-1,-5.848385096E-2,-1.119379636E-1,2.334030077E-1
1.133761292E1,-2.711394829E-1,-1.556552196E-1,-1.413529301E-1,3.431119604E-1
1.134766092E1,-2.683103076E-1,-1.641126323E-1,-1.842323166E-1,3.645064111E-1
1.135770992E1,-2.974645248E-1,-1.221524280E-1,-2.125387241E-1,3.854595549E-1
1.136775792E1,-3.760101727E-1,-4.624913692E-2,-2.370852989E-1,4.469139420E-1
1.137780692E1,-4.309342387E-1,6.244650900E-2,-2.182093173E-1,4.870515278E-1
1.138785492E1,-3.318110695E-1,9.822971463E-2,-1.422352749E-1,3.741370553E-1
1.139790292E1,-1.401408023E-1,1.057036257E-1,-2.948626600E-2,1.779947775E-1
1.140795192E1,-4.107464343E-2,9.003835022E-2,6.242545903E-2,1.170084133E-1
1.141799992E1,-5.302898347E-2,1.174126750E-1,1.408640663E-1,1.908939353E-1
1.142804892E1,-3.814080298E-2,1.512277079E-1,2.011722485E-1,2.545482549E-1
1.143809692E1,3.491021633E-2,9.994587243E-2,2.872648976E-1,3.061519591E-1
1.144814592E1,1.326940808E-1,7.949172735E-2,3.417054355E-1,3.750856681E-1
1.145819392E1,1.764739385E-1,1.353104174E-1,3.942759973E-1,4.526649115E-1
1.146824192E1,2.153552914E-1,1.699054688E-1,4.122503382E-1,4.951728094E-1
1.147829092E1,2.237021917E-1,1.492583656E-1,4.117673947E-1,4.918059756E-1
1.148833925E1,2.148807898E-1,1.133149463E-1,3.862682354E-1,4.563082079E-1
1.149838825E1,1.954177478E-1,4.838220119E-2,3.523742652E-1,4.058282350E-1
1.150843625E1,1.402185702E-1,-1.861461103E-2,3.067169030E-1,3.377617648E-1
1.151848425E1,4.749897927E-2,-7.115067422E-2,2.527370892E-1,2.668231769E-1
1.152853325E1,-1.158611163E-1,-1.262472332E-1,2.148027295E-1,2.747769546E-1
1.153858125E1,-2.644485140E-1,-1.811063951E-1,1.808649051E-1,3.680280652E-1
1.154863025E1,-3.642645782E-1,-2.398826069E-1,1.259402543E-1,4.539749946E-1
1.155867825E1,-4.351658687E-1,-2.696309012E-1,9.671349507E-2,5.209833551E-1
1.156872625E1,-5.158890197E-1,-2.332881171E-1,8.780409258E-2,5.729523408E-1
1.157877525E1,-5.048857293E-1,-2.517045075E-1,8.157801390E-2,5.700173077E-1
1.158882325E1,-3.750126377E-1,-2.334056461E-1,7.956711989E-2,4.488246881E-1
1.159887225E1,-2.697256261E-1,-9.915357471E-2,1.087611347E-1,3.072658933E-1
1.160892025E1,-1.925333163E-1,3.331275702E-2,1.508090472E-1,2.468242014E-1
1.161896925E1,-1.184417850E-1,1.682103610E-1,2.170942533E-1,2.990871057E-1
1.162901725E1,-2.356410366E-1,4.393007272E-1,2.905405444E-1,5.769970841E-1
1.163906525E1,-4.683929640E-1,8.089757341E-1,3.619396887E-1,1.002414109E0
1.164911425E1,-7.548635539E-1,1.193590377E0,4.201902358E-1,1.473443860E0
1.165916225E1,-1.157197891E0,1.665402208E0,4.841360074E-1,2.084960227E0
1.166921125E1,-1.464348037E0,2.088309681E0,5.082669182E-1,2.600709088E0
1.167925925E1,-1.573550051E0,2.168634637E0,4.475733680E-1,2.716497354E0
1.168930725E1,-1.463226248E0,2.013832526E0,3.581512777E-1,2.514920443E0
1.169935625E1,-1.258713741E0,1.721531385E0,2.587486116E-1,2.148250785E0
1.170940425E1,-1.134297564E0,1.504796151E0,1.815362020E-1,1.893144953E0
1.171945325E1,-1.112023765E0,1.306841004E0,1.329072118E-1,1.721073674E0
1.172950125E1,-8.221278763E-1,8.781979966E-1,3.842910726E-2,1.203579147E0
1.173955025E1,-7.373183987E-1,6.534865755E-1,1.894380927E-2,9.854146301E-1
1.174959825E1,-2.531414607E-1,1.388626009E-1,1.139916519E-2,2.889521795E-1
1.175964625E1,4.424132001E-1,-6.633613533E-1,-3.253624678E-2,7.980202579E-1
1.176969525E1,6.693360382E-1,-1.343836337E0,1.959458610E-2,1.501429579E0
1.177974325E1,9.704752457E-1,-1.899044082E0,2.264831275E-1,2.144641050E0
1.178979225E1,1.083156061E0,-2.348395003E0,4.353035706E-1,2.622532239E0
1.179984025E1,8.422908300E-1,-2.581808251E0,8.723747545E-1,2.852406948E0
1.180988925E1,7.445221683E-1,-2.924076188E0,1.489457150E0,3.364969155E0
1.181993725E1,6.641410795E-1,-3.012469717E0,2.389088700E0,3.901769084E0
1.182998525E1,2.111546516E-1,-2.357690907E0,3.358457653E0,4.108835663E0
1.184003425E1,-5.344571453E-1,-1.385555636E0,3.922138597E0,4.193874109E0
1.185008225E1,-1.307914553E0,-5.641533995E-1,3.827672151E0,4.084113567E0
1.186013125E1,-1.585283659E0,1.083108991E-1,3.015217323E0,3.408282711E0
1.187017925E1,-1.295836252E0,5.534331143E-1,1.977133062E0,2.427866336E0
1.188022725E1,-8.383275872E-1,8.211619163E-1,1.122611026E0,1.623993705E0
1.189027625E1,-4.942022815E-1,1.018860955E0,4.348287036E-1,1.213008468E0
1.190032425E1,-3.581916600E-1,1.154787669E0,-3.084055424E-2,1.209457302E0
1.191037325E1,-3.885983509E-1,1.293837966E0,-3.414393872E-1,1.393415306E0
1.192042125E1,-3.634538618E-1,1.420724884E0,-5.642720979E-1,1.571292750E0
1.193047025E1,-2.438283080E-1,1.443341330E0,-7.061294965E-1,1.625209311E0
1.194051825E1,-1.251061490E-1,1.402750543E0,-6.639425665E-1,1.556977960E0
1.195056625E1,-1.180634701E-1,1.316314663E0,-3.800682865E-1,1.375163691E0
1.196061525E1,-1.726998532E-1,1.245066340E0,9.031192683E-2,1.260226834E0
1.197066325E1,-3.618297976E-1,1.169136152E0,7.129282004E-1,1.416356863E0
1.198071225E1,-4.920130840E-1,1.136817421E0,1.286142299E0,1.785663109E0
1.199076025E1,-4.838208425E-1,1.161304976E0,1.557075083E0,2.001797859E0
1.200080925E1,-3.096081685E-1,1.232367357E0,1.451215629E0,1.928889142E0
1.201085725E1,-4.356497258E-2,1.273416565E0,1.040996175E0,1.645345159E0
1.202090525E1,2.607776320E-1,1.285974630E0,5.001130857E-1,1.404225346E0
1.203095425E1,5.661538781E-1,1.258985052E0,-1.115648746E-2,1.380470225E0
1.204100225E1,6.913918819E-1,1.232853845E0,-4.311703201E-1,1.477788612E0
1.205105125E1,6.822708102E-1,1.147826559E0,-8.619225642E-1,1.589311101E0
1.206109925E1,4.258996399E-1,1.121898251E0,-1.298691447E0,1.768232355E0
1.207114825E1,1.436647730E-1,1.207838287E0,-1.489502320E0,1.923052276E0
1.208119625E1,1.153230263E-1,1.422743343E0,-1.252264847E0,1.898858938E0
1.209124425E1,1.346778949E-1,1.588027757E0,-9.238600731E-1,1.842142157E0
1.210129325E1,1.485204470E-1,1.806722978E0,-6.271144634E-1,1.918222822E0
1.211134125E1,2.278488909E-1,1.852883238E0,-7.393336415E-2,1.868303389E0
1.212139025E1,5.365310065E-1,1.740814333E0,7.224585772E-1,1.959654678E0
1.213143825E1,1.351811647E0,1.763507962E0,9.349294370E-1,2.410694529E0
1.214148625E1,2.137347648E0,1.691515288E0,3.466555421E-1,2.747662462E0
1.215153525E1,2.674731909E0,1.620841747E0,-5.007429770E-1,3.167343095E0
1.216158325E1,2.861600443E0,1.336491065E0,-6.176677018E-1,3.218148358E0
1.217163225E1,2.984580545E0,9.232244807E-1,1.640143991E-2,3.124153241E0
1.218168025E1,3.318052808E0,3.684307194E-1,-1.026492156E0,3.492692626E0
1.219172925E1,3.762606089E0,-1.116642773E-2,-3.790561627E0,5.340944366E0
1.220177725E1,4.485495021E0,-8.838955235E-1,-5.052699498E0,6.814008299E0
1.221182525E1,5.185164075E0,-3.007669737E0,-4.087214851E0,7.255158784E0
1.222187425E1,5.192105890E0,-6.152060825E0,-2.385120341E0,8.396107134E0
1.223192225E1,3.805717610E0,-1.004850325E1,-5.442722815E-1,1.075881668E1
1.224197125E1,1.778733819E0,-1.419382130E1,-3.033355679E-1,1.430805610E1
1.225201925E1,8.961625434E-1,-1.678469449E1,-1.020896956E0,1.683957561E1
1.226206825E1,1.231463085E0,-1.780211703E1,-4.815481760E-1,1.785115572E1
1.227211625E1,2.299691790E0,-1.729268655E1,-1.314895543E-1,1.744542576E1
1.228216425E1,3.785527759E0,-1.617967607E1,-5.106823665E-1,1.662446795E1
1.229221325E1,4.761266668E0,-1.505500974E1,-1.016658748E0,1.582266013E1
1.230226125E1,4.843054305E0,-1.418665495E1,-3.553681127E-1,1.499475375E1
1.231231025E1,4.268908599E0,-1.405845124E1,4.760140787E-1,1.470000752E1
1.232235825E1,3.369488425E0,-1.386951834E1,8.402284440E-1,1.429765628E1
1.233240725E1,3.375201155E0,-1.427488709E1,6.086757074E-1,1.468110590E1
1.234245525E1,3.073862265E0,-1.417176560E1,4.781450965E-1,1.450917614E1
1.235250325E1,2.658722525E0,-1.171404287E1,8.894521326E-1,1.204486326E1
1.236255225E1,-3.719454807E-1,-7.394400024E0,-2.736016723E-1,7.408802402E0
1.237260025E1,-1.020167691E1,-1.548341535E0,-3.092972428E0,1.077209598E1
1.238264925E1,-5.760925367E0,4.002249545E-1,1.029431552E0,5.865847801E0
1.239269725E1,-8.795817402E0,4.214192401E0,1.712098072E0,9.902378561E0
1.240274625E1,-4.822206935E0,6.143997515E0,1.677779594E0,7.988574939E0
1.241279425E1,-4.856790876E-1,5.370352997E0,1.593504260E0,5.622795684E0
1.242284225E1,1.870649710E0,6.355023528E0,2.486137862E0,7.075771042E0
1.243289125E1,1.541692082E0,7.910688701E0,2.544811163E0,8.451737931E0
1.244293925E1,3.265982768E-1,8.852396230E0,1.891592390E0,9.058129344E0
1.245298825E1,-7.952467641E-1,9.795701804E0,1.433144370E0,9.931872634E0
1.246303625E1,-1.844206554E0,1.112321213E1,1.498852456E0,1.137424743E1
1.247308525E1,-3.380557497E0,1.359874782E1,3.484162264E0,1.443930393E1
1.248313304E1,-4.559163799E0,1.518537108E1,8.329011957E0,1.790960383E1
1.249318104E1,-4.574278851E0,1.525987630E1,1.039659969E1,1.902306854E1
1.250323004E1,-3.918505430E0,1.425625553E1,5.759977534E0,1.586735163E1
1.251327804E1,-3.657151847E0,1.211710664E1,1.384089155E0,1.273242851E1
1.252332704E1,-3.835386382E0,1.029501601E1,-3.167764163E-1,1.099080937E1
1.253337504E1,-3.689421169E0,9.611072461E0,-1.898740026E0,1.046851260E1
1.254342404E1,-3.510068646E0,9.107823075E0,-3.029072886E0,1.021999538E1
1.255347204E1,-3.509738863E0,8.798210083E0,-3.394407504E0,1.006224477E1
1.256352104E1,-3.614505765E0,8.738796524E0,-3.295134646E0,1.001444601E1
1.257356904E1,-3.646467230E0,8.738815235E0,-2.990596452E0,9.930119945E0
1.258361704E1,-3.863050437E0,8.607901924E0,-3.152041000E0,9.947587480E0
1.259366604E1,-4.535121218E0,8.249281079E0,-4.432325120E0,1.040497327E1
1.260371404E1,-5.738769683E0,7.917848616E0,-5.625136648E0,1.128131050E1
1.261376304E1,-7.204167879E0,7.891916215E0,-5.398925416E0,1.197208303E1
1.262381104E1,-7.607740365E0,7.660437811E0,-6.315220361E0,1.250767881E1
1.263386004E1,-7.555641088E0,7.457333021E0,-8.982069932E0,1.390600979E1
1.264390804E1,-7.722698379E0,7.274054385E0,-7.463794779E0,1.297151379E1
1.265395604E1,-7.382579877E0,7.138152230E0,-5.123091204E0,1.147613900E1
1.266400504E1,-6.344989706E0,6.554198989E0,-8.830617106E-1,9.164944993E0
1.267405304E1,-4.626344799E0,5.640970323E0,9.392239246E0,1.189276126E1
1.268410204E1,-1.807902069E0,4.353119321E0,1.841381764E1,1.900754687E1
1.269415004E1,8.776819798E-1,3.037323307E0,1.509592037E1,1.542343899E1
1.270419904E1,2.716858467E0,2.224553899E0,9.175567161E0,9.824509795E0
1.271424704E1,2.633502022E0,5.573478252E-1,4.991797823E0,5.671332737E0
1.272429504E1,3.071095070E0,-8.474369645E-2,-1.074673213E0,3.254800906E0
1.273434404E1,4.613664819E0,-4.295522493E-1,-2.392504644E0,5.214834290E0
1.274439204E1,6.855396084E0,-2.317997668E0,-2.082431476E0,7.530344580E0
1.275444104E1,7.250153307E0,-5.478445210E0,-2.023010901E0,9.309707729E0
1.276448904E1,4.889418340E0,-8.620765214E0,-3.685448570E0,1.057386097E1
1.277453804E1,1.003271255E0,-1.127521635E1,-3.465189804E0,1.183826834E1
1.278458604E1,-2.699698643E0,-1.360510725E1,5.828244361E-1,1.388261504E1
1.279463504E1,-5.900162775E0,-1.507037506E1,4.616395761E0,1.682971286E1
1.280468304E1,-9.996972907E0,-1.593339485E1,6.116671722E0,1.977943912E1
1.281473104E1,-9.889585283E0,-1.526842844E1,2.665425481E0,1.838568185E1
1.282478004E1,-6.513124638E0,-1.597414410E1,-2.693622217E-1,1.725301794E1
1.283482804E1,-1.325444651E0,-1.622341090E1,1.685695555E0,1.636451754E1
1.284487704E1,5.334610137E0,-1.347778998E1,2.096343463E0,1.464593950E1
1.285492504E1,1.028473661E1,-8.453975142E0,6.856483081E-1,1.333100208E1
1.286497404E1,1.062574739E1,-3.883888451E0,-6.734352288E-1,1.133334073E1
1.287502204E1,8.295258320E0,-1.043058488E0,-1.851774606E0,8.563197463E0
1.288507004E1,6.434661435E0,4.465109289E-2,-2.228769449E0,6.809865987E0
1.289511904E1,4.521276180E0,4.529066133E-1,-1.939200420E0,4.940400891E0
1.290516704E1,3.275603777E0,1.276435483E-1,-1.728683115E0,3.705970627E0
1.291521604E1,2.729502486E0,-9.340131783E-1,-1.733746219E0,3.365774857E0
1.292526404E1,2.367312208E0,-2.318856624E0,-1.620763102E0,3.688920731E0
1.293531304E1,2.418726190E0,-3.855680314E0,-9.418487397E-1,4.647965804E0
1.294536104E1,2.507009498E0,-5.306490292E0,-2.748983654E-1,5.875330200E0
1.295540904E1,2.399404212E0,-6.183721744E0,3.022425771E-1,6.639797117E0
1.296545804E1,1.923495529E0,-6.249340952E0,5.936569878E-1,6.565556032E0
1.297550604E1,1.339896776E0,-5.736298065E0,7.241671336E-1,5.935053234E0
1.298555504E1,5.311581463E-1,-4.921775077E0,8.202477041E-1,5.017848661E0
1.299560304E1,-2.478424215E-1,-3.110180199E0,7.178759681E-1,3.201560969E0
1.300565204E1,-6.664880057E-1,-2.938506532E-1,4.016812035E-1,8.318066226E-1
1.301570004E1,-4.854456376E-1,2.024329448E0,-5.871773958E-3,2.081730448E0
1.302574904E1,1.661764070E-2,3.323752089E0,-4.027144065E-1,3.348101401E0
1.303579704E1,5.999690571E-1,3.970392745E0,-6.105434543E-1,4.061618486E0
1.304584504E1,1.164000250E0,4.254635838E0,-5.928427631E-1,4.450649979E0
1.305589404E1,1.475175034E0,4.413782430E0,-3.972851206E-1,4.670701466E0
1.306594204E1,1.487061546E0,4.478470176E0,-1.027067815E-1,4.720020746E0
1.307599104E1,1.145034806E0,4.480475187E0,2.099606502E-1,4.629238175E0
1.308603904E1,6.043249404E-1,4.365925308E0,4.632637864E-1,4.431830972E0
1.309608804E1,1.412722385E-1,4.233280637E0,5.044806634E-1,4.265574233E0
1.310613604E1,-1.355855289E-1,3.828078532E0,4.527561937E-1,3.857143614E0
1.311618404E1,-4.033923912E-1,3.562607340E0,3.326473676E-1,3.600770855E0
1.312623304E1,-7.425428858E-1,3.439721087E0,3.475709237E-1,3.536079275E0
1.313628104E1,-9.107088080E-1,3.097518053E0,2.840144670E-1,3.241091304E0
1.314633004E1,-1.055628540E0,2.337814466E0,1.955278947E-1,2.572539456E0
1.315637804E1,-1.314716911E0,1.567877083E0,5.019885801E-2,2.046763061E0
1.316642704E1,-1.557917228E0,1.066218140E0,-1.267911704E-1,1.892089641E0
1.317647504E1,-1.659096571E0,8.090798146E-1,-3.185036838E-1,1.873140724E0
1.318652404E1,-1.734187391E0,4.493175924E-1,-5.060724948E-1,1.861558910E0
1.319657204E1,-1.732957722E0,3.315839052E-2,-6.435166343E-1,1.848879553E0
1.320662004E1,-1.697783504E0,-4.136530852E-1,-7.403585853E-1,1.897816781E0
1.321666904E1,-1.633786313E0,-8.016971201E-1,-8.390467948E-1,2.003989898E0
1.322671704E1,-1.566600343E0,-1.149677787E0,-1.001557875E0,2.186118438E0
1.323676604E1,-1.394835460E0,-1.562547346E0,-1.128739493E0,2.379321964E0
1.324681404E1,-1.120502520E0,-2.092502720E0,-1.184375750E0,2.652704176E0
1.325686304E1,-5.804785332E-1,-2.528667585E0,-1.188514409E0,2.853713648E0
1.326691104E1,-2.172600219E-1,-2.840203142E0,-8.904210162E-1,2.984427146E0
1.327696004E1,-3.571859390E-2,-2.063097072E0,-1.256671894E-1,2.067229448E0
1.328700804E1,2.865702850E-1,-9.759920937E-1,1.027787315E0,1.446039370E0
1.329705604E1,9.634761286E-1,-1.022637087E-1,2.738221854E0,2.904583109E0
1.330710504E1,1.981369662E0,5.798824096E-1,5.103736335E0,5.505471272E0
1.331715304E1,3.002203760E0,9.855335802E-1,7.497273012E0,8.135945334E0
1.332720204E1,3.670655992E0,1.003185740E0,8.165815583E0,9.008920090E0
1.333725004E1,3.317504339E0,8.908116102E-1,6.838121070E0,7.652403552E0
1.334729904E1,1.981570514E0,8.924032223E-1,4.819365188E0,5.286708430E0
1.335734704E1,9.509537315E-1,4.104762930E-1,2.923147066E0,3.101224364E0
1.336739504E1,1.798065591E-1,-1.565387338E-1,1.345601027E0,1.366556584E0
1.337744404E1,-4.393220696E-1,-5.587821472E-1,8.715980250E-2,7.161272233E-1
1.338749204E1,-8.419461367E-1,-8.112058622E-1,-6.864303732E-1,1.355770963E0
1.339754104E1,-1.186890637E0,-8.177108896E-1,-1.194948685E0,1.872234719E0
1.340758904E1,-1.465868897E0,-6.845387989E-1,-1.571743262E0,2.255602330E0
1.341763804E1,-1.840370196E0,-5.076535088E-1,-1.816810595E0,2.635426964E0
1.342768604E1,-2.280750904E0,-1.926926529E-1,-1.914497688E0,2.984000091E0
1.343773504E1,-2.562036183E0,1.255081451E-1,-1.986160578E0,3.244166386E0
1.344778304E1,-2.561335394E0,2.453374743E-1,-2.093382726E0,3.317059046E0
1.345783104E1,-2.467519450E0,3.799462259E-2,-2.232504358E0,3.327787785E0
1.346788004E1,-2.402209268E0,-1.003265262E-1,-2.491543613E0,3.462436188E0
1.347792804E1,-2.057483453E0,-2.627510673E-1,-2.558701224E0,3.293816667E0
1.348797754E1,-1.526005756E0,-5.389092153E-1,-2.297388572E0,2.810179880E0
1.349802554E1,-1.178901294E0,-5.954857045E-1,-1.783086779E0,2.218965963E0
1.350807454E1,-8.839706603E-1,-6.494449800E-1,-1.249880937E0,1.662944758E0
1.351812254E1,-5.828080639E-1,-7.785550100E-1,-7.375163269E-1,1.220550480E0
1.352817154E1,-2.274900180E-1,-9.216550881E-1,-1.702908003E-1,9.644681261E-1
1.353821954E1,1.612141675E-1,-8.322932607E-1,6.221718121E-1,1.051570180E0
1.354826854E1,5.149552193E-1,-5.969931167E-1,1.634410211E0,1.814628446E0
1.355831654E1,8.495682746E-1,-3.171395284E-1,2.681516726E0,2.830702331E0
1.356836454E1,9.479093787E-1,-4.199411809E-2,3.506123822E0,3.632244478E0
1.357841354E1,8.937457430E-1,1.396367723E-1,3.866036317E0,3.970455476E0
1.358846154E1,7.208359748E-1,1.290883952E-1,3.555054492E0,3.629694306E0
1.359851054E1,4.633237204E-1,5.424228072E-2,2.772884148E0,2.811849497E0
1.360855854E1,2.592576483E-1,4.010429800E-2,1.845654910E0,1.864206246E0
1.361860754E1,1.749636027E-1,-6.583380103E-3,9.795431077E-1,9.950679892E-1
1.362865554E1,2.080638134E-1,-7.701484680E-2,2.397696825E-1,3.266670136E-1
1.363870454E1,2.723673981E-1,-9.346306443E-2,-3.553352952E-1,4.573647516E-1
1.364875254E1,2.643844870E-1,-1.596248943E-1,-7.216154087E-1,7.849255136E-1
1.365880054E1,9.022750765E-2,-8.292345822E-2,-8.545693982E-1,8.633111602E-1
1.366884954E1,-3.862466007E-2,1.817139208E-2,-8.995110977E-1,9.005233360E-1
1.367889754E1,-1.586095253E-1,1.227201927E-1,-9.341487607E-1,9.554324331E-1
1.368894654E1,-2.072668380E-1,2.065195638E-1,-9.283062959E-1,9.733254601E-1
1.369899454E1,-9.768095344E-2,1.994619745E-1,-8.155357254E-1,8.452367522E-1
1.370904354E1,-7.693561703E-2,1.482766181E-1,-7.578085041E-1,7.760017871E-1
1.371909154E1,-1.528020707E-1,8.467586875E-2,-7.478846097E-1,7.680168390E-1
1.372914054E1,-2.317894757E-1,2.122539282E-3,-7.123814857E-1,7.491450109E-1
1.373918854E1,-2.848169973E-1,-6.812298596E-2,-6.273922062E-1,6.923744966E-1
1.374923654E1,-3.644891113E-1,-1.504108518E-1,-4.980657927E-1,6.352521314E-1
1.375928554E1,-4.484817329E-1,-1.687933284E-1,-2.968338661E-1,5.636819994E-1
1.376933354E1,-5.236836505E-1,-1.271459502E-1,-7.210435510E-2,5.437000060E-1
1.377938254E1,-5.053988224E-1,-3.148842573E-2,1.652469190E-1,5.326593986E-1
1.378943054E1,-3.751322132E-1,2.706208348E-2,3.576648259E-1,5.190189413E-1
1.379947954E1,-2.585820025E-1,-5.740036190E-2,4.495935079E-1,5.218177612E-1
1.380952754E1,-1.288471976E-1,-1.984767187E-1,5.346529540E-1,5.846780220E-1
1.381957654E1,-2.288980275E-2,-3.202689582E-1,6.319132733E-1,7.088092365E-1
1.382962454E1,-3.496518016E-2,-3.472257918E-1,7.452030766E-1,8.228705486E-1
1.383967254E1,-3.199789363E-1,-2.120720798E-1,3.792164934E-1,5.395982168E-1
1.384972154E1,-8.602470446E-1,8.413090825E-2,-9.517871059E-2,8.695757439E-1
1.385976954E1,-1.006580341E0,-2.333565295E-1,6.384072641E-1,1.214587620E0
1.386981854E1,-9.416543198E-1,-2.059424436E-1,7.301475926E-1,1.209231432E0
1.387986654E1,-5.781875941E-1,-2.391838646E-1,8.530584045E-1,1.057931215E0
1.388991554E1,-2.508712792E-1,-2.300885206E-1,8.729203729E-1,9.369456246E-1
1.389996354E1,-6.888458580E-2,-1.159315753E-1,8.858121677E-1,8.960180873E-1
1.391001254E1,8.031910837E-2,-8.745563507E-2,9.972415332E-1,1.004285977E0
1.392006054E1,1.432801723E-1,-1.707468832E-1,1.371157014E0,1.389156313E0
1.393010954E1,1.524363273E-1,-2.394013810E-1,1.874398652E0,1.895763741E0
1.394015754E1,1.274234006E-1,-2.970502496E-1,2.366992657E0,2.388959986E0
1.395020554E1,-3.784405679E-2,-4.481294382E-1,2.731651922E0,2.768424532E0
1.396025454E1,-4.154359013E-1,-5.052099574E-1,2.866581101E0,2.940257013E0
1.397030254E1,-9.230122268E-1,-4.206627274E-1,2.789390838E0,2.968098709E0
1.398035154E1,-1.420847968E0,-2.683538693E-1,2.486838359E0,2.876662610E0
1.399039954E1,-1.777891235E0,-1.469171405E-1,2.041053654E0,2.710789905E0
1.400044854E1,-1.983531085E0,1.942503512E-2,1.625110799E0,2.564324084E0
1.401049654E1,-1.807943877E0,1.858063871E-1,1.206970561E0,2.181733946E0
1.402054554E1,-1.510573785E0,4.711113346E-1,9.253294784E-1,1.833034013E0
1.403059354E1,-1.236290254E0,7.585464227E-1,9.386628842E-1,1.727684658E0
1.404064154E1,-1.048441435E0,9.751740682E-1,1.161728314E0,1.843856443E0
1.405069054E1,-9.776573807E-1,1.148308954E0,1.365108508E0,2.034194840E0
1.406073854E1,-1.008331874E0,1.245368641E0,1.353398289E0,2.097465887E0
1.407078754E1,-7.591723672E-1,1.414394104E0,8.656539649E-1,1.823790051E0
1.408083554E1,-4.614447176E-1,1.677431685E0,2.263441099E-1,1.754405865E0
1.409088454E1,-2.461030211E-1,2.119720339E0,-4.444779982E-1,2.179757258E0
1.410093254E1,5.381499544E-2,2.539474994E0,-7.595312400E-1,2.651172760E0
1.411098154E1,4.538113238E-1,2.905901288E0,-6.749813788E-1,3.017582952E0
1.412102954E1,8.283355728E-1,2.988567469E0,6.845557559E-1,3.175892303E0
1.413107854E1,1.034619201E0,2.659163405E0,2.477131981E0,3.778593622E0
1.414112654E1,9.644034970E-1,2.248076663E0,2.753802930E0,3.683388842E0
1.415117454E1,8.007636121E-1,1.881684283E0,1.149918985E0,2.346118449E0
1.416122354E1,5.208968675E-1,1.710050962E0,-1.373156031E0,2.254144034E0
1.417127154E1,-3.665721819E-2,1.393749924E0,-3.368721271E0,3.645842235E0
1.418132054E1,-2.223421293E-1,8.380884361E-1,-3.660556681E0,3.761848410E0
1.419136854E1,2.259604595E-1,5.329701984E-1,-3.773839467E0,3.817981101E0
1.420141754E1,1.013173953E0,3.166056776E-1,-4.016878986E0,4.154765626E0
1.421146554E1,1.152796254E0,-4.310976684E-2,-3.521749044E0,3.705875603E0
1.422151454E1,1.505256034E0,-1.306214182E0,-3.005828449E-1,2.015525060E0
1.423156254E1,3.794193918E0,-2.876851151E0,1.183578482E0,4.906428238E0
1.424161154E1,5.889402729E0,-3.504436900E0,-3.289613413E0,7.601822077E0
1.425165954E1,7.542460295E0,-3.339989807E0,-6.712715836E0,1.063507372E1
1.426170754E1,8.659626979E0,-3.681454337E0,-6.155096115E0,1.124399634E1
1.427175654E1,8.018137136E0,-5.148655230E0,-2.838034118E0,9.942515349E0
1.428180454E1,5.688976548E0,-8.133633678E0,1.779664403E-1,9.927342194E0
1.429185354E1,4.494166150E0,-1.324669398E1,2.497677342E0,1.420953282E1
1.430190154E1,4.029453423E0,-1.826751797E1,4.305598415E0,1.919575175E1
1.431195054E1,3.723884658E0,-1.732661677E1,4.722575642E0,1.834071117E1
1.432199854E1,4.879751138E0,-1.590107261E1,4.176987153E0,1.714944031E1
1.433204754E1,7.667577846E0,-1.729603700E1,4.707257399E0,1.949622831E1
1.434209554E1,7.720160102E0,-1.883248179E1,5.169709300E0,2.099974135E1
1.435214454E1,5.603758058E0,-1.866263772E1,4.288265221E0,1.995207683E1
1.436219254E1,3.451095091E0,-1.807947619E1,1.972187487E0,1.851126792E1
1.437224154E1,1.306593374E0,-1.704196496E1,-1.836522728E-1,1.709296592E1
1.438228954E1,-1.139914107E0,-1.559013873E1,-1.060458194E0,1.566768654E1
1.439233754E1,-3.926663173E0,-1.260941414E1,-1.547133647E0,1.329697827E1
1.440238654E1,-5.881026592E0,-7.698962776E0,-1.979536268E0,9.888329760E0
1.441243454E1,-6.510460646E0,-3.358057703E0,-1.477332948E0,7.472962064E0
1.442248354E1,-6.235220511E0,-7.683475256E-2,2.683118425E-1,6.241463742E0
1.443253154E1,-6.344778621E0,2.404498453E0,9.342202429E-1,6.849131041E0
1.444258054E1,-6.773077812E0,4.431568490E0,3.772611479E-1,8.102821009E0
1.445262854E1,-6.914691528E0,6.142548575E0,-9.143571782E-1,9.294079350E0
1.446267754E1,-6.620191834E0,7.706687533E0,-1.339475484E0,1.024764203E1
1.447272554E1,-6.163559375E0,9.660442257E0,-6.715053552E-1,1.147887312E1
1.448277438E1,-5.812616508E0,1.290618957E1,2.556748254E0,1.438378258E1
1.449282237E1,-3.727848777E0,1.798493373E1,2.076965147E1,2.772603686E1
1.450287038E1,1.430443541E0,1.830852098E1,3.477707757E1,3.932802097E1
1.451291937E1,7.976064080E-1,1.262080802E1,1.149727723E1,1.709117769E1
1.452296737E1,-1.227864709E0,8.234353137E0,-6.568871992E0,1.060482450E1
1.453301638E1,-3.260031179E0,6.546540890E0,-8.694896214E0,1.136161173E1
1.454306437E1,-4.453384160E0,6.030269170E0,-7.564427699E0,1.064975789E1
1.455311337E1,-4.527303198E0,6.094904292E0,-6.446904336E0,9.960266467E0
1.456316138E1,-5.175277019E0,6.400157601E0,-6.250552495E0,1.033513019E1
1.457321037E1,-5.660933302E0,6.916250980E0,-5.931575772E0,1.072680216E1
1.458325838E1,-6.014386963E0,7.360899571E0,-5.856012204E0,1.116461249E1
1.459330737E1,-6.509075441E0,7.639836316E0,-6.273405168E0,1.183599486E1
1.460335537E1,-7.143144583E0,7.938579919E0,-6.862171252E0,1.269389459E1
1.461340438E1,-7.734617343E0,8.766335156E0,-7.569236450E0,1.392717767E1
1.462345237E1,-8.136912212E0,9.467400525E0,-7.016559380E0,1.432037425E1
1.463350037E1,-8.108303540E0,9.281599401E0,-5.335128200E0,1.342967858E1
1.464354938E1,-7.777569235E0,8.979978383E0,-3.670548695E0,1.243396649E1
1.465359737E1,-7.363196357E0,8.863102482E0,-2.530848012E0,1.179730638E1
1.466364638E1,-6.724428978E0,8.899038300E0,-1.939135077E0,1.132126639E1
1.467369437E1,-6.051316808E0,8.869560732E0,-1.660288818E0,1.086481024E1
1.468374337E1,-5.190161106E0,8.711481841E0,-5.904811458E-1,1.015757629E1
1.469379138E1,-4.244256445E0,8.432300098E0,2.046184586E0,9.659413495E0
1.470384037E1,-3.403640550E0,8.063219168E0,6.268047364E0,1.076516094E1
1.471388837E1,-2.758048593E0,7.504366854E0,8.381207712E0,1.158304781E1
1.472393738E1,-2.703149670E0,7.095507317E0,6.671761937E0,1.010770249E1
1.473398537E1,-2.842279781E0,7.036502479E0,4.224831410E0,8.685627319E0
1.474403437E1,-2.891418904E0,6.675559119E0,2.464761027E0,7.681044183E0
1.475408237E1,-2.745518302E0,5.878300620E0,1.324931120E0,6.621761956E0
1.476413037E1,-2.322830392E0,4.714676054E0,4.168963896E-1,5.272334770E0
1.477417938E1,-2.172288854E0,3.413528484E0,4.919993430E-1,4.075914490E0
1.478422737E1,-2.064795688E0,1.713046491E0,4.897709107E0,5.584394686E0
1.479427637E1,-1.216766401E0,-1.419188236E0,7.989336090E0,8.205126866E0
1.480432437E1,-6.989516008E-1,-3.647384951E0,9.756570482E-1,3.839773039E0
1.481437337E1,1.621111304E-2,-4.391591077E0,-5.263469988E0,6.854958154E0
1.482442138E1,2.485361060E0,-6.208338522E0,-6.830682827E0,9.559221447E0
1.483447037E1,6.327840407E0,-1.012675069E1,-6.477646657E0,1.358501196E1
1.484451837E1,1.094963052E1,-1.703493894E1,-4.146788623E0,2.067073799E1
1.485456738E1,1.139758805E1,-2.238983073E1,6.934914708E-1,2.513345308E1
1.486461537E1,5.521756706E0,-2.072225628E1,1.281898419E1,2.498455640E1
1.487466437E1,-3.631434039E0,-1.439655596E1,1.800438157E1,2.333679268E1
1.488471238E1,-7.511309838E0,-1.394899253E1,5.323803898E0,1.671337955E1
1.489476037E1,-4.610015864E0,-1.346774446E1,-2.255284818E0,1.441244937E1
1.490480938E1,1.450305364E0,-1.338630678E1,1.212346491E0,1.351911162E1
1.491485737E1,6.185374167E0,-1.440871115E1,4.727148165E0,1.637729344E1
1.492490637E1,8.705900089E0,-1.157239758E1,3.700482931E0,1.494679417E1
1.493495438E1,9.094924117E0,-7.830619268E0,-7.664889881E-1,1.202596143E1
1.494500337E1,7.965896941E0,-4.790320314E0,-3.238110260E0,9.843172296E0
1.495505137E1,6.531273810E0,-3.105833963E0,-2.545134514E0,7.666906279E0
1.496510038E1,5.608340521E0,-2.616637775E0,-1.368138535E0,6.338144815E0
1.497514837E1,4.787285024E0,-2.527097608E0,-9.832540432E-1,5.501918641E0
1.498519738E1,3.922090358E0,-2.638670669E0,-1.343965561E0,4.914429682E0
1.499524537E1,3.657033441E0,-3.044952754E0,-1.852243552E0,5.106509281E0
1.500529437E1,3.694178171E0,-3.205924847E0,-1.514998080E0,5.120559116E0
1.501534238E1,3.557931907E0,-3.129862511E0,-1.373278238E0,4.933640837E0
1.502539037E1,2.852323251E0,-2.942677935E0,-1.319339135E0,4.305317307E0
1.503543937E1,1.747423733E0,-2.480115815E0,-1.106341733E0,3.229312030E0
1.504548737E1,6.198215237E-1,-2.000236580E0,-8.787302394E-1,2.270967180E0
1.505553637E1,-2.648208354E-1,-1.581689960E0,-6.499224052E-1,1.730396584E0
1.506558438E1,-8.192915381E-1,-1.082682145E0,-5.282456481E-1,1.456874296E0
1.507563337E1,-1.142468755E0,-3.953898919E-1,-4.953727479E-1,1.306507628E0
1.508568137E1,-1.200406184E0,2.616804421E-1,-5.486287495E-1,1.345527839E0
1.509573038E1,-1.159002342E0,8.923973751E-1,-5.505176926E-1,1.562923298E0
1.510577837E1,-1.066415483E0,1.491455728E0,-6.374634504E-1,1.941144462E0
1.511582737E1,-9.414575610E-1,2.003907462E0,-7.888928872E-1,2.350391339E0
1.512587538E1,-8.093359226E-1,2.545566038E0,-8.133887739E-1,2.792227138E0
1.513592437E1,-7.295924726E-1,3.071041861E0,-7.096770023E-1,3.235312154E0
1.514597238E1,-6.846127662E-1,3.644188278E0,-4.979205260E-1,3.741220081E0
1.515602137E1,-7.720061284E-1,4.168973544E0,-3.041661648E-1,4.250747102E0
1.516606937E1,-9.063225192E-1,4.632780536E0,-1.315974355E-1,4.722435166E0
1.517611838E1,-1.026872810E0,4.976898533E0,3.658259310E-2,5.081862362E0
1.518616637E1,-1.207170535E0,5.044996961E0,1.168765584E-1,5.188729629E0
1.519621437E1,-1.458143848E0,5.005738170E0,2.771200150E-1,5.221148687E0
1.520626338E1,-1.712500653E0,4.850852444E0,4.961151981E-1,5.168129082E0
1.521631137E1,-1.989619499E0,4.397976236E0,6.919782114E-1,4.876434617E0
1.522636038E1,-2.138903592E0,3.967584912E0,9.133327460E-1,4.599001556E0
1.523640837E1,-2.073991020E0,3.349406163E0,1.036997849E0,4.073735992E0
1.524645737E1,-1.838949030E0,2.614942083E0,1.100997963E0,3.381102209E0
1.525650538E1,-1.495649644E0,1.684810286E0,1.092425945E0,2.503786733E0
1.526655437E1,-1.104107512E0,5.965276784E-1,1.115835784E0,1.679282039E0
1.527660237E1,-7.412983060E-1,-6.666106510E-1,1.114991519E0,1.495693494E0
1.528665138E1,-4.947419795E-1,-1.820173329E0,1.186983608E0,2.228616310E0
1.529669937E1,-5.100982296E-1,-2.584392135E0,1.335062006E0,2.953247953E0
1.530674837E1,-4.947536740E-1,-2.992800268E0,1.407193258E0,3.343923968E0
1.531679637E1,-3.728933144E-1,-3.114254538E0,1.383435144E0,3.428049526E0
1.532684537E1,-2.994522858E-1,-2.684391802E0,1.386248531E0,3.036003295E0
1.533689338E1,-3.218433210E-1,-1.904781370E0,1.446943799E0,2.413591007E0
1.534694137E1,-4.505881923E-1,-1.100041358E0,1.443830742E0,1.870232050E0
1.535699037E1,-5.657733706E-1,-6.041214573E-1,1.284673040E0,1.528216955E0
1.536703837E1,-6.017281920E-1,-5.484723365E-1,1.114512048E0,1.380230352E0
1.537708737E1,-6.361168367E-1,-6.666393024E-1,1.016569870E0,1.372030207E0
1.538713538E1,-6.474177504E-1,-7.330449611E-1,1.003038244E0,1.400924829E0
1.539718437E1,-6.417263630E-1,-6.817028993E-1,1.014829958E0,1.380728580E0
1.540723237E1,-5.772613952E-1,-6.230348611E-1,1.021910936E0,1.328798374E0
1.541728138E1,-3.976539338E-1,-7.169838291E-1,9.361450732E-1,1.244412335E0
1.542732937E1,-2.093060544E-1,-7.854664189E-1,7.892291021E-1,1.132982390E0
1.543737837E1,-4.740922451E-3,-7.531734163E-1,6.250861374E-1,9.787876943E-1
1.544742638E1,2.214983761E-1,-6.502998430E-1,4.491503620E-1,8.207846636E-1
1.545747537E1,5.006523451E-1,-4.669580573E-1,2.896149302E-1,7.433568495E-1
1.546752338E1,8.543536359E-1,-2.782964748E-1,2.990570140E-1,9.469974449E-1
1.547757237E1,1.171176538E0,-9.188840926E-2,4.465482049E-1,1.256782901E0
1.548762017E1,1.360210295E0,1.203889078E-1,7.096354870E-1,1.538911323E0
1.549766917E1,1.393892304E0,3.487226790E-1,9.743203747E-1,1.736042469E0
1.550771717E1,1.303142640E0,5.703684050E-1,1.243815036E0,1.889596968E0
1.551776517E1,1.084450635E0,7.587925905E-1,1.493264565E0,1.995404329E0
1.552781417E1,8.397826669E-1,8.282510805E-1,1.593534519E0,1.982570817E0
1.553786217E1,5.820166433E-1,8.108474278E-1,1.424544286E0,1.739408907E0
1.554791117E1,3.639461973E-1,7.090649450E-1,1.106548213E0,1.363700436E0
1.555795917E1,1.713365749E-1,4.954176253E-1,7.234596205E-1,8.934140517E-1
1.556800817E1,2.276204109E-2,2.768387640E-1,3.534092955E-1,4.495063313E-1
1.557805617E1,-9.742133707E-2,8.695686758E-2,2.019979119E-2,1.321379783E-1
1.558810517E1,-2.642719281E-1,-1.594126403E-2,-2.401102828E-1,3.574167369E-1
1.559815317E1,-4.224388191E-1,-9.369227529E-2,-4.270174082E-1,6.079281744E-1
1.560820217E1,-5.353622943E-1,-1.479842573E-1,-5.811209229E-1,8.038741529E-1
1.561825017E1,-5.750520247E-1,-1.726308560E-1,-6.839278380E-1,9.100788599E-1
1.562829917E1,-5.814863008E-1,-1.924739671E-1,-7.129206721E-1,9.399087353E-1
1.563834717E1,-5.798271534E-1,-1.925406253E-1,-7.093491928E-1,9.361878537E-1
1.564839617E1,-5.226203343E-1,-2.053173763E-1,-7.288261950E-1,9.200406846E-1
1.565844417E1,-4.518880284E-1,-2.957305330E-1,-7.892326105E-1,9.563197435E-1
1.566849317E1,-4.375626424E-1,-3.139159584E-1,-8.380533528E-1,9.961614915E-1
1.567854117E1,-4.353819233E-1,-1.953589833E-1,-8.450233070E-1,9.704570783E-1
1.568859017E1,-3.479733583E-1,-5.199636519E-2,-8.180032504E-1,8.904596553E-1
1.569863817E1,-2.177792546E-1,3.319873631E-2,-7.169820019E-1,7.500620980E-1
1.570868717E1,-7.015518576E-2,4.912889063E-2,-5.570466570E-1,5.635923847E-1
1.571873517E1,7.983495891E-2,5.043866694E-2,-4.075779013E-1,4.183747428E-1
1.572878317E1,2.040505770E-1,6.493274510E-2,-2.592012227E-1,3.362115007E-1
1.573883217E1,2.997493243E-1,1.575924021E-1,-1.191873781E-1,3.590134450E-1
1.574888017E1,3.997948918E-1,2.637801772E-1,7.875030041E-3,4.790385720E-1
1.575892917E1,4.867847961E-1,3.380117494E-1,1.507061362E-1,6.114930253E-1
1.576897717E1,5.503042692E-1,3.199344975E-1,3.230925786E-1,7.138499042E-1
1.577902617E1,5.620539567E-1,2.343552339E-1,4.813006195E-1,7.761941202E-1
1.578907417E1,5.382262605E-1,1.366780812E-1,6.400303050E-1,8.473530532E-1
1.579912317E1,4.256328607E-1,7.825387180E-2,8.250537499E-1,9.316655466E-1
1.580917117E1,2.190749976E-1,1.251304150E-4,9.940010063E-1,1.017856508E0
1.581922017E1,-4.697623819E-2,-5.044977665E-2,1.100051883E0,1.102209641E0
1.582926817E1,-2.824412736E-1,-1.096727157E-1,1.065325270E0,1.107573523E0
1.583931717E1,-4.144977155E-1,-2.060471088E-1,9.066002619E-1,1.017933103E0
1.584936517E1,-4.971352449E-1,-2.525897759E-1,6.908590543E-1,8.878239012E-1
1.585941417E1,-5.762124047E-1,-2.852119768E-1,5.174762464E-1,8.253170739E-1
1.586946217E1,-6.328283626E-1,-2.755623168E-1,3.874434527E-1,7.915293778E-1
1.587951117E1,-5.803563264E-1,-2.404883784E-1,2.803576183E-1,6.879306069E-1
1.588955917E1,-4.932787138E-1,-1.877862543E-1,1.626859847E-1,5.523172064E-1
1.589960817E1,-3.899250841E-1,-9.301984549E-2,1.247795820E-2,4.010610456E-1
1.590965617E1,-2.196345761E-1,-6.877495050E-2,-1.148708904E-1,2.572249255E-1
1.591970417E1,-8.114327341E-2,-4.379915357E-2,-2.116259007E-1,2.308421940E-1
1.592975317E1,1.796089232E-2,-1.268378019E-2,-2.638321809E-1,2.647468444E-1
1.593980117E1,8.719689578E-2,1.069455743E-3,-2.901400101E-1,3.029614956E-1
1.594985017E1,1.437482420E-1,6.524907947E-3,-2.781017625E-1,3.131241316E-1
1.595989817E1,2.015906534E-1,3.091422915E-2,-2.407169314E-1,3.154982126E-1
1.596994717E1,1.910767749E-1,9.984530032E-2,-1.933287935E-1,2.895780383E-1
1.597999517E1,1.892056659E-1,1.858689523E-1,-1.249385532E-1,2.931820143E-1
1.599004417E1,9.331045210E-2,3.425918734E-1,-2.742574375E-2,3.561294759E-1
1.600009217E1,1.836201131E-2,3.826458853E-1,4.840317808E-2,3.861319783E-1
1.601014117E1,-1.669964790E-2,3.261226058E-1,1.235960325E-1,3.491572876E-1
1.602018917E1,-5.796315640E-2,2.222561753E-1,2.207943714E-1,3.186027140E-1
1.603023817E1,-1.043573043E-1,9.692403138E-2,3.148398185E-1,3.455558220E-1
1.604028617E1,-1.792703694E-1,-3.800865591E-2,4.101202341E-1,4.492005451E-1
1.605033517E1,-2.535455033E-1,-1.668877208E-1,5.300840127E-1,6.108403181E-1
1.606038317E1,-3.744401953E-1,-2.796851885E-1,6.749159630E-1,8.209389878E-1
1.607043217E1,-4.855255982E-1,-3.463954872E-1,8.669478806E-1,1.052294430E0
1.608048017E1,-6.215631169E-1,-4.176566738E-1,1.090463619E0,1.322833591E0
1.609052917E1,-7.780837244E-1,-4.565880203E-1,1.377733816E0,1.646826454E0
1.610057717E1,-8.177965513E-1,-3.294561034E-1,1.658576753E0,1.878352834E0
1.611062617E1,-9.338643667E-1,-3.593359601E-1,1.969736334E0,2.209318043E0
1.612067417E1,-9.827237007E-1,-2.035953712E-1,2.224707681E0,2.440598536E0
1.613072317E1,-9.485011169E-1,2.130783856E-2,2.324309152E0,2.510482310E0
1.614077117E1,-8.121279681E-1,2.305346632E-1,2.289397767E0,2.440090203E0
1.615082017E1,-6.298483291E-1,3.201818347E-1,2.147016896E0,2.260289114E0
1.616086817E1,-4.084575418E-1,3.183282673E-1,1.937935667E0,2.005932476E0
1.617091717E1,-2.366192758E-1,3.705509198E-1,1.731297405E0,1.786249526E0
1.618096517E1,-1.479278317E-1,5.020512915E-1,1.496201913E0,1.585105141E0
1.619101317E1,-1.016009268E-1,7.056004697E-1,1.205228090E0,1.400274802E0
1.620106217E1,4.774046928E-2,9.477944809E-1,8.052352703E-1,1.244587229E0
1.621111017E1,2.200362799E-1,1.164982290E0,3.090306097E-1,1.225193706E0
1.622115917E1,2.538548210E-1,1.273367448E0,-1.611311736E-1,1.308384570E0
1.623120717E1,2.190861073E-1,1.296480322E0,-3.695065340E-1,1.365794651E0
1.624125617E1,5.228053987E-2,1.305207292E0,-1.767491231E-1,1.318157647E0
1.625130417E1,-1.258072302E-1,1.284559019E0,1.098569030E-1,1.295371712E0
1.626135317E1,-2.317938611E-1,1.341695672E0,3.647200032E-1,1.409573109E0
1.627140117E1,-4.391992781E-1,1.447829652E0,5.602649280E-1,1.613382626E0
1.628145017E1,-7.125855535E-1,1.613166107E0,6.508621989E-1,1.879815060E0
1.629149817E1,-1.050756055E0,1.777177582E0,4.727946749E-1,2.118013987E0
1.630154717E1,-1.266075386E0,1.894555759E0,2.468827473E-1,2.291994655E0
1.631159517E1,-1.494341476E0,2.051689155E0,3.337824583E-2,2.538424499E0
1.632164417E1,-2.068955105E0,2.077985253E0,-1.753884029E-1,2.937577068E0
1.633169217E1,-2.968745407E0,1.932252758E0,2.591721328E-1,3.551650350E0
1.634174117E1,-3.783018719E0,1.701041572E0,1.574984373E0,4.436817422E0
1.635178917E1,-4.588084128E0,1.295978631E0,2.242866063E0,5.268825747E0
1.636183817E1,-3.435216684E0,9.818264455E-1,2.110277086E0,4.149453725E0
1.637188617E1,3.158408618E-1,1.449181529E0,2.844550547E-1,1.510230854E0
1.638193517E1,1.934017009E0,1.861079865E0,-9.689231023E-1,2.853568298E0
1.639198317E1,2.059262468E0,1.916020887E0,-9.487326667E-1,2.968466208E0
1.640203217E1,3.129062904E0,2.282742466E0,-2.094144033E0,4.403111066E0
1.641208017E1,4.595149611E0,2.888647909E0,-4.153390129E0,6.834496049E0
1.642212917E1,5.073191650E0,3.247099185E0,-5.893400470E0,8.426926826E0
1.643217717E1,5.157775717E0,2.808793654E0,-6.967602398E0,9.112598714E0
1.644222617E1,6.672428520E0,1.320117692E0,-4.708942859E0,8.272735698E0
