"Time (s)","Linear Acceleration x (m/s^2)","Linear Acceleration y (m/s^2)","Linear Acceleration z (m/s^2)","Absolute acceleration (m/s^2)"
1.006708335E-3,-8.915919212E-1,-2.443726838E-1,-9.972601712E-2,9.298383951E-1
1.104170833E-2,-7.489477797E-1,-1.539688826E-1,-8.487993658E-2,7.693073489E-1
2.107670833E-2,-7.415207925E-1,-2.288407248E-1,-1.265664911E-1,7.862825445E-1
3.111170833E-2,-9.536513445E-1,-2.351551330E-1,-1.403401923E-1,9.921916110E-1
4.114670833E-2,-1.023338022E0,-1.208256948E-1,-1.196539128E-1,1.037370047E0
5.118170833E-2,-1.012521404E0,-5.070120692E-3,-1.451565439E-1,1.022885977E0
6.121770834E-2,-9.811446601E-1,4.009552717E-2,-1.836364853E-1,9.989869139E-1
7.125270834E-2,-8.815151221E-1,1.434205055E-1,-2.232694978E-1,9.205909083E-1
8.128770834E-2,-7.627665044E-1,2.511326498E-1,-3.237217391E-1,8.658383870E-1
9.132270834E-2,-8.426333307E-1,4.000325811E-1,-5.756279755E-1,1.096086019E0
1.013577083E-1,-7.682729736E-1,4.983657914E-1,-9.330840558E-1,1.307385819E0
1.113927083E-1,-8.495434240E-1,5.422421283E-1,-1.170740628E0,1.544792598E0
1.214287083E-1,-9.905513683E-1,6.012820494E-1,-1.020881168E0,1.544322012E0
1.314637083E-1,-1.042799895E0,7.074569607E-1,-7.170580888E-1,1.449861812E0
1.414987083E-1,-1.027359152E0,7.666471553E-1,-4.819690293E-1,1.369492181E0
1.515337083E-1,-9.430263689E-1,7.573530060E-1,-3.573560929E-1,1.261184239E0
1.615687083E-1,-8.609826243E-1,7.810161030E-1,-3.049527615E-1,1.201779272E0
1.716037083E-1,-7.382516143E-1,7.976414913E-1,-2.682673305E-1,1.119470748E0
1.816387083E-1,-6.842905846E-1,7.836730778E-1,-2.027375847E-1,1.059952652E0
1.916747083E-1,-7.111331052E-1,8.242334586E-1,-5.884111583E-2,1.090198773E0
2.017097083E-1,-8.120620407E-1,8.666544235E-1,1.273435861E-1,1.194466842E0
2.117447083E-1,-1.008118158E0,8.714497250E-1,3.623788512E-1,1.380958101E0
2.217797083E-1,-1.136529300E0,8.899713653E-1,5.987145370E-1,1.562756212E0
2.318147083E-1,-1.188189158E0,8.233411735E-1,7.791800773E-1,1.642195407E0
2.418497083E-1,-1.146772306E0,7.067324907E-1,8.875517875E-1,1.613166362E0
2.518857083E-1,-1.009158232E0,5.669448602E-1,8.478948015E-1,1.434835324E0
2.619207083E-1,-7.938732532E-1,4.501993525E-1,6.855410117E-1,1.141437987E0
2.719557083E-1,-4.937564313E-1,4.081689817E-1,4.472798377E-1,7.813172111E-1
2.819907083E-1,-1.533173566E-1,4.133782661E-1,1.415037882E-1,4.630454889E-1
2.920257083E-1,1.571322262E-1,5.004316127E-1,-1.420586890E-1,5.434178932E-1
3.020607083E-1,3.506996226E-1,6.441099805E-1,-3.794609070E-1,8.257472205E-1
3.120957083E-1,4.218871343E-1,7.610338283E-1,-5.911108178E-1,1.051937850E0
3.221317083E-1,3.617070061E-1,8.001505315E-1,-7.407059830E-1,1.148789878E0
3.321667083E-1,2.260188586E-1,7.355721277E-1,-8.870875186E-1,1.174340302E0
3.422017083E-1,2.047380634E-1,6.552863485E-1,-9.322198373E-1,1.157735591E0
3.522367083E-1,2.806391618E-1,6.035753274E-1,-9.122568583E-1,1.129280342E0
3.622717083E-1,4.773485595E-1,5.782481128E-1,-8.762181294E-1,1.153252244E0
3.723067083E-1,6.395570460E-1,5.176925933E-1,-9.013360137E-1,1.220428386E0
3.823417083E-1,7.915146326E-1,4.781934822E-1,-9.360152650E-1,1.315784555E0
3.923777083E-1,9.775641176E-1,5.170581704E-1,-9.737999725E-1,1.473522020E0
4.024127083E-1,1.045415354E0,5.431923008E-1,-1.037871423E0,1.570072683E0
4.124477083E-1,1.014490746E0,4.947925580E-1,-1.067857114E0,1.553811432E0
4.224827083E-1,8.731647134E-1,3.875633937E-1,-1.029563699E0,1.404501125E0
4.325177083E-1,7.529151155E-1,3.384187156E-1,-9.027147871E-1,1.223234395E0
4.425527083E-1,8.469672869E-1,1.236633486E-1,-8.409225816E-1,1.199915412E0
4.525877083E-1,7.343763721E-1,-4.254492581E-2,-9.372770941E-1,1.191472651E0
4.626237083E-1,6.702343167E-1,5.032382762E-1,-3.256986827E-1,8.991898764E-1
4.726587083E-1,7.523056895E-1,2.526897633E-1,-1.032460409E-1,8.002972647E-1
4.826937083E-1,5.483764422E-1,-9.472138524E-2,-3.694592446E-1,6.679737993E-1
4.927287083E-1,7.647248831E-1,-5.840257466E-2,-5.400242794E-1,9.379985234E-1
5.027637083E-1,1.081077522E0,-2.969181025E-1,-9.976028180E-1,1.500699954E0
5.127987083E-1,9.608334795E-1,-4.957678735E-2,-1.306213598E0,1.622298615E0
5.228347083E-1,1.237432800E0,1.590296477E-1,-1.275522147E0,1.784232920E0
5.328697083E-1,1.065776236E0,-2.340277898E-1,-1.649534034E0,1.977779189E0
5.429047083E-1,1.010805100E0,-1.493747252E-1,-1.766805207E0,2.040990053E0
5.529397083E-1,1.125459497E0,3.300226986E-2,-1.714979580E0,2.051561159E0
5.629747083E-1,1.184802889E0,-7.806442201E-2,-1.771527418E0,2.132641867E0
5.730097083E-1,9.882785556E-1,7.988290608E-2,-1.866549935E0,2.113547833E0
5.830447083E-1,1.189305537E0,5.121412468E-1,-1.465249093E0,1.955426097E0
5.930807083E-1,1.252052886E0,2.663792646E-1,-1.610419670E0,2.057193684E0
6.031157083E-1,1.252030374E0,1.625911868E-1,-1.788429379E0,2.189176922E0
6.131507083E-1,1.412013995E0,2.938681948E-1,-1.693082342E0,2.224111026E0
6.231857083E-1,1.373560658E0,2.800418687E-1,-1.572757169E0,2.106812152E0
6.332207083E-1,1.274136796E0,2.530189615E-1,-1.380241687E0,1.895391855E0
6.432557083E-1,1.176924643E0,2.704290462E-1,-1.027456362E0,1.585544090E0
6.532907083E-1,9.923885635E-1,3.433297920E-1,-5.810653013E-1,1.200144696E0
6.633267083E-1,8.149301000E-1,4.208042300E-1,-1.433181792E-1,9.282927170E-1
6.733617083E-1,7.136838068E-1,4.507554227E-1,5.584090948E-2,8.459569932E-1
6.833967083E-1,7.622764347E-1,4.467132425E-1,1.048522711E-1,8.897258469E-1
6.934317083E-1,8.947543146E-1,4.769445169E-1,1.003744733E-1,1.018889783E0
7.034667083E-1,9.911452261E-1,5.188941962E-1,3.894245625E-2,1.119435823E0
7.135017083E-1,1.024145230E0,5.864681286E-1,-3.521134794E-2,1.180702400E0
7.235367083E-1,9.638815599E-1,6.601442152E-1,-7.894501269E-2,1.170935678E0
7.335727083E-1,8.637660451E-1,6.879658520E-1,-7.613484085E-2,1.106880892E0
7.436077083E-1,7.708563466E-1,6.948930484E-1,-7.533494174E-2,1.040562929E0
7.536427083E-1,7.611822744E-1,6.688460416E-1,-5.743953824E-2,1.014915160E0
7.636777083E-1,8.562384859E-1,6.390562320E-1,-1.378364146E-1,1.077281806E0
7.737127083E-1,9.681587251E-1,6.539964527E-1,-2.677638853E-1,1.198640970E0
7.837477083E-1,1.143443194E0,7.050788981E-1,-3.792071378E-1,1.395849792E0
7.937827083E-1,1.258870593E0,7.815318274E-1,-4.353257900E-1,1.544362558E0
8.038187083E-1,1.230729844E0,7.426256239E-1,-3.975755811E-1,1.491393680E0
8.138537083E-1,1.049662991E0,6.000032634E-1,-2.314912677E-1,1.231009552E0
8.238887083E-1,9.507756107E-1,4.980231446E-1,8.692236900E-2,1.076827197E0
8.339237083E-1,9.988289791E-1,4.692489964E-1,4.660388750E-1,1.197934131E0
8.439587083E-1,1.090442423E0,4.775368398E-1,7.305312431E-1,1.396703980E0
8.539937083E-1,1.195838193E0,3.984368759E-1,8.061193693E-1,1.496198304E0
8.640287083E-1,1.335798901E0,4.223695296E-1,7.310066217E-1,1.580229542E0
8.740647083E-1,1.440178571E0,5.535582447E-1,5.323427922E-1,1.632154985E0
8.841005417E-1,1.365265067E0,6.867794520E-1,2.453363049E-1,1.547838694E0
8.941355417E-1,1.075717892E0,7.474431449E-1,3.040552139E-5,1.309900850E0
9.041705417E-1,7.447361033E-1,7.949219513E-1,-6.643723369E-2,1.091305034E0
9.142055417E-1,4.195320220E-1,8.812730473E-1,1.069894284E-1,9.818839235E-1
9.242405417E-1,6.196923003E-2,8.535654312E-1,4.984915066E-1,9.904079528E-1
9.342755417E-1,-2.778003386E-1,7.372227967E-1,1.021191071E0,1.289768073E0
9.443115417E-1,-4.477236414E-1,6.067451030E-1,1.504538873E0,1.682924033E0
9.543465417E-1,-5.511291651E-1,4.320115882E-1,1.884320793E0,2.010234369E0
9.643815417E-1,-5.633222178E-1,3.074770045E-1,2.163807176E0,2.256974861E0
9.744165417E-1,-5.670986420E-1,1.854146236E-1,2.348380970E0,2.422988368E0
9.844515417E-1,-5.895652525E-1,6.726227582E-2,2.404693165E0,2.476824705E0
9.944865417E-1,-5.520021544E-1,-1.558575332E-2,2.278515514E0,2.344479098E0
1.004521542E0,-5.342785860E-1,-1.110725391E-1,2.007674823E0,2.080516501E0
1.014557542E0,-5.325913719E-1,-2.184116310E-1,1.690240011E0,1.785572318E0
1.024592542E0,-5.643041115E-1,-2.668172210E-1,1.337773944E0,1.476234970E0
1.034627542E0,-5.684371427E-1,-2.820743608E-1,9.379378295E-1,1.132437240E0
1.044662542E0,-5.976594801E-1,-3.131412023E-1,5.610473585E-1,8.775126239E-1
1.054697542E0,-6.009258809E-1,-3.232200480E-1,1.921406758E-1,7.088731572E-1
1.064732542E0,-5.930569173E-1,-2.699372953E-1,-1.577859449E-1,6.704319914E-1
1.074767542E0,-5.769746623E-1,-2.451924634E-1,-5.031856513E-1,8.038749310E-1
1.084803542E0,-6.471015622E-1,-2.985652632E-1,-8.187125176E-1,1.085436242E0
1.094838542E0,-7.711511193E-1,-3.723033303E-1,-1.030869967E0,1.340140555E0
1.104873542E0,-9.010044035E-1,-4.397848767E-1,-1.151226130E0,1.526611043E0
1.114908542E0,-1.007579410E0,-5.029084933E-1,-1.165353588E0,1.620549970E0
1.124943542E0,-1.056479748E0,-6.164345241E-1,-1.092261053E0,1.639870479E0
1.134978542E0,-9.871300162E-1,-7.227895296E-1,-9.440060699E-1,1.545314801E0
1.145013542E0,-8.331053659E-1,-7.605830079E-1,-7.727171499E-1,1.367348842E0
1.155048542E0,-6.761230476E-1,-7.830754924E-1,-6.489772028E-1,1.221278433E0
1.165084542E0,-5.721954406E-1,-7.967024285E-1,-5.538967985E-1,1.126474165E0
1.175119542E0,-5.014907628E-1,-7.893659270E-1,-5.261938602E-1,1.073066415E0
1.185154542E0,-4.974166422E-1,-7.542498887E-1,-5.343752843E-1,1.049701460E0
1.195189542E0,-4.819930029E-1,-7.015863562E-1,-6.246340746E-1,1.055797517E0
1.205224542E0,-4.522872470E-1,-6.423862213E-1,-7.498913741E-1,1.086075911E0
1.215259542E0,-4.185534905E-1,-5.728178036E-1,-8.373043245E-1,1.097445120E0
1.225294542E0,-3.331617033E-1,-5.597720808E-1,-1.008364034E0,1.200474709E0
1.235330542E0,-2.298905924E-1,-5.329514873E-1,-1.196785880E0,1.330106543E0
1.245365542E0,-1.220437429E-1,-4.852890784E-1,-1.418271393E0,1.503959410E0
1.255400542E0,2.812817708E-2,-3.920517164E-1,-1.652951732E0,1.699042427E0
1.265435542E0,1.727108167E-1,-3.064186585E-1,-1.879085780E0,1.911722990E0
1.275470542E0,2.117942639E-1,-2.207955408E-1,-1.962173545E0,1.985883306E0
1.285505542E0,1.426953046E-1,-1.117163175E-1,-1.879793878E0,1.888509335E0
1.295540542E0,2.020139918E-3,-7.725867569E-2,-1.651479403E0,1.653286788E0
1.305576542E0,-9.605776638E-2,-2.864200115E-2,-1.371804739E0,1.375461996E0
1.315611542E0,-8.080026112E-2,3.858869970E-2,-1.115671551E0,1.119259031E0
1.325646542E0,-8.701168522E-2,1.109690434E-1,-9.070352948E-1,9.179314723E-1
1.335681542E0,-3.718032472E-2,1.874938935E-1,-7.719593507E-1,7.952720137E-1
1.345716542E0,1.281300366E-1,3.176418042E-1,-6.654786301E-1,7.484486817E-1
1.355751542E0,3.377943061E-1,4.019779497E-1,-5.674284250E-1,7.730887936E-1
1.365786542E0,4.925823835E-1,4.718474990E-1,-3.730500197E-1,7.774598280E-1
1.375821542E0,6.130839233E-1,5.055759931E-1,-8.673935115E-2,7.993764425E-1
1.385857542E0,6.521909787E-1,5.282602662E-1,2.525868523E-1,8.764770958E-1
1.395892542E0,6.165065910E-1,4.830531031E-1,5.715197217E-1,9.695645773E-1
1.405927542E0,4.999488520E-1,3.997934300E-1,8.155895197E-1,1.036807555E0
1.415962542E0,2.661149704E-1,2.940746015E-1,1.095564145E0,1.165142843E0
1.425997542E0,-3.716592595E-2,2.266053343E-1,1.338342294E0,1.357899620E0
1.436032542E0,-2.827176277E-1,2.036152518E-1,1.530682359E0,1.569833403E0
1.446067542E0,-4.421201085E-1,3.053936416E-1,1.678958977E0,1.762849601E0
1.456103542E0,-1.902671913E-1,7.057899195E-1,1.689843569E0,1.841171449E0
1.466138542E0,3.123305955E-1,1.196518663E0,1.469058554E0,1.920244866E0
1.476173542E0,7.835352297E-1,1.463406635E0,9.634340286E-1,1.919294548E0
1.486208542E0,1.092881516E0,1.616190872E0,2.859469718E-1,1.971859177E0
1.496243542E0,1.140863110E0,1.727041801E0,-3.758870888E-1,2.103695111E0
1.506278542E0,9.231617694E-1,1.706644374E0,-8.693482357E-1,2.126177092E0
1.516313542E0,4.751693022E-1,1.625013151E0,-9.790683138E-1,1.955767974E0
1.526348542E0,9.874485433E-5,1.572345525E0,-7.354540139E-1,1.735846499E0
1.536384542E0,-3.954860055E-1,1.388477490E0,-2.466273701E-1,1.464617349E0
1.546419542E0,-7.006304826E-1,1.045763994E0,3.202730513E-1,1.298876527E0
1.556454542E0,-7.974290912E-1,6.266420084E-1,8.136640316E-1,1.300239408E0
1.566489542E0,-6.448759657E-1,2.156540841E-1,1.136696969E0,1.324557169E0
1.576524542E0,-3.478315634E-1,-1.779108918E-1,1.217709557E0,1.278849345E0
1.586559542E0,5.657242357E-2,-5.419006509E-1,1.092633521E0,1.220944211E0
1.596594542E0,4.947143514E-1,-7.500825781E-1,9.478090990E-1,1.306027661E0
1.606629542E0,8.620223323E-1,-7.937706345E-1,8.345263124E-1,1.438606439E0
1.616665542E0,1.087250209E0,-7.915662342E-1,6.685905182E-1,1.501899930E0
1.626700542E0,1.197861549E0,-7.504012513E-1,4.160796797E-1,1.473464159E0
1.636735542E0,1.175713904E0,-6.562452918E-1,1.645856720E-1,1.356484246E0
1.646770542E0,1.150203160E0,-5.030798167E-1,-1.202281094E-1,1.261154792E0
1.656805542E0,1.062207827E0,-4.653752160E-1,-4.965280116E-1,1.261506887E0
1.666840542E0,9.523253421E-1,-5.711969554E-1,-9.520003831E-1,1.462701011E0
1.676875542E0,8.673633253E-1,-6.880091214E-1,-1.332361761E0,1.732300076E0
1.686910542E0,8.284791219E-1,-7.213043368E-1,-1.615723094E0,1.953770386E0
1.696946542E0,7.474650720E-1,-7.953394425E-1,-1.725368328E0,2.041608368E0
1.706981542E0,6.996444958E-1,-8.004253507E-1,-1.666644157E0,1.976837350E0
1.717016542E0,6.313838810E-1,-7.435272646E-1,-1.560106133E0,1.839948245E0
1.727051542E0,5.881474489E-1,-7.020243126E-1,-1.462085749E0,1.725239199E0
1.737086542E0,4.896363005E-1,-7.069318807E-1,-1.419800439E0,1.659918576E0
1.747121542E0,3.472887956E-1,-8.202082354E-1,-1.417787243E0,1.674357108E0
1.757156542E0,2.705178325E-1,-9.406263793E-1,-1.391278306E0,1.701062376E0
1.767191542E0,2.849590664E-1,-9.897248644E-1,-1.305823004E0,1.663108744E0
1.777227542E0,2.493584401E-1,-1.092264562E0,-1.245932313E0,1.675580148E0
1.787262542E0,2.433837917E-1,-1.244082254E0,-1.329439323E0,1.836949982E0
1.797297542E0,2.467820655E-1,-1.338841061E0,-1.153593083E0,1.784425335E0
1.807332542E0,2.165398642E-1,-1.342999601E0,-1.111063945E0,1.756416958E0
1.817367542E0,1.222542792E-1,-1.489517961E0,-1.216883345E0,1.927281749E0
1.827402542E0,1.484447256E-2,-1.614716204E0,-1.250991324E0,2.042671797E0
1.837437542E0,1.799047558E-1,-1.491186756E0,-1.199447533E0,1.922154533E0
1.847472542E0,3.406738770E-1,-1.394282021E0,-1.069337044E0,1.789849926E0
1.857508542E0,5.652995268E-1,-1.286219044E0,-9.249342066E-1,1.682089852E0
1.867543542E0,8.407650722E-1,-1.190201916E0,-7.996137571E-1,1.662181899E0
1.877578292E0,1.031559500E0,-1.136258428E0,-7.885560876E-1,1.725403987E0
1.887613292E0,1.149966786E0,-1.098555581E0,-8.568550748E-1,1.806501756E0
1.897648292E0,1.145489573E0,-1.046121259E0,-8.999549013E-1,1.793442186E0
1.907683292E0,9.975472695E-1,-9.727012807E-1,-9.020727628E-1,1.659814329E0
1.917718292E0,8.619754084E-1,-7.302897531E-1,-8.171676832E-1,1.394305473E0
1.927753292E0,7.123272528E-1,-5.224586588E-1,-7.143256849E-1,1.136060892E0
1.937789292E0,5.422707796E-1,-3.517556298E-1,-5.943191850E-1,8.780688556E-1
1.947824292E0,4.355282133E-1,-1.710772508E-1,-4.280886912E-1,6.342020009E-1
1.957859292E0,3.396667307E-1,-2.252522886E-2,-1.838686198E-1,3.868960367E-1
1.967894292E0,2.159405428E-1,1.192393452E-1,1.605516779E-1,2.943215602E-1
1.977929292E0,1.021605967E-1,2.388301080E-1,5.069693846E-1,5.696442442E-1
1.987964292E0,-8.698825981E-2,2.366379869E-1,8.467481625E-1,8.834856789E-1
1.997999292E0,-3.459181351E-1,1.352344036E-1,1.203901942E0,1.259891894E0
2.008034292E0,-6.044089211E-1,7.611086726E-2,1.597441775E0,1.709655881E0
2.018069292E0,-7.091750188E-1,2.596549666E-1,2.015283805E0,2.152142822E0
2.028105292E0,-6.628997887E-1,5.563935596E-1,2.227846466E0,2.390043891E0
2.038140292E0,-4.904746085E-1,6.283616745E-1,2.011794187E0,2.163959238E0
2.048175292E0,-7.025647963E-2,6.929237062E-1,1.432502346E0,1.592840923E0
2.058210292E0,4.949646123E-1,8.552693099E-1,7.514145738E-1,1.241410255E0
2.068245292E0,1.063826921E0,9.992412078E-1,2.136508280E-1,1.475078772E0
2.078280292E0,1.396971009E0,1.150055518E0,-6.773940861E-2,1.810730328E0
2.088315292E0,1.219382153E0,1.167624646E0,-1.588378590E-1,1.695720972E0
2.098350292E0,6.370544377E-1,1.077892690E0,-1.028572011E-1,1.256292407E0
2.108386292E0,-3.035474929E-1,8.797954559E-1,1.218314159E-1,9.386287970E-1
2.118421292E0,-1.362091637E0,6.133852011E-1,4.051582503E-1,1.547801098E0
2.128456292E0,-2.256556441E0,3.931463152E-1,8.369096375E-1,2.438653058E0
2.138491292E0,-2.863434715E0,2.167212009E-1,1.355464110E0,3.175454204E0
2.148526292E0,-3.331664541E0,1.590968907E-2,1.839526443E0,3.805798112E0
2.158561292E0,-3.407930360E0,-1.081477618E-1,2.176859915E0,4.045294101E0
2.168596292E0,-3.052718733E0,-1.998057908E-1,2.200935826E0,3.768704357E0
2.178631292E0,-2.295854262E0,-2.370934850E-1,1.884151808E0,2.979461050E0
2.188666292E0,-1.540562107E0,-3.503774410E-1,1.314682120E0,2.055355209E0
2.198702292E0,-9.398000946E-1,-4.191892290E-1,9.359848595E-1,1.391046902E0
2.208737292E0,-6.628340806E-1,-3.956009763E-1,8.232540500E-1,1.128537275E0
2.218772292E0,-7.086573941E-1,-4.280308038E-1,6.669082743E-1,1.063095630E0
2.228807292E0,-8.386001406E-1,-5.937327093E-1,6.625099987E-1,1.222574425E0
2.238842292E0,-9.598743168E-1,-6.507155800E-1,6.356858969E-1,1.322454547E0
2.248877292E0,-1.419101697E0,-4.469395298E-1,7.218791181E-1,1.653697080E0
2.258912292E0,-1.350091981E0,-3.521970946E-1,7.310247481E-1,1.575178826E0
2.268947292E0,-1.476464637E0,-5.770248753E-1,3.966908973E-1,1.634095835E0
2.278982292E0,-1.423555375E0,-5.737059957E-1,-5.979362726E-3,1.534823843E0
2.289018292E0,-1.294176227E0,-5.323907393E-1,-3.508826405E-1,1.442723339E0
2.299053292E0,-1.246954698E0,-5.489354360E-1,-5.506147563E-1,1.469490640E0
2.309088292E0,-1.237598276E0,-5.567274356E-1,-6.875939691E-1,1.521308778E0
2.319123292E0,-1.184359451E0,-5.388846570E-1,-7.346266329E-1,1.494249066E0
2.329158292E0,-1.138026699E0,-4.614950037E-1,-7.986863887E-1,1.464917183E0
2.339193292E0,-9.482971953E-1,-5.442179024E-1,-6.302368766E-1,1.261998105E0
2.349228292E0,-8.081259875E-1,-4.608272517E-1,-4.440667927E-1,1.030836885E0
2.359263292E0,-6.159991989E-1,-3.771892637E-1,-3.278077734E-1,7.932116300E-1
2.369298292E0,-4.469259350E-1,-3.865629351E-1,-3.122202659E-1,6.683226680E-1
2.379334292E0,-2.248680900E-1,-2.525751579E-1,-2.033357549E-1,3.945951057E-1
2.389369292E0,-1.311166482E-1,-1.053463608E-1,-3.773085469E-1,4.130994683E-1
2.399404292E0,-6.665164378E-2,-1.991485637E-1,-4.277203166E-1,4.764947653E-1
2.409439292E0,-5.599165801E-2,-2.966818750E-2,-3.564556217E-1,3.620440268E-1
2.419474292E0,-1.610820204E-1,5.309447229E-2,-4.267830080E-1,4.592495794E-1
2.429509292E0,-3.396614316E-1,-5.398558795E-2,-5.618092507E-1,6.587214632E-1
2.439544292E0,-4.158608111E-1,2.771112442E-2,-5.981555432E-1,7.290392133E-1
2.449579292E0,-4.833594972E-1,9.673399687E-2,-7.231795388E-1,8.752042705E-1
2.459614292E0,-5.073006293E-1,6.412290573E-2,-8.676238918E-1,1.007093289E0
2.469650292E0,-4.973875523E-1,8.106287420E-2,-9.384547234E-1,1.065205536E0
2.479685292E0,-4.571753000E-1,8.422563314E-2,-1.023086738E0,1.123748053E0
2.489720292E0,-3.642166676E-1,1.365441799E-1,-1.016691054E0,1.088558125E0
2.499755292E0,-3.184912585E-1,1.811233521E-1,-1.000263886E0,1.065255928E0
2.509790292E0,-2.978199990E-1,2.092303330E-1,-1.005099533E0,1.068971073E0
2.519825292E0,-2.880205772E-1,2.788157076E-1,-9.845775604E-1,1.063055513E0
2.529860292E0,-2.809983635E-1,3.363885623E-1,-9.169281989E-1,1.016304417E0
2.539895292E0,-3.083454622E-1,3.595739418E-1,-8.700645196E-1,9.906475721E-1
2.549930292E0,-3.429590420E-1,3.976451629E-1,-7.669389313E-1,9.294826004E-1
2.559966292E0,-3.909213400E-1,4.186033380E-1,-6.707744533E-1,8.820354958E-1
2.570001292E0,-3.955150223E-1,4.510179627E-1,-6.249960172E-1,8.662963448E-1
2.580036292E0,-3.222330745E-1,4.995393276E-1,-6.143190014E-1,8.548459099E-1
2.590071292E0,-2.524916341E-1,5.811904317E-1,-7.081831849E-1,9.502935160E-1
2.600106292E0,-1.814765604E-1,6.094324833E-1,-8.023368055E-1,1.023760735E0
2.610141292E0,-1.472282306E-1,6.703633940E-1,-7.107594681E-1,9.880497221E-1
2.620176292E0,-3.031275714E-1,6.863719010E-1,-5.892245060E-1,9.540326145E-1
2.630211292E0,-5.611855721E-1,6.510091102E-1,-3.533378863E-1,9.292953082E-1
2.640246292E0,-8.495416698E-1,6.814035219E-1,-5.030944347E-2,1.090212295E0
2.650281292E0,-9.998529728E-1,6.284429508E-1,3.107912064E-1,1.221162431E0
2.660317292E0,-9.092711239E-1,8.041938812E-1,6.017568433E-1,1.354847989E0
2.670352292E0,-5.856878907E-1,1.122433856E0,6.195119137E-1,1.409497455E0
2.680387292E0,-1.347632459E-1,1.324258690E0,3.543015075E-1,1.377443926E0
2.690422292E0,2.804348016E-1,1.455586569E0,-4.911310315E-2,1.483168242E0
2.700457292E0,6.959206235E-1,1.614968219E0,-3.781680876E-1,1.798732599E0
2.710492292E0,9.185231732E-1,1.771974145E0,-5.284567326E-1,2.064665520E0
2.720527292E0,7.729801284E-1,1.692082468E0,-4.627778828E-1,1.916978019E0
2.730562292E0,3.959022541E-1,1.385664979E0,-2.159739268E-1,1.457206494E0
2.740597292E0,-7.358002787E-2,1.017031946E0,3.463446164E-1,1.076904171E0
2.750632292E0,-3.406026506E-1,7.553094041E-1,9.282513320E-1,1.244247964E0
2.760668292E0,-4.993321169E-1,4.084174883E-1,1.365920101E0,1.510587677E0
2.770703292E0,-5.692574340E-1,7.728147984E-2,1.662610162E0,1.759061968E0
2.780738292E0,-4.397151121E-1,-1.054978037E-1,1.848773814E0,1.903271863E0
2.790773292E0,-2.570673544E-1,-3.413376456E-1,1.818239070E0,1.867776305E0
2.800808292E0,-1.265033321E-1,-6.634174865E-1,1.701357906E0,1.830503914E0
2.810843292E0,3.533342684E-2,-8.307782471E-1,1.686776705E0,1.880600063E0
2.820878292E0,1.123320202E-1,-9.876929569E-1,1.656181734E0,1.931603944E0
2.830913292E0,1.718126478E-1,-1.181125867E0,1.452987481E0,1.880359147E0
2.840948292E0,1.671304351E-1,-1.159852527E0,1.401736051E0,1.827034325E0
2.850983292E0,4.025406346E-1,-1.076931993E0,9.969356507E-1,1.521743136E0
2.861019292E0,6.786655632E-1,-1.108549057E0,2.039602375E-1,1.315700474E0
2.871054292E0,6.992727591E-1,-1.096555248E0,-3.003205973E-1,1.334768993E0
2.881089208E0,8.537357314E-1,-7.656285703E-1,-7.084696984E-1,1.347954421E0
2.891124208E0,8.247686251E-1,-6.132665026E-1,-1.109134948E0,1.512124142E0
2.901159208E0,6.353042199E-1,-5.530659091E-1,-1.313977531E0,1.560778749E0
2.911194208E0,4.416333278E-1,-4.603840327E-1,-1.323997319E0,1.469681039E0
2.921229208E0,3.023254796E-1,-4.518482673E-1,-1.232751519E0,1.347309860E0
2.931264208E0,4.432060095E-1,-6.003809935E-1,-1.107783657E0,1.335692156E0
2.941299208E0,6.291903712E-1,-8.448571730E-1,-9.522342718E-1,1.420005026E0
2.951334208E0,6.047941430E-1,-8.175880980E-1,-5.869271350E-1,1.174184702E0
2.961370208E0,5.482174710E-1,-6.141359836E-1,-2.812680298E-1,8.699523587E-1
2.971405208E0,4.632289590E-1,-6.457887161E-1,-1.912618393E-1,8.174382089E-1
2.981440208E0,4.526410401E-1,-7.501977682E-1,-1.774214798E-1,8.939569252E-1
2.991475208E0,4.623086803E-1,-7.517420179E-1,-1.049844182E-1,8.887446795E-1
3.001510208E0,4.933340066E-1,-6.636747640E-1,-2.659956872E-2,8.273754719E-1
3.011545208E0,4.503524399E-1,-5.542119634E-1,-2.350171387E-2,7.145072086E-1
3.021580208E0,4.926290516E-1,-5.649041820E-1,-5.103449821E-2,7.512686852E-1
3.031615208E0,6.047511659E-1,-5.465579581E-1,1.159970641E-2,8.152202938E-1
3.041650208E0,6.241237588E-1,-5.091071266E-1,-5.406335592E-3,8.054500364E-1
3.051685208E0,7.428329077E-1,-4.783636361E-1,-8.164876521E-2,8.872987197E-1
3.061720208E0,7.542903806E-1,-4.100067616E-1,-1.845568371E-1,8.781348125E-1
3.071756208E0,7.582550121E-1,-3.838995284E-1,-3.061175269E-1,9.033479128E-1
3.081791208E0,9.352182164E-1,-5.092024362E-1,-6.396257508E-1,1.242192149E0
3.091826208E0,7.924382734E-1,-3.842901224E-1,-5.222925979E-1,1.023927182E0
3.101861208E0,4.545585980E-1,-1.038564903E-1,-4.336727822E-1,6.367745060E-1
3.111896208E0,5.266946742E-1,-8.248023927E-2,-5.995173597E-1,8.022663737E-1
3.121931208E0,3.180216174E-1,-2.330746937E-1,-7.440617001E-1,8.420744477E-1
3.131966208E0,3.540945891E-1,-7.885087252E-2,-5.584517795E-1,6.659345525E-1
3.142001208E0,5.643730355E-1,8.373446703E-2,-4.894634056E-1,7.517332037E-1
3.152036208E0,5.909728600E-1,-3.705263615E-2,-8.064158231E-1,1.000464042E0
3.162071208E0,4.877357361E-1,-4.689525425E-2,-1.238149669E0,1.331577979E0
3.172107208E0,4.491853357E-1,6.827033579E-2,-1.063055381E0,1.156077440E0
3.182142208E0,2.750317916E-1,9.585749924E-2,-9.823684824E-1,1.024636024E0
3.192177208E0,1.620242627E-1,6.965788007E-2,-7.741526413E-1,7.939876535E-1
3.202212208E0,8.209976826E-2,7.454673707E-2,-5.776405871E-1,5.881889457E-1
3.212247208E0,-4.683912098E-3,-7.563958168E-3,-4.448140669E-1,4.449030306E-1
3.222282208E0,-2.342350736E-2,-3.932135582E-2,-3.673255956E-1,3.701660748E-1
3.232317208E0,-4.113114215E-3,-5.545908630E-2,-3.031921649E-1,3.082500881E-1
3.242352208E0,9.753009528E-3,-7.006893933E-2,-2.346306378E-1,2.450638970E-1
3.252387208E0,-3.101772487E-2,-1.489636660E-2,-2.198763585E-1,2.225524972E-1
3.262422208E0,-3.835901376E-2,2.075352252E-2,-2.840378559E-1,2.873667103E-1
3.272457208E0,-3.268871292E-2,6.167701542E-2,-3.784785748E-1,3.848618424E-1
3.282492208E0,7.369472466E-2,1.187376541E-1,-4.836688149E-1,5.034531413E-1
3.292528208E0,5.743581795E-1,-7.456954122E-3,-5.990063131E-1,8.299105299E-1
3.302563208E0,1.069262054E-1,-6.313414156E-2,-8.293322307E-1,8.385768194E-1
3.312598208E0,8.658710428E-2,3.585033166E-1,-3.787294203E-1,5.286378046E-1
3.322633208E0,1.943437239E-1,2.120194548E-1,1.594401222E-1,3.288508550E-1
3.332668208E0,-1.875655584E-1,2.616629004E-2,3.993022639E-1,4.419364336E-1
3.342703208E0,-7.628686845E-2,2.091426247E-1,7.937963623E-1,8.244228215E-1
3.352738208E0,5.012368474E-2,3.811998689E-1,1.078839939E0,1.145304038E0
3.362773208E0,3.907350331E-1,6.444152051E-1,1.049250104E0,1.291847748E0
3.372808208E0,6.739326075E-1,8.778582734E-1,8.146937263E-1,1.374243856E0
3.382843208E0,7.745943984E-1,9.609758592E-1,5.146649051E-1,1.337292432E0
3.392878208E0,8.496739630E-1,1.119931832E0,2.665628672E-1,1.430821063E0
3.402914208E0,8.215691017E-1,1.316991770E0,2.600724578E-2,1.552455954E0
3.412949208E0,6.271504969E-1,1.366537567E0,-1.805397999E-1,1.514376865E0
3.422984208E0,3.059175521E-1,1.269325853E0,-2.418630588E-1,1.327882302E0
3.433019208E0,-1.365103392E-1,1.125971421E0,-1.717151821E-2,1.134346320E0
3.443054208E0,-6.849097317E-1,9.191092104E-1,5.205343401E-1,1.258895977E0
3.453089208E0,-1.242041575E0,6.363478017E-1,1.220460087E0,1.853949466E0
3.463124208E0,-1.784454150E0,2.691461670E-1,2.049019316E0,2.730420559E0
3.473159208E0,-2.182282331E0,-8.320120096E-2,2.809948479E0,3.558804443E0
3.483194208E0,-2.271170387E0,-4.414729679E-1,3.250510451E0,3.989853569E0
3.493229208E0,-1.841483506E0,-6.911508304E-1,3.190680571E0,3.748225377E0
3.503264208E0,-9.914651419E-1,-7.434120744E-1,2.663144774E0,2.937346546E0
3.513299208E0,-2.380000958E-1,-7.814558136E-1,1.949003862E0,2.113275488E0
3.523335208E0,2.657313200E-1,-7.605403233E-1,1.293807560E0,1.524130152E0
3.533370208E0,4.577599485E-1,-6.639408123E-1,8.112608260E-1,1.143899340E0
3.543405208E0,2.598347685E-1,-5.929059130E-1,4.954474461E-1,8.151807778E-1
3.553440208E0,-1.265198596E-1,-5.322544992E-1,2.950154185E-1,6.215595096E-1
3.563475208E0,-5.053730216E-1,-4.980529654E-1,-1.778430641E-2,7.097710397E-1
3.573510208E0,-7.702293789E-1,-4.685835832E-1,-3.887112021E-1,9.817944129E-1
3.583545208E0,-9.153676502E-1,-4.437884653E-1,-7.453533500E-1,1.261109731E0
3.593580208E0,-9.319880683E-1,-4.165076959E-1,-1.028856186E0,1.449353467E0
3.603615208E0,-1.029553539E0,-4.491065079E-1,-1.151319101E0,1.608481525E0
3.613650208E0,-1.106638845E0,-5.154764986E-1,-1.218331116E0,1.724730779E0
3.623685208E0,-1.028390382E0,-5.826153982E-1,-1.168690009E0,1.662186457E0
3.633720208E0,-9.126369274E-1,-6.560663670E-1,-9.990231067E-1,1.503787354E0
3.643756208E0,-7.470576672E-1,-7.279210460E-1,-8.106380975E-1,1.321021700E0
3.653791208E0,-5.811676641E-1,-7.929613799E-1,-6.458185369E-1,1.176275982E0
3.663826208E0,-3.972847552E-1,-7.767733634E-1,-5.287952864E-1,1.020213943E0
3.673861208E0,-1.623270022E-1,-7.223422176E-1,-4.946469623E-1,8.903953910E-1
3.683896208E0,5.484249741E-3,-7.039357674E-1,-5.169868344E-1,8.734019857E-1
3.693931208E0,1.724654529E-1,-6.902450967E-1,-5.880714351E-1,9.230442236E-1
3.703966208E0,3.096837072E-1,-5.854834574E-1,-6.940428632E-1,9.593697793E-1
3.714001208E0,3.642185314E-1,-4.960397691E-1,-8.653072250E-1,1.061822577E0
3.724036208E0,3.542266997E-1,-3.834978247E-1,-1.051354517E0,1.173837066E0
3.734071208E0,2.844190943E-1,-2.250178152E-1,-1.206901563E0,1.260213721E0
3.744106208E0,2.695785321E-1,-9.846945047E-2,-1.387412127E0,1.416785527E0
3.754141208E0,2.553620140E-1,8.915834427E-3,-1.542301362E0,1.563324259E0
3.764176208E0,2.283502165E-1,6.409542382E-2,-1.696872507E0,1.713367547E0
3.774212208E0,1.265408730E-1,4.334774852E-2,-1.788093749E0,1.793089757E0
3.784247208E0,-1.166497596E-2,3.203630984E-2,-1.755700175E0,1.756031178E0
3.794282208E0,-7.206455749E-2,4.083052218E-2,-1.639947524E0,1.642037854E0
3.804317208E0,-1.195518606E-1,7.851173401E-2,-1.469447393E0,1.476391676E0
3.814352208E0,-1.136823890E-1,1.096961045E-1,-1.246593633E0,1.256563809E0
3.824387208E0,-1.270023645E-1,1.626332867E-1,-1.020799892E0,1.041446881E0
3.834422208E0,-1.725199599E-1,2.360684681E-1,-7.567671150E-1,8.112878186E-1
3.844457208E0,-2.516396399E-1,3.220506048E-1,-5.300308031E-1,6.693069196E-1
3.854492208E0,-3.682521966E-1,3.669800252E-1,-3.643762600E-1,6.348654015E-1
3.864527208E0,-4.817670080E-1,4.020223886E-1,-2.746735400E-1,6.849576662E-1
3.874562208E0,-5.074219590E-1,4.458542866E-1,-2.871567607E-1,7.339769033E-1
3.884597333E0,-3.860504998E-1,5.265253973E-1,-4.471851128E-1,7.913523283E-1
3.894632333E0,-1.929424387E-1,6.405156970E-1,-6.637700737E-1,9.423788269E-1
3.904668333E0,-7.668513693E-3,7.533003008E-1,-8.592261207E-1,1.142711545E0
3.914703333E0,7.480445310E-2,8.455617625E-1,-9.239138675E-1,1.254666185E0
3.924738333E0,2.959414713E-2,9.220597154E-1,-7.684960449E-1,1.200689845E0
3.934773333E0,-9.354174603E-2,9.439686477E-1,-4.656944740E-1,1.056739424E0
3.944808333E0,-1.830466292E-1,8.859654379E-1,-1.371213001E-1,9.150098778E-1
3.954843333E0,-2.183181852E-1,8.486397368E-1,2.568062031E-1,9.131274056E-1
3.964878333E0,-2.408768163E-1,8.015983021E-1,7.076312077E-1,1.096048997E0
3.974913333E0,-1.132536236E-1,8.330978376E-1,1.036891429E0,1.334924053E0
3.984948333E0,3.255929212E-1,1.128260606E0,1.199742233E0,1.678798430E0
3.994983333E0,8.456059089E-1,1.392852377E0,1.043847277E0,1.935123829E0
4.005018333E0,1.114770641E0,1.381961938E0,7.452305585E-1,1.925591069E0
4.015053333E0,1.281384858E0,1.473317081E0,5.497043449E-1,2.028493343E0
4.025088333E0,1.347168958E0,1.684124408E0,4.333698964E-1,2.199761053E0
4.035123333E0,1.047991930E0,1.670907946E0,5.792906713E-1,2.055674617E0
4.045159333E0,4.964373066E-1,1.552121760E0,1.238032724E0,2.046523145E0
4.055194333E0,-1.482357972E-1,1.310518903E0,2.208161815E0,2.572044371E0
4.065229333E0,-7.886775635E-1,9.780415428E-1,3.260422651E0,3.494128421E0
4.075264333E0,-1.080228141E0,7.137842327E-1,4.076553622E0,4.277226929E0
4.085299333E0,-1.151059777E0,2.248564321E-1,4.279698173E0,4.437489772E0
4.095334333E0,-8.019761784E-1,-1.594301820E-1,3.888555699E0,3.973593990E0
4.105369333E0,-6.541320350E-2,-2.649823648E-1,2.996005127E0,3.008411751E0
4.115404333E0,4.858915608E-1,-4.505145174E-1,1.922407216E0,2.033397021E0
4.125439333E0,8.249681613E-1,-5.994699973E-1,1.002233228E0,1.429828028E0
4.135474333E0,9.921424688E-1,-6.284020203E-1,4.009716439E-1,1.240973020E0
4.145509333E0,8.447655910E-1,-7.209757233E-1,2.363982511E-1,1.135481849E0
4.155544333E0,5.841500730E-1,-8.758298743E-1,3.759631026E-1,1.117880821E0
4.165579333E0,4.192847214E-1,-1.026602669E0,5.055982125E-1,1.218746187E0
4.175614333E0,4.758903005E-1,-1.127633200E0,5.009262872E-1,1.322480758E0
4.185650333E0,6.187226857E-1,-1.225109793E0,3.410230654E-1,1.414216567E0
4.195685333E0,8.476375971E-1,-1.221091002E0,5.538950443E-2,1.487488060E0
4.205720333E0,1.070980624E0,-1.157056974E0,-3.313266277E-1,1.611073453E0
4.215755333E0,1.293417112E0,-1.074704788E0,-7.437488741E-1,1.838771491E0
4.225790333E0,1.521168355E0,-9.391803628E-1,-1.104519156E0,2.101422253E0
4.235825333E0,1.628302063E0,-8.576812863E-1,-1.338334107E0,2.275548941E0
4.245860333E0,1.565437771E0,-8.390543962E-1,-1.425152396E0,2.277205973E0
4.255895333E0,1.392900032E0,-8.583870453E-1,-1.405915056E0,2.157219498E0
4.265930333E0,1.278191401E0,-8.971996933E-1,-1.298607540E0,2.031039657E0
4.275965333E0,1.258008275E0,-9.431593931E-1,-1.171577364E0,1.960797792E0
4.286000333E0,1.299002811E0,-9.706746358E-1,-9.599946964E-1,1.884464743E0
4.296035333E0,1.300902572E0,-1.019866676E0,-7.699350446E-1,1.823533798E0
4.306070333E0,1.188906173E0,-1.087705488E0,-5.738311261E-1,1.710521346E0
4.316105333E0,1.057445416E0,-1.110149440E0,-3.804058170E-1,1.579661727E0
4.326140333E0,1.020984883E0,-1.103382457E0,-2.570424306E-1,1.525101239E0
4.336176333E0,1.024901129E0,-1.096908420E0,-2.199664056E-1,1.517239476E0
4.346211333E0,1.074198419E0,-1.104528512E0,-2.276198262E-1,1.557464691E0
4.356246333E0,1.118315515E0,-1.050758686E0,-2.727691019E-1,1.558565491E0
4.366281333E0,1.182116824E0,-9.739923459E-1,-3.990303683E-1,1.582809689E0
4.376316333E0,1.244228873E0,-8.932586700E-1,-5.568736160E-1,1.629762180E0
4.386351333E0,1.300860764E0,-7.825083125E-1,-6.658926129E-1,1.657700503E0
4.396386333E0,1.243554104E0,-6.973044401E-1,-7.009700596E-1,1.588716248E0
4.406421333E0,1.117382884E0,-6.170590067E-1,-6.734524781E-1,1.443206350E0
4.416456333E0,1.051728447E0,-4.850189370E-1,-6.435235047E-1,1.324952300E0
4.426491333E0,9.000833939E-1,-4.300264585E-1,-5.798157513E-1,1.153802053E0
4.436526333E0,7.211854921E-1,-4.066674167E-1,-4.976284575E-1,9.659818754E-1
4.446561333E0,6.018430898E-1,-3.601083773E-1,-4.243441343E-1,8.197323298E-1
4.456596333E0,5.348961250E-1,-2.769533694E-1,-3.104216623E-1,6.776272145E-1
4.466631333E0,5.306221028E-1,-1.994608051E-1,-2.394715476E-1,6.153787864E-1
4.476666333E0,5.695044423E-1,-1.747838008E-1,-1.883639592E-1,6.247924999E-1
4.486701333E0,6.265961809E-1,-1.390690076E-1,-1.402489758E-1,6.569876239E-1
4.496736333E0,7.101314771E-1,-1.061462599E-1,-7.850822568E-2,7.222999964E-1
4.506772333E0,8.490771085E-1,-4.699874997E-2,-2.251879692E-2,8.506749761E-1
4.516807333E0,9.204422294E-1,-5.842654824E-2,1.423621595E-2,9.224045907E-1
4.526842333E0,8.832877055E-1,-3.601709425E-2,5.118184805E-2,8.855021080E-1
4.536877333E0,8.546090861E-1,3.435063779E-2,1.070502394E-1,8.619723953E-1
4.546912333E0,8.279262677E-1,1.155170077E-1,1.582543069E-1,8.507940464E-1
4.556947333E0,8.166081047E-1,1.817022264E-1,1.688974088E-1,8.534581598E-1
4.566982333E0,8.548851478E-1,2.251406068E-1,1.577257186E-1,8.979946053E-1
4.577017333E0,9.096535318E-1,2.584872776E-1,1.086962306E-1,9.518928990E-1
4.587052333E0,9.650192819E-1,2.723019093E-1,3.813612521E-2,1.003426583E0
4.597087333E0,8.996546468E-1,2.318806922E-1,9.139022648E-2,9.335412752E-1
4.607122333E0,7.277296959E-1,1.160841876E-1,2.225198847E-1,7.697929254E-1
4.617157333E0,5.301437640E-1,-2.542427838E-2,4.322326130E-1,6.844880102E-1
4.627192333E0,2.639615140E-1,-1.991386235E-1,7.950172609E-1,8.610367689E-1
4.637227333E0,7.660177756E-2,-3.165571457E-1,1.169424419E0,1.213931518E0
4.647262333E0,9.070950095E-2,-3.077658570E-1,1.539457276E0,1.572538311E0
4.657297333E0,4.206870664E-1,-2.601309299E-2,1.707592208E0,1.758842073E0
4.667333333E0,8.766198331E-1,1.983007175E-1,1.432809910E0,1.691369192E0
4.677368333E0,1.467002088E0,4.001354921E-1,9.116937715E-1,1.772960538E0
4.687403333E0,1.945160341E0,6.697441739E-1,4.911988592E-1,2.115060833E0
4.697438333E0,2.119027590E0,8.946345198E-1,1.216057134E-1,2.303353382E0
4.707473333E0,1.992763400E0,9.609185565E-1,-1.576976520E-1,2.217958293E0
4.717508333E0,1.407711029E0,8.241498435E-1,-1.005867273E-1,1.634316675E0
4.727543333E0,5.087215027E-1,5.679195911E-1,1.760807133E-1,7.825181447E-1
4.737578333E0,-2.308584528E-1,4.405362439E-1,6.485345685E-1,8.172911929E-1
4.747613333E0,-7.186771828E-1,3.552908564E-1,1.204376736E0,1.446807453E0
4.757648333E0,-9.372113129E-1,1.604388267E-1,1.722128971E0,1.967189328E0
4.767683333E0,-1.023821733E0,-8.570556343E-2,2.215664962E0,2.442279183E0
4.777718333E0,-9.763078433E-1,-2.695133722E-1,2.653666438E0,2.840380261E0
4.787753333E0,-8.589451620E-1,-4.032105428E-1,2.974011995E0,3.121716335E0
4.797788333E0,-5.862959281E-1,-4.681982517E-1,2.938525243E0,3.032801200E0
4.807823333E0,-1.734179644E-1,-4.390270776E-1,2.557351102E0,2.600550561E0
4.817858333E0,2.229250968E-4,-4.471430129E-1,2.111007403E0,2.157843641E0
4.827893333E0,-2.531343710E-2,-5.087428451E-1,1.665816776E0,1.741954529E0
4.837928333E0,-5.779241771E-4,-4.549361819E-1,1.260004807E0,1.339619116E0
4.847963333E0,-2.837546314E-1,-5.189093989E-1,7.039620799E-1,9.194271396E-1
4.857999333E0,-1.977716906E-1,-5.210389549E-1,1.500021315E-1,5.771445863E-1
4.868034333E0,-1.885841069E-1,-4.817427421E-1,-2.669815278E-1,5.821676486E-1
4.878069333E0,-2.525916032E-1,-5.481799757E-1,-7.055683100E-1,9.285097974E-1
4.888104458E0,-2.860611387E-2,-5.757449198E-1,-1.013624189E0,1.166076549E0
4.898139458E0,5.944213651E-2,-5.813944995E-1,-1.157667423E0,1.296821805E0
4.908174458E0,1.212914255E-1,-6.674701917E-1,-1.237939754E0,1.411638374E0
4.918209458E0,1.991913946E-1,-7.417678374E-1,-1.242792943E0,1.460969211E0
4.928244458E0,3.151922594E-1,-7.705858397E-1,-1.191325750E0,1.453411759E0
4.938279458E0,4.254369058E-1,-7.866703606E-1,-1.098352098E0,1.416412422E0
4.948314458E0,5.384742556E-1,-8.008732474E-1,-9.342032129E-1,1.343163477E0
4.958349458E0,6.619275429E-1,-7.690000749E-1,-6.579848385E-1,1.209319327E0
4.968384458E0,7.679659217E-1,-7.325982338E-1,-3.364435261E-1,1.113402926E0
4.978419458E0,9.232866074E-1,-6.553986150E-1,-1.471638930E-1,1.141780502E0
4.988454458E0,1.142231578E0,-5.773751235E-1,-1.038529819E-1,1.284071825E0
4.998489458E0,1.357263006E0,-5.267095846E-1,-1.511961329E-1,1.463709713E0
5.008524458E0,1.459375272E0,-4.345937186E-1,-1.758134955E-1,1.532826889E0
5.018559458E0,1.448294506E0,-3.728991616E-1,-1.264027691E-1,1.500862559E0
5.028594458E0,1.366257632E0,-3.300390708E-1,-5.938666105E-2,1.406809326E0
5.038629458E0,1.238667147E0,-3.007509524E-1,-1.109567642E-2,1.274704103E0
5.048664458E0,1.124349257E0,-2.894506234E-1,1.545185208E-2,1.161112258E0
5.058699458E0,9.945741065E-1,-3.019022691E-1,4.033058524E-2,1.040167866E0
5.068735458E0,8.368341353E-1,-3.165407735E-1,8.433789968E-2,8.986669642E-1
5.078770458E0,6.816861617E-1,-3.501143163E-1,1.470393473E-1,7.803182858E-1
5.088805458E0,5.479700607E-1,-3.939403671E-1,1.861665756E-1,7.000844193E-1
5.098840458E0,4.801578543E-1,-4.486024779E-1,2.619938529E-1,7.074153851E-1
5.108875458E0,4.620749013E-1,-4.891324532E-1,3.091937470E-1,7.405164039E-1
5.118910458E0,5.481367064E-1,-5.276609266E-1,3.019256580E-1,8.185591031E-1
5.128945458E0,5.979218008E-1,-5.659373850E-1,2.874906367E-1,8.720358191E-1
5.138980458E0,6.547183646E-1,-6.058645123E-1,2.600958467E-1,9.291812491E-1
5.149015458E0,7.094336850E-1,-6.355221748E-1,2.840051115E-1,9.939031600E-1
5.159050458E0,7.511312031E-1,-6.181430805E-1,3.140247166E-1,1.022208626E0
5.169085458E0,8.142446601E-1,-5.912160677E-1,3.617952991E-1,1.069311294E0
5.179120458E0,9.053594097E-1,-5.708268267E-1,3.838147438E-1,1.137028005E0
5.189155458E0,9.785248151E-1,-5.565134275E-1,2.252458566E-1,1.148021648E0
5.199190458E0,9.815637593E-1,-6.848054320E-1,4.738992870E-2,1.197777817E0
5.209225458E0,8.030191755E-1,-6.331435275E-1,6.709972322E-1,1.223089452E0
5.219260458E0,4.227496717E-1,-5.497347504E-1,1.262750074E0,1.440646845E0
5.229295458E0,3.071020518E-1,-6.061369926E-1,1.632023377E0,1.767827488E0
5.239330458E0,2.398346597E-1,-7.197934163E-1,1.981027308E0,2.121342127E0
5.249365458E0,3.775508409E-1,-7.006823766E-1,2.138554806E0,2.281867018E0
5.259400458E0,5.965992337E-1,-6.835114431E-1,2.254853586E0,2.430531471E0
5.269435458E0,7.916976504E-1,-6.221998787E-1,2.238523482E0,2.454568239E0
5.279470458E0,1.153953564E0,-4.930524266E-1,2.011296004E0,2.370658377E0
5.289506458E0,1.833148300E0,-1.873898131E-1,1.660391144E0,2.480412543E0
5.299541458E0,2.599447546E0,2.328244328E-1,1.214384245E0,2.878552389E0
5.309576458E0,3.214868748E0,5.668337631E-1,8.454588515E-1,3.372162844E0
5.319611458E0,3.173245635E0,4.533089018E-1,6.422850645E-1,3.269175267E0
5.329646458E0,2.702857309E0,2.838700408E-1,9.748273283E-1,2.887266554E0
5.339681458E0,1.879654276E0,1.527573395E-1,1.929639637E0,2.698137160E0
5.349716458E0,9.613598751E-1,-1.775852019E-1,3.049486685E0,3.202361372E0
5.359751458E0,1.352294335E-1,-6.812409693E-1,4.221884413E0,4.278631120E0
5.369786458E0,-2.806305371E-1,-1.141263644E0,5.304914467E0,5.433539703E0
5.379821458E0,-9.355881259E-2,-1.497536833E0,5.827631573E0,6.017695536E0
5.389856458E0,5.141158515E-1,-1.868068457E0,5.698159600E0,6.018556114E0
5.399891458E0,1.233103814E0,-2.116116700E0,5.266881838E0,5.808488547E0
5.409926458E0,1.679005609E0,-2.246321914E0,4.870242396E0,5.619989588E0
5.419961458E0,1.785796671E0,-2.393929026E0,4.443210881E0,5.353698615E0
5.429996458E0,1.721955454E0,-2.499021032E0,4.061519846E0,5.070126248E0
5.440031458E0,1.730432748E0,-2.439306343E0,4.133000304E0,5.101598224E0
5.450066458E0,1.628735488E0,-2.453985777E0,3.901476876E0,4.888389029E0
5.460101458E0,1.577361998E0,-2.640623054E0,3.414656997E0,4.595741876E0
5.470136458E0,1.638859211E0,-2.628233389E0,3.071654649E0,4.362170623E0
5.480171458E0,1.640621269E0,-2.579154784E0,2.703772398E0,4.080938952E0
5.490206458E0,1.627590603E0,-2.581560329E0,2.210480236E0,3.768252616E0
5.500241458E0,1.668891388E0,-2.483652211E0,1.683892858E0,3.433543640E0
5.510276458E0,1.768102850E0,-2.300201082E0,1.270747896E0,3.167319517E0
5.520311458E0,1.848902015E0,-2.103924671E0,9.311901426E-1,2.951618668E0
5.530346458E0,1.903850054E0,-1.921464645E0,7.877205205E-1,2.817299244E0
5.540381458E0,1.926185249E0,-1.773128386E0,8.688921529E-1,2.758468317E0
5.550417458E0,1.974808501E0,-1.681103736E0,1.167736913E0,2.844220084E0
5.560452458E0,2.042507856E0,-1.631494204E0,1.559524920E0,3.043966107E0
5.570487458E0,2.104083715E0,-1.588535296E0,1.961153206E0,3.285838487E0
5.580522458E0,2.184331634E0,-1.501139302E0,2.278093929E0,3.494915713E0
5.590557458E0,2.272619181E0,-1.405871787E0,2.477650044E0,3.644176610E0
5.600592458E0,2.322748238E0,-1.331600454E0,2.574109222E0,3.714075582E0
5.610627458E0,2.328237897E0,-1.254672146E0,2.538691467E0,3.666039861E0
5.620662458E0,2.315470501E0,-1.192156640E0,2.385858698E0,3.531991340E0
5.630697458E0,2.262711659E0,-1.145916858E0,2.236114429E0,3.381301116E0
5.640732458E0,2.192237800E0,-1.151316762E0,2.254997427E0,3.349096931E0
5.650767458E0,2.038825426E0,-1.177633325E0,2.320144181E0,3.305555685E0
5.660802458E0,1.868926243E0,-1.242263770E0,2.344990754E0,3.245779754E0
5.670837458E0,1.647184623E0,-1.286112624E0,2.432506031E0,3.206928196E0
5.680872458E0,1.405422721E0,-1.249597932E0,2.638394680E0,3.240036189E0
5.690907458E0,1.145760518E0,-1.233631525E0,2.910801255E0,3.362644472E0
5.700942458E0,9.160226114E-1,-1.206919690E0,3.072749832E0,3.426009938E0
5.710977458E0,8.559972882E-1,-1.178026258E0,3.002832921E0,3.337286738E0
5.721012458E0,8.797928978E-1,-1.147187458E0,2.717272450E0,3.077928552E0
5.731047458E0,9.793994124E-1,-1.046337606E0,2.639700948E0,3.003675530E0
5.741082458E0,1.030754411E0,-8.329341155E-1,2.447046302E0,2.782852763E0
5.751117458E0,9.942580645E-1,-7.617729163E-1,2.165487666E0,2.501636245E0
5.761152458E0,9.335002314E-1,-6.603266484E-1,1.928891779E0,2.242337499E0
5.771187458E0,7.970991620E-1,-5.899928302E-1,1.647867578E0,1.923259256E0
5.781222458E0,6.680695313E-1,-6.451057613E-1,1.364561793E0,1.650608139E0
5.791257458E0,6.211216521E-1,-6.849995595E-1,1.101230682E0,1.437958803E0
5.801292458E0,6.056644645E-1,-7.109933567E-1,8.583595634E-1,1.268511780E0
5.811327458E0,5.787465879E-1,-8.115075785E-1,6.343071234E-1,1.181455750E0
5.821362458E0,5.744114622E-1,-8.987240624E-1,5.137036228E-1,1.183868608E0
5.831397458E0,6.355279490E-1,-9.059184766E-1,4.309900796E-1,1.187575896E0
5.841432458E0,7.118127709E-1,-9.724913657E-1,3.552341384E-1,1.256426747E0
5.851467458E0,7.968238313E-1,-9.657653135E-1,3.488074636E-1,1.299729782E0
5.861503458E0,7.022586398E-1,-1.016154864E0,4.853686005E-1,1.327147536E0
5.871538458E0,6.339312205E-1,-1.029075456E0,6.275956893E-1,1.361888922E0
5.881572917E0,5.714878544E-1,-1.096220788E0,7.589457875E-1,1.450619554E0
5.891607917E0,5.096845391E-1,-1.196716883E0,9.474951035E-1,1.609241001E0
5.901642917E0,4.700058454E-1,-1.278260399E0,1.132738988E0,1.771426757E0
5.911677917E0,3.789106840E-1,-1.409759601E0,1.271116270E0,1.935647698E0
5.921712917E0,3.103358544E-1,-1.559679286E0,1.284752562E0,2.044381805E0
5.931747917E0,3.100546765E-1,-1.678200594E0,1.263345028E0,2.123330355E0
5.941782917E0,3.111018397E-1,-1.752397082E0,1.183324713E0,2.137273325E0
5.951817917E0,2.721166988E-1,-1.812658487E0,9.588375324E-1,2.068610089E0
5.961852917E0,2.301901160E-1,-1.818596919E0,6.993883878E-1,1.961995505E0
5.971887917E0,2.280187525E-1,-1.738944393E0,5.161553603E-1,1.828205817E0
5.981922917E0,2.429214779E-1,-1.490157062E0,3.102664188E-1,1.541377359E0
5.991957917E0,3.452460708E-1,-1.129415431E0,-3.382438838E-2,1.181489803E0
6.001992917E0,5.751330817E-1,-7.416871458E-1,-6.283271760E-1,1.129456916E0
6.012027917E0,8.753069139E-1,-4.346159381E-1,-1.315062189E0,1.638426614E0
6.022062917E0,9.848585191E-1,-4.127339029E-1,-1.775722503E0,2.072072871E0
6.032097917E0,8.156552278E-1,-4.661219054E-1,-1.677859116E0,1.922959775E0
6.042132917E0,4.031268545E-1,-4.774321747E-1,-1.034311930E0,1.208409662E0
6.052167917E0,-2.138360386E-1,-7.360492605E-1,-3.335433072E-1,8.359099850E-1
6.062202917E0,-7.342793083E-1,-9.708535606E-1,2.164165610E-1,1.236349007E0
6.072237917E0,-1.058612958E0,-1.032893688E0,8.145934466E-1,1.688518063E0
6.082272917E0,-1.194270481E0,-9.705249470E-1,1.352483492E0,2.048758710E0
6.092307917E0,-1.079204732E0,-8.316237545E-1,1.669668337E0,2.155011201E0
6.102342917E0,-8.833220579E-1,-6.354531777E-1,1.725168353E0,2.039672632E0
6.112377917E0,-6.758062747E-1,-4.409244990E-1,1.516279498E0,1.717623955E0
6.122412917E0,-4.779938728E-1,-2.353761578E-1,1.174683990E0,1.289869200E0
6.132447917E0,-2.655879536E-1,-2.932846427E-2,7.348909271E-1,7.819602257E-1
6.142482917E0,-1.607019514E-1,1.033577228E-1,2.647256720E-1,3.264775910E-1
6.152517917E0,-7.613611992E-2,2.451164496E-1,-1.257513893E-1,2.858184643E-1
6.162552917E0,1.809490319E-2,3.934433538E-1,-5.171330148E-1,6.500397320E-1
6.172587917E0,5.303271107E-2,4.737998843E-1,-8.783137715E-1,9.993667395E-1
6.182622917E0,6.771908954E-2,5.852636021E-1,-1.100426105E0,1.248221524E0
6.192657917E0,7.027841583E-3,6.832260990E-1,-1.206245798E0,1.386317503E0
6.202692917E0,-2.351704089E-1,7.275655353E-1,-1.217766860E0,1.437919627E0
6.212727917E0,-5.626042893E-1,7.330677652E-1,-1.175930616E0,1.495568370E0
6.222762917E0,-8.225630553E-1,6.494069731E-1,-1.020729141E0,1.462951597E0
6.232797917E0,-9.715727681E-1,5.043843305E-1,-7.817037356E-1,1.345146062E0
6.242832917E0,-8.925589044E-1,2.806575805E-1,-4.884945220E-1,1.055488974E0
6.252867917E0,-8.204827622E-1,-1.532613695E-2,-2.009775728E-1,8.448780020E-1
6.262902917E0,-6.806516431E-1,-2.152769387E-1,1.986076963E-1,7.409965159E-1
6.272937917E0,-5.522800799E-1,-3.852344477E-1,5.602188081E-1,8.759360589E-1
6.282972917E0,-4.801689274E-1,-4.859527373E-1,8.217074615E-1,1.068604424E0
6.293007917E0,-3.604605259E-1,-4.499672180E-1,9.704021555E-1,1.128752688E0
6.303042917E0,-3.638019904E-1,-3.889468449E-1,9.314328021E-1,1.072939235E0
6.313078917E0,-4.697551460E-1,-3.321692115E-1,7.671207798E-1,9.588954964E-1
6.323113917E0,-5.221478793E-1,-3.152233958E-1,4.500063944E-1,7.579643475E-1
6.333148917E0,-5.048023333E-1,-3.216132331E-1,1.454904199E-1,6.159772153E-1
6.343183917E0,-4.685810982E-1,-2.920941496E-1,-1.492513490E-1,5.719818205E-1
6.353218917E0,-4.674165521E-1,-2.979524750E-1,-4.841202199E-1,7.359526465E-1
6.363253917E0,-3.628306948E-1,-2.613313633E-1,-8.345713359E-1,9.468101759E-1
6.373288917E0,-2.785725365E-1,-2.328770578E-1,-1.227891898E0,1.280450271E0
6.383323917E0,-3.558894651E-1,-2.598888552E-1,-1.474964241E0,1.539389178E0
6.393358917E0,-4.997649571E-1,-2.611676413E-1,-1.470264249E0,1.574690608E0
6.403393917E0,-6.707754035E-1,-2.207575339E-1,-1.397825434E0,1.566074543E0
6.413428917E0,-8.458187476E-1,-2.065990859E-1,-1.378902090E0,1.630786163E0
6.423463917E0,-9.383026227E-1,-2.065365207E-1,-1.375054622E0,1.677451746E0
6.433498917E0,-9.191978688E-1,-6.360893548E-2,-1.108364285E0,1.441333482E0
6.443533917E0,-8.921243832E-1,2.768715084E-2,-9.536797035E-1,1.306199629E0
6.453568917E0,-8.242355052E-1,-6.384223938E-2,-9.659723049E-1,1.271433244E0
6.463603917E0,-6.632068406E-1,-1.041003191E-1,-9.611471826E-1,1.172383937E0
6.473638917E0,-5.788852400E-1,7.805097342E-2,-6.384574771E-1,8.653484995E-1
6.483673917E0,-7.040818747E-1,7.340828419E-2,-2.724539369E-1,7.585190902E-1
6.493708917E0,-7.755073681E-1,5.152391016E-2,1.138511360E-2,7.773004645E-1
6.503743917E0,-7.943453427E-1,1.541349435E-1,2.290728593E-1,8.409616396E-1
6.513778917E0,-8.429210137E-1,1.573380482E-1,2.655589002E-1,8.976595269E-1
6.523813917E0,-8.118972223E-1,1.699984396E-1,7.756974757E-2,8.331228210E-1
6.533848917E0,-7.808844676E-1,2.510162902E-1,-1.584975511E-1,8.354107992E-1
6.543883917E0,-7.900189148E-1,3.626612717E-1,-3.571964639E-1,9.398097667E-1
6.553918917E0,-8.656473868E-1,4.619458240E-1,-5.601813859E-1,1.129841815E0
6.563953917E0,-8.876503131E-1,6.077174950E-1,-7.421578467E-1,1.306920771E0
6.573988917E0,-8.748821137E-1,7.740052915E-1,-8.227728242E-1,1.428796005E0
6.584023917E0,-9.147119580E-1,9.203558367E-1,-8.965424663E-1,1.577194099E0
6.594058917E0,-9.029438518E-1,9.950686347E-1,-9.830005664E-1,1.664860145E0
6.604093917E0,-8.420148414E-1,9.901218903E-1,-1.036975629E0,1.662723310E0
6.614128917E0,-7.326721280E-1,1.028475532E0,-9.085877305E-1,1.555667712E0
6.624163917E0,-6.866291785E-1,9.259568846E-1,-6.981177878E-1,1.347673635E0
6.634198917E0,-6.916427274E-1,8.523720145E-1,-4.099061894E-1,1.171721297E0
6.644233917E0,-7.576931678E-1,7.363153088E-1,-5.222733021E-3,1.056544579E0
6.654268917E0,-7.932412422E-1,6.561803877E-1,3.683523667E-1,1.093383664E0
6.664303917E0,-6.466840710E-1,6.485193658E-1,5.743263853E-1,1.081031199E0
6.674338917E0,-1.319550658E-1,9.047864556E-1,4.633462322E-1,1.025056291E0
6.684373917E0,5.302057079E-1,1.318008601E0,1.062269515E-1,1.424622382E0
6.694408917E0,9.462170483E-1,1.532585628E0,-3.823301357E-1,1.841282635E0
6.704443917E0,1.126106492E0,1.702483495E0,-7.674827224E-1,2.180732815E0
6.714478917E0,1.262281128E0,1.980906855E0,-9.966614163E-1,2.551603337E0
6.724513917E0,1.119317509E0,2.017436750E0,-1.111128849E0,2.560767472E0
6.734548917E0,6.869785497E-1,1.761110018E0,-9.546690524E-1,2.117744325E0
6.744583917E0,2.500965963E-1,1.424944235E0,-5.046983260E-1,1.532231961E0
6.754618917E0,-7.524781823E-3,1.109128516E0,4.621756196E-2,1.110116548E0
6.764653917E0,-1.067888324E-1,7.843788368E-1,5.721488822E-1,9.767335141E-1
6.774688917E0,-3.702862602E-2,4.883816707E-1,1.069516554E0,1.176330495E0
6.784723917E0,1.652237494E-1,3.050474864E-1,1.439622501E0,1.480832806E0
6.794758917E0,4.205298128E-1,1.626736325E-1,1.599063792E0,1.661418986E0
6.804793917E0,5.716917030E-1,-2.960796118E-2,1.561049289E0,1.662703497E0
6.814828917E0,6.800269412E-1,-2.181672174E-1,1.406376402E0,1.577316759E0
6.824863917E0,8.196336003E-1,-3.749152815E-1,1.290153635E0,1.573803390E0
6.834898917E0,9.372066352E-1,-5.679938507E-1,1.295959336E0,1.697198837E0
6.844933917E0,1.010327456E0,-7.846507323E-1,1.385217083E0,1.885540958E0
6.854968917E0,1.009701730E0,-9.994984853E-1,1.587979226E0,2.130768131E0
6.865003917E0,9.570525236E-1,-1.112741511E0,1.732377970E0,2.270523427E0
6.875038917E0,8.110150968E-1,-1.156364663E0,1.609576501E0,2.141415708E0
6.885074667E0,5.994645155E-1,-1.148635229E0,1.179852929E0,1.752362271E0
6.895109667E0,4.960982778E-1,-1.062978782E0,5.978128964E-1,1.316593199E0
6.905144667E0,4.614388704E-1,-9.089958662E-1,-3.381327868E-2,1.019971889E0
6.915179667E0,4.497582532E-1,-7.622360158E-1,-6.171303427E-1,1.078951384E0
6.925214667E0,5.191877995E-1,-6.033543026E-1,-1.095486377E0,1.354135440E0
6.935249667E0,6.231955133E-1,-4.499292111E-1,-1.368219811E0,1.569342026E0
6.945284667E0,7.095951413E-1,-3.547248459E-1,-1.478653834E0,1.678026264E0
6.955319667E0,7.030424590E-1,-3.178657526E-1,-1.421841702E0,1.617696252E0
6.965354667E0,6.275320277E-1,-2.804312932E-1,-1.234825526E0,1.413234672E0
6.975389667E0,5.102601975E-1,-2.731941944E-1,-1.002216271E0,1.157340914E0
6.985424667E0,3.486014955E-1,-3.044633496E-1,-7.430629957E-1,8.754219265E-1
6.995459667E0,2.487298827E-1,-3.383017713E-1,-5.054204571E-1,6.570878796E-1
7.005494667E0,1.497678043E-1,-4.247850144E-1,-2.726732075E-1,5.265200678E-1
7.015529667E0,9.013702199E-2,-5.023477453E-1,-5.822891235E-2,5.136813664E-1
7.025564667E0,9.042185448E-2,-5.991443074E-1,1.286048305E-1,6.194265213E-1
7.035599667E0,1.560102917E-1,-7.036059844E-1,2.306621325E-1,7.567070846E-1
7.045634667E0,2.390213851E-1,-7.439979655E-1,2.288272762E-1,8.142641571E-1
7.055669667E0,3.690989830E-1,-7.686854947E-1,1.295859933E-1,8.624986833E-1
7.065704667E0,5.964393854E-1,-7.323883188E-1,-7.932098866E-2,9.478525250E-1
7.075739667E0,8.025182884E-1,-6.678245330E-1,-3.387841666E-1,1.097633783E0
7.085774667E0,9.521067294E-1,-6.301094073E-1,-5.493891799E-1,1.267033370E0
7.095809667E0,1.070537697E0,-5.382478952E-1,-6.551641417E-1,1.365650691E0
7.105844667E0,1.039623395E0,-4.922414178E-1,-6.951573426E-1,1.344009727E0
7.115879667E0,1.010841645E0,-4.067130250E-1,-7.529652554E-1,1.324451959E0
7.125914667E0,9.167001575E-1,-3.897040594E-1,-7.347798300E-1,1.237784243E0
7.135949667E0,8.176426233E-1,-4.207404953E-1,-6.679590189E-1,1.136543565E0
7.145984667E0,8.047323366E-1,-3.770553625E-1,-6.298047674E-1,1.089228592E0
7.156019667E0,7.842475668E-1,-3.573701262E-1,-6.441438943E-1,1.075954929E0
7.166054667E0,7.555677049E-1,-3.486805791E-1,-6.788184679E-1,1.073897209E0
7.176089667E0,7.395319352E-1,-3.112402725E-1,-6.288171726E-1,1.019406213E0
7.186124667E0,6.425663155E-1,-2.624920356E-1,-5.083662844E-1,8.603660952E-1
7.196159667E0,5.363367328E-1,-1.769776762E-1,-3.838568437E-1,6.828793929E-1
7.206194667E0,4.290376212E-1,-1.178751898E-1,-2.909106731E-1,5.315984016E-1
7.216229667E0,2.791128192E-1,-1.289176565E-1,-1.355402130E-1,3.359983294E-1
7.226264667E0,2.071332291E-1,-1.177699399E-1,2.555817962E-3,2.382865198E-1
7.236299667E0,2.013754027E-1,-1.237457943E-1,1.096721309E-1,2.605629497E-1
7.246334667E0,2.232752719E-1,-1.178196412E-1,1.655954862E-1,3.019191613E-1
7.256369667E0,2.642617685E-1,-3.108789146E-2,9.852207541E-2,2.837381516E-1
7.266404667E0,2.780212902E-1,2.288015485E-2,-4.501186609E-2,2.825692966E-1
7.276439667E0,3.071183509E-1,8.314214408E-2,-2.467729658E-1,4.026551803E-1
7.286474667E0,3.580666027E-1,1.516972393E-1,-4.139141634E-1,5.679336925E-1
7.296509667E0,4.294056304E-1,2.289412969E-1,-5.517374218E-1,7.356748571E-1
7.306544667E0,4.439831045E-1,1.977288598E-1,-6.496624964E-1,8.113439827E-1
7.316579667E0,3.313853192E-1,1.579976141E-1,-5.470806992E-1,6.588450252E-1
7.326614667E0,1.203513394E-1,9.457052708E-2,-2.973642451E-1,3.344450982E-1
7.336649667E0,-1.048231812E-1,3.521544099E-2,7.593983620E-2,1.341450160E-1
7.346684667E0,-2.879810719E-1,-5.239923835E-2,4.642151284E-1,5.487936437E-1
7.356719667E0,-3.048288736E-1,-6.424394310E-2,7.602541021E-1,8.216046653E-1
7.366754667E0,-1.014403477E-1,7.448417187E-2,8.515183210E-1,8.607679635E-1
7.376789667E0,2.240792640E-1,2.362181568E-1,6.003596511E-1,6.829657714E-1
7.386824667E0,5.201297859E-1,3.047042549E-1,1.940103230E-1,6.332611488E-1
7.396859667E0,8.360940240E-1,5.064378726E-1,-1.791850001E-1,9.938006842E-1
7.406894667E0,1.028165776E0,6.901345843E-1,-4.465430886E-1,1.316362920E0
7.416929667E0,1.046781410E0,8.575777906E-1,-6.263204116E-1,1.491129855E0
7.426964667E0,8.380632200E-1,9.342154920E-1,-7.070631507E-1,1.440502289E0
7.436999667E0,4.694761607E-1,9.077486551E-1,-6.658858886E-1,1.219762068E0
7.447034667E0,4.533024698E-2,8.133687472E-1,-4.810442922E-1,9.460587515E-1
7.457069667E0,-3.547130784E-1,7.209038025E-1,-1.886197749E-1,8.252884828E-1
7.467104667E0,-7.431370360E-1,5.457756007E-1,1.610387510E-1,9.359792412E-1
7.477139667E0,-1.115547663E0,4.286318976E-1,6.708849657E-1,1.370495724E0
7.487174667E0,-1.525258921E0,2.844436526E-1,1.300145942E0,2.024278251E0
7.497209667E0,-1.897690159E0,1.089891762E-1,1.861413156E0,2.660444609E0
7.507244667E0,-2.086133055E0,-4.445404172E-2,2.256699552E0,3.073535449E0
7.517279667E0,-1.988174944E0,-1.393666309E-1,2.396484843E0,3.116954005E0
7.527314667E0,-1.600348279E0,-2.113394237E-1,2.220127557E0,2.744949059E0
7.537349667E0,-1.113227268E0,-2.646420568E-1,1.756225255E0,2.096100550E0
7.547384667E0,-7.279251391E-1,-3.069156718E-1,1.174023255E0,1.415062840E0
7.557419667E0,-4.672096337E-1,-3.215290332E-1,6.710896182E-1,8.786506909E-1
7.567454667E0,-2.864525367E-1,-2.649700856E-1,2.212820292E-1,4.485866008E-1
7.577489667E0,-2.561852288E-1,-2.398627263E-1,-2.010880852E-1,4.044767199E-1
7.587524667E0,-3.042284377E-1,-2.279823536E-1,-5.831393087E-1,6.961194935E-1
7.597559667E0,-4.145160612E-1,-2.403147161E-1,-8.763485223E-1,9.987799859E-1
7.607594667E0,-6.552617171E-1,-3.201385653E-1,-1.019241609E0,1.253279728E0
7.617629667E0,-8.226446240E-1,-3.698714733E-1,-1.074012478E0,1.402516270E0
7.627664667E0,-8.891116785E-1,-3.367896813E-1,-1.091359413E0,1.447415709E0
7.637699667E0,-8.664858775E-1,-3.910097426E-1,-1.085426828E0,1.442857510E0
7.647734667E0,-7.759854510E-1,-4.581129742E-1,-1.023801268E0,1.363887808E0
7.657769667E0,-6.415005143E-1,-4.845365417E-1,-8.416014433E-1,1.163869219E0
7.667804667E0,-5.189893596E-1,-5.690024954E-1,-6.114959657E-1,9.833824847E-1
7.677839667E0,-3.839241598E-1,-6.345819426E-1,-4.159305757E-1,8.503471327E-1
7.687874667E0,-2.291550127E-1,-6.380768234E-1,-2.411380041E-1,7.195843170E-1
7.697909667E0,-1.130075289E-1,-6.487772280E-1,-1.335895818E-1,6.719589047E-1
7.707944667E0,-7.764945243E-2,-6.625766569E-1,-1.189668649E-1,6.776358747E-1
7.717979667E0,-1.277784728E-2,-6.255070639E-1,-1.764350545E-1,6.500397594E-1
7.728014667E0,1.033933908E-2,-5.179393458E-1,-3.930141681E-1,6.502524158E-1
7.738049667E0,-3.589634925E-2,-4.396772879E-1,-6.482077092E-1,7.840777383E-1
7.748084667E0,-1.285857540E-1,-3.409271711E-1,-8.417324209E-1,9.172126801E-1
7.758119667E0,-2.223595614E-1,-1.936130047E-1,-9.772732186E-1,1.020780444E0
7.768154667E0,-3.107189202E-1,-8.301233590E-2,-1.132786936E0,1.177558294E0
7.778189667E0,-4.296583032E-1,-5.275007129E-2,-1.308213930E0,1.377974062E0
7.788224667E0,-5.179894857E-1,-1.112959027E-2,-1.448895600E0,1.538744759E0
7.798259667E0,-5.576537807E-1,1.203181565E-2,-1.563356016E0,1.659880880E0
7.808294667E0,-4.629119302E-1,6.537654877E-2,-1.659881267E0,1.724461472E0
7.818329667E0,-3.608066080E-1,1.185780251E-1,-1.613837367E0,1.657924366E0
7.828364667E0,-2.914500057E-1,1.478895324E-1,-1.598307163E0,1.631379847E0
7.838399667E0,-2.369689393E-1,1.476059425E-1,-1.531630193E0,1.556866353E0
7.848434667E0,-1.939117243E-1,2.256487298E-1,-1.325876614E0,1.358848006E0
7.858469667E0,-3.070943774E-1,2.581563252E-1,-1.078086233E0,1.150313684E0
7.868504667E0,-4.381524803E-1,2.714160562E-1,-8.602891445E-1,1.002866733E0
7.878539667E0,-5.010099024E-1,2.488691926E-1,-6.756960547E-1,8.772183056E-1
7.888574292E0,-4.867427693E-1,2.329138952E-1,-5.228972000E-1,7.513913014E-1
7.898609292E0,-4.095720942E-1,2.983916008E-1,-4.399076682E-1,6.710481386E-1
7.908644292E0,-3.376615012E-1,3.557843614E-1,-3.996454954E-1,6.327039775E-1
7.918678292E0,-2.914438661E-1,4.570680767E-1,-4.174058282E-1,6.841625387E-1
7.928713292E0,-2.952481377E-1,5.670939642E-1,-4.451923817E-1,7.790784837E-1
7.938748292E0,-3.567621620E-1,6.654300982E-1,-3.923715591E-1,8.509006383E-1
7.948783292E0,-4.782102929E-1,6.912122262E-1,-2.335377932E-1,8.723527536E-1
7.958818292E0,-5.858235827E-1,6.911981928E-1,4.983114123E-2,9.074289804E-1
7.968853292E0,-6.947396321E-1,6.322132355E-1,3.973896396E-1,1.019938850E0
7.978888292E0,-7.413521004E-1,6.293375748E-1,6.752119052E-1,1.183883371E0
7.988923292E0,-4.988824660E-1,8.142189324E-1,7.883075809E-1,1.238250793E0
7.998958292E0,1.107523675E-1,1.277830628E0,5.705005521E-1,1.403776364E0
8.008993292E0,8.019867034E-1,1.764044151E0,7.196109831E-2,1.939126824E0
8.019028292E0,1.092490849E0,1.890341671E0,-4.294458300E-1,2.225163277E0
8.029063292E0,1.267130808E0,2.138794541E0,-7.651543611E-1,2.601062047E0
8.039098292E0,1.094629029E0,2.292365229E0,-9.048753333E-1,2.696655414E0
8.049133292E0,3.885832578E-1,2.011831609E0,-6.753013676E-1,2.157427938E0
8.059168292E0,-1.824505969E-1,1.696937996E0,-7.477536321E-2,1.708355390E0
8.069203292E0,-8.203675720E-1,1.177832716E0,8.693026274E-1,1.678088173E0
8.079238292E0,-1.348707068E0,7.376414573E-1,1.975765398E0,2.503352669E0
8.089273292E0,-1.491827758E0,3.925259256E-1,2.852735479E0,3.243104435E0
8.099308292E0,-1.328249122E0,7.366673112E-2,3.331725352E0,3.587487469E0
8.109343292E0,-7.827673441E-1,-1.862677324E-1,3.305290675E0,3.401818165E0
8.119378292E0,-7.480741326E-2,-4.569049394E-1,2.936612034E0,2.972885553E0
8.129413292E0,5.767761128E-1,-6.982943738E-1,2.436508450E0,2.599395919E0
8.139448292E0,1.099244602E0,-8.489513934E-1,1.991094459E0,2.427656134E0
8.149483292E0,1.447635086E0,-8.870389867E-1,1.740238967E0,2.431237785E0
8.159518292E0,1.627288010E0,-7.715149623E-1,1.525512836E0,2.360188767E0
8.169553292E0,1.642801404E0,-5.688487136E-1,1.298604616E0,2.169967571E0
8.179588292E0,1.492729544E0,-3.577542883E-1,9.984383851E-1,1.831149593E0
8.189623292E0,1.245983914E0,-2.056506675E-1,5.677365732E-1,1.384591250E0
8.199658292E0,9.756119516E-1,-7.639036417E-2,1.411985636E-2,9.786999224E-1
8.209693292E0,7.266348778E-1,3.177610874E-2,-4.922648066E-1,8.782554336E-1
8.219728292E0,5.578955996E-1,1.743236250E-1,-8.388509130E-1,1.022402602E0
8.229763292E0,4.062833643E-1,2.414736342E-1,-9.907118744E-1,1.097672859E0
8.239798292E0,2.664810061E-1,2.572084916E-1,-9.577236378E-1,1.026841225E0
8.249833292E0,1.523308947E-1,2.721873039E-1,-8.460324633E-1,9.016992619E-1
8.259868292E0,4.117791988E-3,1.637998062E-1,-6.937773997E-1,7.128635304E-1
8.269903292E0,-1.732735564E-1,-2.994183719E-2,-4.874420232E-1,5.181891208E-1
8.279938292E0,-3.110626268E-1,-2.480499977E-1,-2.577727479E-1,4.740628109E-1
8.289973292E0,-3.612949601E-1,-4.296867353E-1,-5.908552945E-2,5.644960925E-1
8.300008292E0,-2.892819860E-1,-5.922124332E-1,1.946888924E-2,6.593774876E-1
8.310043292E0,-1.674992848E-1,-7.788777763E-1,-1.763754129E-2,7.968799681E-1
8.320078292E0,3.799414750E-2,-9.064020413E-1,-1.244848824E-1,9.156990235E-1
8.330113292E0,2.489995855E-1,-1.022029561E0,-2.706442237E-1,1.086183002E0
8.340147292E0,4.474943209E-1,-1.145112281E0,-4.609219766E-1,1.313005092E0
8.350182292E0,5.389073150E-1,-1.252617434E0,-5.092533070E-1,1.455613431E0
8.360217292E0,5.410537548E-1,-1.337433051E0,-3.551464301E-1,1.485797873E0
8.370252292E0,5.437443510E-1,-1.431534047E0,-1.892609221E-1,1.542973540E0
8.380287292E0,6.108455726E-1,-1.465598171E0,-1.079214746E-1,1.591463904E0
8.390322292E0,7.526166151E-1,-1.481168137E0,-1.133856976E-1,1.665276895E0
8.400357292E0,1.008150464E0,-1.456002306E0,-1.786482257E-1,1.779950915E0
8.410392292E0,1.267057718E0,-1.386503470E0,-2.551947105E-1,1.895508236E0
8.420427292E0,1.453759460E0,-1.326102902E0,-3.068969607E-1,1.991519826E0
8.430462292E0,1.543747963E0,-1.293942046E0,-3.233340687E-1,2.040095270E0
8.440497292E0,1.542880528E0,-1.272588599E0,-3.023267770E-1,2.022711929E0
8.450532292E0,1.435605171E0,-1.269591317E0,-2.653560019E-1,1.934744977E0
8.460567292E0,1.261395567E0,-1.269645696E0,-1.557780111E-1,1.796492627E0
8.470602292E0,1.094463188E0,-1.280992218E0,-1.681074500E-2,1.684954994E0
8.480637292E0,9.314393071E-1,-1.240284487E0,7.435202479E-2,1.552872504E0
8.490672292E0,7.666222315E-1,-1.208970893E0,1.411564636E-1,1.438487196E0
8.500707292E0,7.368277442E-1,-1.155389932E0,1.176588428E-1,1.375385264E0
8.510742292E0,6.820248616E-1,-1.114840661E0,8.150784731E-2,1.309454520E0
8.520777292E0,6.059540478E-1,-1.087834711E0,5.944688737E-2,1.246634910E0
8.530812292E0,5.816488534E-1,-9.859844005E-1,5.759975195E-2,1.146210434E0
8.540847292E0,5.571467540E-1,-7.995254642E-1,6.426090002E-2,9.766181120E-1
8.550882292E0,5.164283522E-1,-5.707326865E-1,1.216747105E-1,7.792552712E-1
8.560917292E0,4.257855461E-1,-4.212842864E-1,1.795106900E-1,6.252982241E-1
8.570952292E0,3.757177388E-1,-2.042561066E-1,1.958133119E-1,4.703479876E-1
8.580987292E0,3.125224938E-1,-2.625399828E-2,1.296415418E-1,3.393619173E-1
8.591022292E0,2.308596588E-1,6.104960918E-2,6.963741481E-2,2.487420478E-1
8.601057292E0,1.555780363E-1,1.278879619E-1,7.669968188E-2,2.155056783E-1
8.611092292E0,9.949505210E-2,1.814847100E-1,1.482251626E-1,2.545715306E-1
8.621127292E0,4.368783720E-2,1.660410440E-1,1.808339149E-1,2.493574947E-1
8.631162292E0,9.763973057E-3,1.095259506E-1,2.035602880E-1,2.313613188E-1
8.641197292E0,-4.663026575E-2,1.160783404E-1,3.257910687E-1,3.489819239E-1
8.651232292E0,-2.139375974E-1,8.970213532E-2,5.286531991E-1,5.773127173E-1
8.661267292E0,-2.501097525E-1,1.737734020E-1,6.777215302E-1,7.430064307E-1
8.671301292E0,-2.200633963E-1,3.902314782E-1,7.432834357E-1,8.678587274E-1
8.681336292E0,-1.781364116E-1,7.488131475E-1,6.865736300E-1,1.031424772E0
8.691371292E0,-2.492515640E-1,1.105653516E0,5.480419815E-1,1.258946406E0
8.701406292E0,-2.554558618E-1,1.392744788E0,1.580052155E-1,1.424767135E0
8.711441292E0,-3.154280484E-2,1.648286238E0,-4.609307474E-1,1.711811796E0
8.721476292E0,3.271718886E-1,1.950575008E0,-1.137889801E0,2.281792608E0
8.731511292E0,7.001143196E-1,2.139607304E0,-1.796718100E0,2.880325573E0
8.741546292E0,8.325907378E-1,2.011155671E0,-2.159525844E0,3.066187591E0
8.751581292E0,8.009466299E-1,1.893647686E0,-1.943337910E0,2.829130484E0
8.761616292E0,2.237070522E-1,1.504099748E0,-1.100299805E0,1.876971113E0
8.771651292E0,-4.667295773E-1,1.092736432E0,-7.849887013E-3,1.188263872E0
8.781686292E0,-1.076916059E0,6.666252691E-1,1.042542179E0,1.640436418E0
8.791721292E0,-1.620669108E0,2.599911815E-1,1.885280905E0,2.499689553E0
8.801756292E0,-1.986883733E0,-5.209050536E-2,2.562527057E0,3.242987096E0
8.811791292E0,-2.207036226E0,-2.981425095E-1,2.974187411E0,3.715600707E0
8.821826292E0,-2.261315198E0,-4.877191812E-1,3.066092777E0,3.840877679E0
8.831861292E0,-2.083947659E0,-6.940299994E-1,2.771874919E0,3.536637676E0
8.841896292E0,-1.656921553E0,-7.974210513E-1,2.113836871E0,2.801709421E0
8.851931292E0,-1.164708348E0,-9.139215606E-1,1.332199793E0,1.991621059E0
8.861966292E0,-7.827147923E-1,-9.875309891E-1,7.361638659E-1,1.459382451E0
8.872001292E0,-4.913109796E-1,-9.959638435E-1,2.342558312E-1,1.134991740E0
8.882036292E0,-3.019579090E-1,-9.851377237E-1,-2.492872685E-1,1.060103323E0
8.892070708E0,-1.500427879E-1,-8.718835884E-1,-7.098601663E-1,1.134281837E0
8.902105708E0,-1.429378361E-2,-7.272024232E-1,-1.082500296E0,1.304160484E0
8.912140708E0,-2.942848820E-3,-6.393602872E-1,-1.362176422E0,1.504764048E0
8.922175708E0,-8.767944639E-2,-5.873212373E-1,-1.453112027E0,1.569767016E0
8.932210708E0,-1.893321485E-1,-5.688440359E-1,-1.278327057E0,1.411931395E0
8.942244708E0,-2.213785265E-1,-5.389840597E-1,-8.870916116E-1,1.061340566E0
8.952279708E0,-2.540351528E-1,-5.333923674E-1,-4.299913752E-1,7.307077796E-1
8.962314708E0,-3.692081798E-1,-6.385995644E-1,-6.022339761E-2,7.401019804E-1
8.972349708E0,-4.692307238E-1,-7.201220298E-1,2.631866848E-1,8.988995723E-1
8.982384708E0,-5.226107961E-1,-7.666307831E-1,5.098245800E-1,1.058662318E0
8.992419708E0,-4.576457085E-1,-7.576746029E-1,5.626489109E-1,1.048848986E0
9.002454708E0,-2.734810004E-1,-7.148484260E-1,3.913722700E-1,8.596350292E-1
9.012489708E0,-5.279076425E-2,-6.330534804E-1,1.357548058E-1,6.495944436E-1
9.022524708E0,1.731216567E-1,-4.524967235E-1,-9.183227599E-2,4.931100889E-1
9.032559708E0,2.700078091E-1,-2.641666782E-1,-2.659968567E-1,4.619984617E-1
9.042594708E0,2.866276242E-1,-1.431737530E-1,-4.737425816E-1,5.719144623E-1
9.052629708E0,1.737758688E-1,-8.976060748E-2,-6.220437580E-1,6.520685977E-1
9.062664708E0,3.128212865E-2,-1.944842398E-2,-6.737974638E-1,6.748035529E-1
9.072699708E0,-1.210815836E-1,5.928959727E-2,-7.066833740E-1,7.194285214E-1
9.082734708E0,-2.955302841E-1,1.076583499E-1,-7.783836865E-1,8.395294114E-1
9.092769708E0,-5.239867555E-1,1.210332710E-1,-9.232683349E-1,1.068473486E0
9.102804708E0,-7.230582091E-1,1.164455456E-1,-1.125115973E0,1.342482288E0
9.112839708E0,-8.237667046E-1,1.066269010E-1,-1.347123934E0,1.582625595E0
9.122874708E0,-8.464467385E-1,9.949446738E-2,-1.521703375E0,1.744119374E0
9.132909708E0,-7.632687072E-1,1.223249209E-1,-1.607601312E0,1.783794967E0
9.142944708E0,-6.132393131E-1,1.289129788E-1,-1.603571995E0,1.721663195E0
9.152978708E0,-5.110389370E-1,1.353630424E-1,-1.469379566E0,1.561589017E0
9.163013708E0,-3.361953118E-1,1.861747617E-1,-1.273397854E0,1.330124214E0
9.173048708E0,-1.220027941E-1,2.418665671E-1,-1.098774267E0,1.131675310E0
9.183083708E0,7.173614496E-2,2.946949911E-1,-9.950733125E-1,1.040270210E0
9.193118708E0,2.279112551E-1,3.522234070E-1,-8.972739530E-1,9.905076554E-1
9.203153708E0,3.128810378E-1,3.919371110E-1,-7.792040509E-1,9.266435106E-1
9.213188708E0,4.029036371E-1,4.467804855E-1,-6.600617695E-1,8.930989209E-1
9.223223708E0,4.257144659E-1,4.763989717E-1,-5.464480305E-1,8.407105546E-1
9.233258708E0,5.101905060E-1,5.211833811E-1,-4.840728575E-1,8.753587839E-1
9.243293708E0,6.248473518E-1,5.681704366E-1,-5.019521812E-1,9.824499225E-1
9.253328708E0,6.355223941E-1,5.724944526E-1,-5.442336899E-1,1.013818978E0
9.263363708E0,5.718903987E-1,5.344969064E-1,-5.862778017E-1,9.779914273E-1
9.273398708E0,4.383687542E-1,4.688613260E-1,-5.578223267E-1,8.503904138E-1
9.283433708E0,3.061462879E-1,3.757058251E-1,-4.541587946E-1,6.641841817E-1
9.293468708E0,1.510816371E-1,2.433470821E-1,-3.013871294E-1,4.157856001E-1
9.303503708E0,7.401624843E-2,1.403401923E-1,-1.546296179E-1,2.215493023E-1
9.313538708E0,1.568177191E-1,1.252251399E-1,-2.119615674E-2,2.017979429E-1
9.323573708E0,4.095684762E-1,2.724024814E-1,1.457769334E-2,4.920995405E-1
9.333608708E0,7.185672551E-1,5.270738661E-1,-8.256151557E-2,8.949648956E-1
9.343643708E0,8.569917534E-1,6.471838617E-1,-2.893921512E-1,1.112218339E0
9.353678708E0,1.033991795E0,8.566632861E-1,-5.061080897E-1,1.434976103E0
9.363713708E0,1.187465711E0,1.207923072E0,-6.374763143E-1,1.809842262E0
9.373747708E0,1.032886087E0,1.358783575E0,-6.968451414E-1,1.843567092E0
9.383782708E0,8.005737969E-1,1.348608250E0,-7.566066089E-1,1.741297268E0
9.393817708E0,6.119137127E-1,1.235632442E0,-7.373561132E-1,1.563623984E0
9.403852708E0,5.423190191E-1,1.145846107E0,-5.176700816E-1,1.369326671E0
9.413887708E0,5.233422462E-1,1.008165228E0,-1.432234544E-1,1.144900516E0
9.423922708E0,4.327680717E-1,7.422742063E-1,3.069583565E-1,9.124048629E-1
9.433957708E0,2.961408614E-1,4.362812251E-1,8.191212380E-1,9.741664743E-1
9.443992708E0,1.934159535E-1,1.423223984E-1,1.296683221E0,1.318731501E0
9.454027708E0,1.281416945E-1,-1.160602140E-1,1.596648892E0,1.605981928E0
9.464062708E0,1.834354142E-1,-3.612930232E-1,1.692950195E0,1.740764649E0
9.474097708E0,3.343902398E-1,-5.639130789E-1,1.652755265E0,1.778036771E0
9.484132708E0,5.911358146E-1,-7.306177819E-1,1.494938330E0,1.765809872E0
9.494167708E0,9.291840360E-1,-8.617550415E-1,1.339241595E0,1.843793040E0
9.504202708E0,1.231198499E0,-9.426354825E-1,1.201695203E0,1.961755019E0
9.514237708E0,1.465206408E0,-9.612442464E-1,1.122698150E0,2.081170693E0
9.524272708E0,1.601639637E0,-9.493486708E-1,1.081339624E0,2.153092615E0
9.534307708E0,1.603941101E0,-1.004797232E0,1.041275672E0,2.160208221E0
9.544342708E0,1.559212971E0,-9.687070477E-1,1.028430508E0,2.104093093E0
9.554376708E0,1.497478361E0,-8.929066676E-1,9.188361454E-1,1.970782489E0
9.564411708E0,1.487323209E0,-8.491817737E-1,6.578661400E-1,1.834673778E0
9.574446708E0,1.438036443E0,-8.069865113E-1,3.220862728E-1,1.680153448E0
9.584481708E0,1.311970181E0,-7.868475312E-1,-1.398946345E-2,1.529898853E0
9.594516708E0,1.204126329E0,-7.651385736E-1,-3.139019251E-1,1.460784608E0
9.604551708E0,1.027798278E0,-7.624213725E-1,-5.359809297E-1,1.387418901E0
9.614586708E0,7.719455367E-1,-7.579383123E-1,-5.758209336E-1,1.225536676E0
9.624621708E0,4.883309827E-1,-7.103016311E-1,-4.193354094E-1,9.585602440E-1
9.634656708E0,2.528938129E-1,-6.891984451E-1,-2.002098334E-1,7.609426750E-1
9.644691708E0,1.049338032E-1,-7.386916173E-1,-1.603598893E-2,7.462798144E-1
9.654726708E0,1.236068681E-1,-7.364445323E-1,9.689596474E-2,7.530059993E-1
9.664761708E0,2.459515051E-1,-7.350172269E-1,2.285793543E-1,8.080785778E-1
9.674796708E0,3.810263162E-1,-7.865738815E-1,3.294830006E-1,9.340442026E-1
9.684831708E0,5.953063777E-1,-8.230295169E-1,3.542787033E-1,1.075769803E0
9.694866708E0,7.842910554E-1,-8.340550268E-1,3.529999173E-1,1.198068942E0
9.704901708E0,9.475046052E-1,-7.907686740E-1,3.219547105E-1,1.275435184E0
9.714936708E0,1.059206159E0,-7.537616462E-1,2.458391654E-1,1.323068857E0
9.724971708E0,1.133454615E0,-7.017752212E-1,9.410508871E-2,1.336436902E0
9.735005708E0,1.158274218E0,-6.219332457E-1,-1.248316222E-1,1.320599508E0
9.745040708E0,1.174941267E0,-5.348892546E-1,-3.476304191E-1,1.336951908E0
9.755075708E0,1.134690204E0,-4.605705589E-1,-5.375894988E-1,1.337404041E0
9.765110708E0,1.052794248E0,-4.596314961E-1,-5.882199544E-1,1.290596589E0
9.775145708E0,9.970623891E-1,-4.131508094E-1,-5.281222719E-1,1.201557378E0
9.785180708E0,8.933791957E-1,-3.849543661E-1,-4.230823052E-1,1.060808601E0
9.795215708E0,7.973715692E-1,-4.020662427E-1,-2.884817398E-1,9.384457347E-1
9.805250708E0,7.867999495E-1,-4.192307442E-1,-1.560686177E-1,9.050778921E-1
9.815285708E0,8.536886613E-1,-4.434101504E-1,-4.671457529E-2,9.631091026E-1
9.825320708E0,9.908387589E-1,-4.383569866E-1,-1.775565505E-2,1.083620578E0
9.835355708E0,1.124662741E0,-5.273475158E-1,-3.502365232E-2,1.242653749E0
9.845390708E0,1.208309646E0,-6.926202357E-1,-8.383737803E-3,1.392768925E0
9.855425708E0,1.223790076E0,-9.035328126E-1,4.237828016E-2,1.521785009E0
9.865460708E0,1.176279256E0,-1.116551557E0,1.906858885E-1,1.632997666E0
9.875495708E0,1.130583632E0,-1.260642153E0,3.209302783E-1,1.723494772E0
9.885531042E0,1.277442812E0,-1.145052640E0,4.040917182E-1,1.762468667E0
9.895566042E0,1.284847872E0,-1.163666666E0,5.324293309E-1,1.813404300E0
9.905601042E0,1.417514909E0,-1.005662035E0,5.965189075E-1,1.837536246E0
9.915635042E0,1.529764200E0,-8.227400798E-1,5.722588098E-1,1.828813794E0
9.925670042E0,1.606960896E0,-5.772651958E-1,4.764083272E-1,1.772716368E0
9.935705042E0,1.706476851E0,-2.316427106E-1,1.977007931E-1,1.733437969E0
9.945740042E0,1.798265127E0,1.051393694E-1,-1.594524014E-1,1.808379612E0
9.955775042E0,1.870240843E0,2.836361521E-1,-4.778104895E-1,1.951038991E0
9.965810042E0,1.788910021E0,3.671876013E-1,-5.835246402E-1,1.917166347E0
9.975845042E0,1.609375942E0,3.044633496E-1,-4.783747458E-1,1.706350272E0
9.985880042E0,1.297718178E0,1.917880887E-1,-5.455919981E-2,1.312947770E0
9.995915042E0,7.941359393E-1,8.246503651E-2,6.815631509E-1,1.049752686E0
1.000595004E1,3.083457546E-1,3.666788936E-3,1.514339976E0,1.545417780E0
1.001598504E1,-1.277678747E-1,-1.451518661E-1,2.282707967E0,2.290883969E0
1.002602004E1,-5.001611425E-1,-2.482587433E-1,2.940443130E0,2.992991709E0
1.003605504E1,-7.694479716E-1,-1.769642276E-1,3.444349743E0,3.533682451E0
1.004609004E1,-8.223414458E-1,-1.180658090E-1,3.521347632E0,3.618020749E0
1.005612504E1,-6.118527190E-1,-5.859202445E-2,3.083168401E0,3.143839081E0
1.006615904E1,-2.322063091E-1,3.217079580E-2,2.289731058E0,2.301700034E0
1.007619404E1,1.489948024E-1,1.130062133E-1,1.533894820E0,1.545251815E0
1.008622904E1,4.172165246E-1,2.247131753E-1,1.052038642E0,1.153841819E0
1.009626404E1,5.845218463E-1,3.786803037E-1,6.425376642E-1,9.475859914E-1
1.010629904E1,5.801134111E-1,4.663499469E-1,3.283252519E-1,8.135178632E-1
1.011633404E1,5.000204438E-1,5.068348986E-1,1.191609925E-1,7.218735352E-1
1.012636904E1,3.665334075E-1,5.404002553E-1,-2.224280834E-3,6.529809509E-1
1.013640404E1,1.861707417E-1,4.846827221E-1,-4.119948149E-2,5.208399787E-1
1.014643904E1,1.422032980E-1,4.135788256E-1,-1.955835164E-2,4.377804839E-1
1.015647404E1,1.728666816E-1,2.515939951E-1,1.432117599E-1,3.371824968E-1
1.016650904E1,3.225609937E-1,3.223219156E-2,3.613415551E-1,4.854402417E-1
1.017654404E1,5.103537164E-1,-1.741312516E-1,5.529074496E-1,7.723271693E-1
1.018657904E1,7.209880755E-1,-4.070392996E-1,8.059275806E-1,1.155432413E0
1.019661404E1,9.307527709E-1,-5.718962824E-1,1.038617527E0,1.507346160E0
1.020664904E1,1.115423409E0,-6.919694406E-1,1.262979870E0,1.821567797E0
1.021668404E1,1.187945183E0,-7.926596636E-1,1.484018655E0,2.059571428E0
1.022671804E1,1.163773085E0,-8.426925337E-1,1.606416666E0,2.155243143E0
1.023675304E1,1.093309678E0,-8.682700092E-1,1.585113505E0,2.112298200E0
1.024678804E1,9.501669887E-1,-8.854801190E-1,1.427974262E0,1.930285689E0
1.025682304E1,8.446083739E-1,-8.824945307E-1,1.123295735E0,1.659503905E0
1.026685804E1,8.058867963E-1,-9.066014314E-1,7.151331854E-1,1.408117593E0
1.027689304E1,7.906148922E-1,-9.156447351E-1,3.377030164E-1,1.255993836E0
1.028692804E1,8.179816888E-1,-9.114060885E-1,-1.135997057E-2,1.224697575E0
1.029696304E1,8.192837906E-1,-1.019274353E0,-3.216752136E-1,1.346707496E0
1.030699804E1,8.877296890E-1,-1.028096048E0,-6.487275267E-1,1.505288307E0
1.031703304E1,1.030254109E0,-1.073162878E0,-9.808417743E-1,1.781895810E0
1.032706804E1,1.094548192E0,-1.194862731E0,-1.246470841E0,2.044363531E0
1.033710304E1,1.256737675E0,-1.269200138E0,-1.368521528E0,2.250135495E0
1.034713804E1,1.365268137E0,-1.384093248E0,-1.318161213E0,2.348876367E0
1.035717304E1,1.438694986E0,-1.437976509E0,-1.233109953E0,2.378692889E0
1.036720704E1,1.592656998E0,-1.486448173E0,-1.181699479E0,2.478406372E0
1.037724204E1,2.101860165E0,-1.596597437E0,-1.058357143E0,2.843775549E0
1.038727704E1,1.722749945E0,-1.709508340E0,-9.569208151E-1,2.608828010E0
1.039731204E1,1.964534943E0,-1.543227561E0,-6.631947076E-1,2.584719727E0
1.040734704E1,2.412727531E0,-1.327638381E0,-1.725981116E-1,2.759287575E0
1.041738204E1,2.540624264E0,-1.343010126E0,3.864687949E-1,2.899621696E0
1.042741704E1,2.861142606E0,-1.242935615E0,1.058788667E0,3.294246408E0
1.043745204E1,3.051435562E0,-1.159445561E0,1.841571799E0,3.747927386E0
1.044748704E1,3.086527334E0,-1.222127713E0,2.696042964E0,4.276551741E0
1.045752204E1,3.090834978E0,-1.273753949E0,3.483545968E0,4.828126189E0
1.046755704E1,3.096469063E0,-1.295095117E0,4.090134366E0,5.290991509E0
1.047759204E1,3.064430121E0,-1.356072221E0,4.484123265E0,5.597948311E0
1.048762704E1,3.002610142E0,-1.447242592E0,4.635747414E0,5.709670119E0
1.049766204E1,2.940500432E0,-1.511368421E0,4.560370957E0,5.632740058E0
1.050769604E1,2.874788838E0,-1.554068298E0,4.415819600E0,5.493541833E0
1.051773104E1,2.788258525E0,-1.550174053E0,4.348443303E0,5.393179429E0
1.052776604E1,2.706764711E0,-1.585239220E0,4.315371451E0,5.334977915E0
1.053780104E1,2.703153178E0,-1.608094232E0,4.338200151E0,5.358449842E0
1.054783604E1,2.645722118E0,-1.652383967E0,4.418820391E0,5.408899329E0
1.055787104E1,2.573889074E0,-1.795725535E0,4.414439657E0,5.416346799E0
1.056790604E1,2.584446514E0,-1.951390695E0,4.266067729E0,5.355989479E0
1.057794104E1,2.640984997E0,-2.183855524E0,4.014816965E0,5.278520813E0
1.058797604E1,2.805474774E0,-2.464946968E0,3.661607718E0,5.230107393E0
1.059801104E1,3.017295424E0,-2.758864279E0,3.240729228E0,5.217061406E0
1.060804604E1,3.242457373E0,-3.061809692E0,2.895054703E0,5.316911710E0
1.061808104E1,3.474615223E0,-3.287837906E0,2.607908467E0,5.448303921E0
1.062811604E1,3.664637745E0,-3.444577784E0,2.391293685E0,5.568929107E0
1.063815104E1,3.667463120E0,-3.531686679E0,2.333089331E0,5.600571610E0
1.064818504E1,3.362936620E0,-3.526111359E0,2.510642958E0,5.481435222E0
1.065822004E1,2.896816469E0,-3.354264030E0,2.742261695E0,5.211778203E0
1.066825504E1,2.461968689E0,-3.101486558E0,2.798016651E0,4.848649902E0
1.067829004E1,2.152725240E0,-2.842864795E0,2.609351560E0,4.418690051E0
1.068832504E1,1.996897820E0,-2.513827352E0,2.285307055E0,3.940755916E0
1.069836004E1,1.970572047E0,-2.213423139E0,1.883013355E0,3.511144469E0
1.070839504E1,2.069800613E0,-2.001153424E0,1.567379485E0,3.278012820E0
1.071843004E1,2.108148261E0,-1.823671133E0,1.422136402E0,3.129303027E0
1.072846504E1,1.986506879E0,-1.718838742E0,1.459717627E0,3.005227405E0
1.073850004E1,1.717664329E0,-1.628177079E0,1.634079843E0,2.876029951E0
1.074853504E1,1.391489829E0,-1.488794076E0,1.841443745E0,2.746573649E0
1.075857004E1,1.100941903E0,-1.334746256E0,1.963676280E0,2.617182678E0
1.076860504E1,8.859999365E-1,-1.200544471E0,1.882666615E0,2.402235729E0
1.077863904E1,7.811085621E-1,-1.119949374E0,1.663161555E0,2.151865131E0
1.078867404E1,8.184073661E-1,-1.045058820E0,1.323840029E0,1.874697570E0
1.079870904E1,8.658940662E-1,-1.007670554E0,1.003368757E0,1.664908809E0
1.080874404E1,9.001621120E-1,-1.018794297E0,7.319877845E-1,1.544033602E0
1.081877904E1,8.829979759E-1,-1.064392054E0,5.787603289E-1,1.499192912E0
1.082881404E1,8.292068810E-1,-1.155244921E0,5.607362866E-1,1.528594146E0
1.083884904E1,7.869585552E-1,-1.235450009E0,5.688224012E-1,1.571368644E0
1.084888404E1,7.179494968E-1,-1.367321094E0,6.075239521E-1,1.659549278E0
1.085891904E1,7.132763290E-1,-1.468701873E0,6.262578464E-1,1.748727310E0
1.086895404E1,6.939002643E-1,-1.565690809E0,6.920150489E-1,1.847097754E0
1.087898904E1,6.657723065E-1,-1.644870880E0,7.478109348E-1,1.925636043E0
1.088902404E1,6.423471180E-1,-1.659460852E0,7.659782338E-1,1.937302969E0
1.089905904E1,5.961876628E-1,-1.631184887E0,7.157652694E-1,1.878436527E0
1.090909304E1,5.576339002E-1,-1.566052752E0,6.015533602E-1,1.767864031E0
1.091912804E1,5.112228685E-1,-1.498029753E0,4.776684022E-1,1.653362956E0
1.092916304E1,4.986249693E-1,-1.391186505E0,3.035377353E-1,1.508695433E0
1.093919804E1,4.255502687E-1,-1.265891783E0,1.850269532E-1,1.348261848E0
1.094923304E1,3.369101705E-1,-1.128143662E0,1.389918244E-1,1.185552745E0
1.095926804E1,1.694711669E-1,-9.862697446E-1,2.083415562E-1,1.022181339E0
1.096930304E1,-2.118563175E-2,-7.634937519E-1,3.410879695E-1,8.364882206E-1
1.097933804E1,-2.690424521E-1,-6.052768672E-1,4.811720538E-1,8.187004778E-1
1.098937304E1,-5.098550220E-1,-4.386265433E-1,5.574600917E-1,8.735600390E-1
1.099940804E1,-7.464666599E-1,-2.482470489E-1,5.700906622E-1,9.715155350E-1
1.100944304E1,-9.564889982E-1,-4.207773328E-2,4.487375486E-1,1.057358561E0
1.101947804E1,-1.044103458E0,1.704498446E-1,1.395069641E-1,1.067083584E0
1.102951304E1,-9.955599470E-1,3.090241778E-1,-3.036885935E-1,1.085754260E0
1.103954704E1,-8.423400928E-1,3.206835258E-1,-7.168505126E-1,1.151629026E0
1.104958204E1,-7.306602473E-1,2.892167348E-1,-8.921430212E-1,1.188877574E0
1.105961704E1,-7.540680403E-1,1.735009217E-1,-5.177715307E-1,9.310255298E-1
1.106965204E1,-8.625985023E-1,1.579063976E-1,2.963316268E-1,9.256473625E-1
1.107968704E1,-1.072584003E0,1.076302832E-1,1.164686421E0,1.586983043E0
1.108972204E1,-1.378474073E0,-2.472787499E-2,1.873291190E0,2.325945425E0
1.109975704E1,-1.587282968E0,-3.294906020E-2,2.374294660E0,2.856191169E0
1.110979204E1,-1.742328762E0,-3.690879464E-2,2.533586263E0,3.075082296E0
1.111982704E1,-1.661582953E0,-3.873488009E-2,2.291637835E0,2.830894252E0
1.112986204E1,-1.391677671E0,-1.176401317E-2,1.743999896E0,2.231241979E0
1.113989704E1,-1.175343190E0,-7.634066284E-2,1.080704616E0,1.598493660E0
1.114993104E1,-1.033678458E0,-1.105644161E-1,6.343474692E-1,1.217831004E0
1.115996604E1,-1.001472652E0,-6.492280483E-2,4.592017257E-1,1.103643361E0
1.117000104E1,-1.103644851E0,-9.272514582E-3,4.704055756E-1,1.199749700E0
1.118003604E1,-1.274336771E0,6.058241665E-2,4.942049128E-1,1.368153109E0
1.119007104E1,-1.348673739E0,1.200942081E-1,3.129312873E-1,1.389701214E0
1.120010604E1,-1.375118064E0,1.602154630E-1,-3.319815159E-2,1.384817967E0
1.121014104E1,-1.389073029E0,2.014845264E-1,-4.065376085E-1,1.461298300E0
1.122017604E1,-1.447366553E0,2.552122521E-1,-6.949433345E-1,1.625715064E0
1.123021104E1,-1.493986111E0,3.152935624E-1,-8.820185673E-1,1.763338108E0
1.124024604E1,-1.507456926E0,2.995850176E-1,-9.264451271E-1,1.794569068E0
1.125028104E1,-1.454555412E0,2.284998322E-1,-9.258346778E-1,1.739285333E0
1.126031604E1,-1.407869927E0,7.347903550E-2,-7.232081902E-1,1.584464258E0
1.127035004E1,-1.358346642E0,-8.430866361E-2,-3.666847408E-1,1.409493259E0
1.128038504E1,-1.294457040E0,-2.646560901E-1,-2.964479864E-2,1.321567512E0
1.129042004E1,-1.208902919E0,-4.645916891E-1,2.139940596E-1,1.312663385E0
1.130045504E1,-1.059307900E0,-5.431841147E-1,3.248081517E-1,1.233970237E0
1.131049004E1,-9.177739256E-1,-5.998787177E-1,3.232890451E-1,1.143100722E0
1.132052504E1,-8.315400662E-1,-6.826489788E-1,2.250657624E-1,1.099146536E0
1.133056004E1,-7.451433619E-1,-7.018927503E-1,8.953782856E-2,1.027574370E0
1.134059504E1,-7.547039980E-1,-7.111781287E-1,-5.405458510E-2,1.038399901E0
1.135063004E1,-8.027942770E-1,-7.262528354E-1,-2.392744964E-1,1.108681251E0
1.136066504E1,-8.490304039E-1,-7.413982934E-1,-5.076511699E-1,1.236217524E0
1.137070004E1,-8.228164590E-1,-7.184584969E-1,-7.731527674E-1,1.338273043E0
1.138073504E1,-8.026362560E-1,-6.547975212E-1,-9.605992985E-1,1.412705123E0
1.139076904E1,-7.763127489E-1,-6.078829712E-1,-1.078742875E0,1.461461386E0
1.140080404E1,-7.155171282E-1,-5.482916576E-1,-1.117582421E0,1.435819964E0
1.141083904E1,-7.605268016E-1,-5.307862633E-1,-1.097072142E0,1.436559208E0
1.142087404E1,-7.699376759E-1,-4.463682568E-1,-1.130138732E0,1.438493030E0
1.143090904E1,-6.958758923E-1,-3.487916762E-1,-1.264000209E0,1.484451218E0
1.144094404E1,-5.827186015E-1,-2.484002459E-1,-1.414469533E0,1.549834736E0
1.145097904E1,-4.700404170E-1,-5.940654159E-2,-1.579976141E0,1.649482264E0
1.146101404E1,-3.865091042E-1,1.906221539E-1,-1.687704658E0,1.741859095E0
1.147104904E1,-4.827856295E-1,4.138565683E-1,-1.643796161E0,1.762505331E0
1.148108404E1,-5.640303156E-1,6.113071007E-1,-1.589969618E0,1.794388462E0
1.149111904E1,-5.987151948E-1,7.775644916E-1,-1.277059965E0,1.610573990E0
1.150115304E1,-5.749727584E-1,8.461447299E-1,-8.044751322E-1,1.301435675E0
1.151118804E1,-5.259026323E-1,8.430965763E-1,-3.451552927E-1,1.051911399E0
1.152122304E1,-4.562972675E-1,7.817470050E-1,5.447324574E-2,9.068091920E-1
1.153125804E1,-3.137364489E-1,8.385258079E-1,4.590064287E-1,1.006102873E0
1.154129304E1,-2.347376418E-1,8.239516228E-1,8.564446002E-1,1.211402241E0
1.155132804E1,-2.501715868E-1,7.356189054E-1,1.168983539E0,1.403653630E0
1.156136304E1,-2.247435443E-1,6.893598282E-1,1.371546877E0,1.551408221E0
1.157139804E1,-2.375741992E-1,6.096435678E-1,1.452470587E0,1.593040360E0
1.158143304E1,-3.084528683E-1,4.484229684E-1,1.384473901E0,1.487613631E0
1.159146804E1,-3.780413127E-1,3.338491166E-1,1.151435460E0,1.257049755E0
1.160150304E1,-4.448938814E-1,2.185379308E-1,8.741897303E-1,1.004936355E0
1.161153704E1,-5.218893227E-1,8.623532116E-2,6.422330242E-1,8.320265941E-1
1.162157204E1,-5.731409354E-1,-6.130279362E-2,5.383297563E-1,7.886998737E-1
1.163160704E1,-6.247435637E-1,-1.971587563E-1,5.887350941E-1,8.807866407E-1
1.164164204E1,-6.320214468E-1,-3.599598581E-1,6.647354490E-1,9.853402589E-1
1.165167704E1,-3.828926013E-1,-3.249286044E-1,7.211458772E-1,8.787700031E-1
1.166171204E1,1.808944336E-1,-1.512616217E-2,6.189687073E-1,6.450378729E-1
1.167174704E1,6.662247348E-1,2.158751088E-1,2.444013351E-1,7.417475800E-1
1.168178204E1,1.026399186E0,4.466161788E-1,-1.995806730E-1,1.137010881E0
1.169181704E1,1.378202470E0,9.131994295E-1,-7.240425879E-1,1.804885846E0
1.170185204E1,1.422669814E0,1.242740318E0,-1.137652988E0,2.205141088E0
1.171188604E1,1.248697461E0,1.380679058E0,-1.432912236E0,2.349203586E0
1.172192104E1,1.446510228E0,1.336074159E0,-1.601326665E0,2.538056951E0
1.173195604E1,7.015933728E-1,1.023827580E0,-1.356993742E0,1.838991080E0
1.174199104E1,2.227511421E-2,1.123266499E0,-4.100476921E-1,1.195977808E0
1.175202604E1,1.694652466E-1,5.945922500E-1,6.186365855E-1,8.746254275E-1
1.176206104E1,-2.894009221E-1,-3.595020211E-1,1.407086838E0,1.480840291E0
1.177209604E1,-5.633996934E-2,-7.704010677E-1,2.099578435E0,2.237168211E0
1.178213104E1,4.198169276E-2,-1.010778934E0,2.536023383E0,2.730357323E0
1.179216604E1,2.001419326E-1,-1.127135602E0,2.516116537E0,2.764296273E0
1.180220104E1,3.620575467E-1,-1.105240118E0,2.076028190E0,2.379608041E0
1.181223604E1,4.223201206E-1,-1.128906723E0,1.410603939E0,1.855421285E0
1.182227004E1,5.567465852E-1,-1.008152364E0,6.691828412E-1,1.331969829E0
1.183230504E1,7.156918868E-1,-7.897992057E-1,1.852719516E-1,1.081814845E0
1.184234004E1,8.510113674E-1,-6.251954073E-1,-1.306963795E-1,1.064035332E0
1.185237504E1,9.733038363E-1,-5.474835724E-1,-4.504420120E-1,1.204141448E0
1.186241004E1,1.025213443E0,-5.740550745E-1,-6.382101399E-1,1.337129020E0
1.187244504E1,1.085772179E0,-5.422696102E-1,-7.094941306E-1,1.405823416E0
1.188248004E1,1.092434569E0,-4.634813029E-1,-6.881020921E-1,1.371755334E0
1.189251546E1,1.047236835E0,-3.837925243E-1,-7.385664868E-1,1.337715271E0
1.190255046E1,9.753804749E-1,-3.271078616E-1,-8.625713128E-1,1.342533386E0
1.191258546E1,8.670923799E-1,-3.165378499E-1,-1.019253888E0,1.375108685E0
1.192261946E1,7.557327425E-1,-2.896669704E-1,-1.196559008E0,1.444573429E0
1.193265446E1,6.020642241E-1,-2.333325559E-1,-1.333018404E0,1.481169631E0
1.194268946E1,3.842286901E-1,-2.319245464E-1,-1.380627018E0,1.451740901E0
1.195272446E1,2.225440776E-1,-2.369975907E-1,-1.359953018E0,1.398272482E0
1.196275946E1,1.228407184E-1,-2.541082978E-1,-1.283046345E0,1.313723255E0
1.197279446E1,4.560948808E-2,-3.224259961E-1,-1.054150656E0,1.103300663E0
1.198282946E1,-2.195461370E-2,-4.490059358E-1,-7.162160897E-1,8.456085516E-1
1.199286446E1,-1.045654286E-1,-5.766144007E-1,-3.277452081E-1,6.714424901E-1
1.200289946E1,-1.928667172E-1,-7.113278174E-1,-6.335808992E-2,7.397290599E-1
1.201293446E1,-1.135702869E-1,-8.198112094E-1,5.367276192E-2,8.293789210E-1
1.202296846E1,8.320529401E-2,-8.990965301E-1,8.197913289E-2,9.066522319E-1
1.203300346E1,2.636283689E-1,-9.051671094E-1,-8.392508626E-2,9.465045340E-1
1.204303846E1,4.042888425E-1,-9.161084193E-1,-4.105832970E-1,1.082258171E0
1.205307346E1,5.377123999E-1,-8.133102751E-1,-6.932891572E-1,1.196351990E0
1.206310846E1,7.102374579E-1,-6.739120692E-1,-8.715725166E-1,1.310814012E0
1.207314346E1,8.233631006E-1,-5.830428296E-1,-1.031370488E0,1.442771923E0
1.208317846E1,8.455870517E-1,-4.817374796E-1,-1.092255791E0,1.462911882E0
1.209321346E1,7.887339161E-1,-3.750585383E-1,-1.120982577E0,1.421046106E0
1.210324846E1,6.727734701E-1,-3.167372400E-1,-1.073655213E0,1.306017664E0
1.211328346E1,5.986475133E-1,-2.768212223E-1,-1.161701417E0,1.335873877E0
1.212331746E1,6.230502100E-1,-2.131964993E-1,-1.227451018E0,1.392939451E0
1.213335246E1,6.667050835E-1,-1.377451980E-1,-1.198522503E0,1.378377887E0
1.214338746E1,6.589971377E-1,-1.177722788E-1,-1.173084192E0,1.350656899E0
1.215342246E1,6.040711713E-1,-1.713643491E-1,-1.165237228E0,1.323648563E0
1.216345746E1,5.039150549E-1,-2.035468394E-1,-1.060775551E0,1.191891970E0
1.217349246E1,3.332484979E-1,-2.363046956E-1,-8.389836448E-1,9.331602364E-1
1.218352746E1,1.223462267E-1,-2.877180934E-1,-5.314855903E-1,6.166256832E-1
1.219356246E1,-1.817378944E-1,-4.217234123E-1,-2.262334514E-1,5.119188151E-1
1.220359746E1,-2.737120019E-1,-3.869412500E-1,-8.932908297E-2,4.823084863E-1
1.221363246E1,-3.186516184E-1,-4.412016571E-1,-1.295666975E-1,5.594508782E-1
1.222366646E1,-2.364246366E-1,-4.847639984E-1,-3.115683013E-1,6.228704113E-1
1.223370146E1,-9.375721592E-2,-4.955801779E-1,-5.182129955E-1,7.231423352E-1
1.224373646E1,6.864974700E-2,-5.128171849E-1,-6.709112781E-1,8.472403414E-1
1.225377146E1,1.648149011E-1,-5.381151634E-1,-7.050455689E-1,9.021203551E-1
1.226380646E1,1.764497274E-1,-5.800426233E-1,-6.176905060E-1,8.655203708E-1
1.227384146E1,1.538600147E-1,-5.935713261E-1,-3.842562085E-1,7.236384851E-1
1.228387646E1,1.980361675E-1,-6.020228916E-1,-1.638278729E-1,6.545910614E-1
1.229391146E1,2.054100181E-1,-7.093380100E-1,5.031762958E-2,7.401929152E-1
1.230394646E1,3.163815100E-1,-6.756516159E-1,2.001268029E-1,7.724332354E-1
1.231398146E1,5.831386509E-1,-5.372386658E-1,1.932668495E-1,8.161054744E-1
1.232401546E1,8.262357645E-1,-4.692770630E-1,3.196555853E-2,9.507409202E-1
1.233405046E1,1.251977018E0,-3.572958666E-1,-2.716359115E-1,1.329997315E0
1.234408546E1,1.769849852E0,-7.523846269E-2,-6.339779252E-1,1.881477434E0
1.235412046E1,2.247578042E0,4.044712025E-1,-9.891524220E-1,2.488699765E0
1.236415546E1,2.765119338E0,9.088233733E-1,-1.297926339E0,3.186919776E0
1.237419046E1,2.297819365E0,1.239407405E0,-1.275426838E0,2.905652796E0
1.238422546E1,1.640784407E0,1.379941725E0,-9.613483268E-1,2.349596399E0
1.239426046E1,8.931225760E-1,1.265251513E0,-2.933735204E-1,1.576260559E0
1.240429546E1,-3.227612973E-1,9.481675333E-1,7.599228573E-1,1.257250681E0
1.241432946E1,-1.373367408E0,7.551661474E-1,1.875450566E0,2.444121268E0
1.242436446E1,-2.307577345E0,4.119842899E-1,2.660129950E0,3.545551524E0
1.243439946E1,-2.722165400E0,1.679215086E-1,3.087923357E0,4.119909314E0
1.244443446E1,-2.950507942E0,-1.011539072E-1,3.305185425E0,4.431701696E0
1.245446946E1,-2.898722661E0,-2.457818627E-1,3.374194264E0,4.455130607E0
1.246450446E1,-2.465381708E0,-1.234329683E-1,3.264960675E0,4.093080853E0
1.247453946E1,-1.962708858E0,6.289557517E-2,2.962420474E0,3.554168958E0
1.248457446E1,-1.564413046E0,2.102652901E-1,2.520845765E0,2.974266807E0
1.249460946E1,-1.232866855E0,2.509747750E-1,2.057552742E0,2.411736368E0
1.250464346E1,-8.926053167E-1,3.308974421E-1,1.700702434E0,1.949006448E0
1.251467846E1,-3.997180009E-1,3.616812783E-1,1.298288866E0,1.405753110E0
1.252471346E1,-5.046307176E-1,3.222412241E-1,8.718555218E-1,1.057650045E0
1.253474846E1,-3.078699374E-1,4.004015404E-1,5.037844062E-1,7.133750906E-1
1.254478346E1,8.854160920E-2,4.056423998E-1,2.089362180E-1,4.648007275E-1
1.255481846E1,1.242208806E-1,3.012304240E-1,3.700235009E-2,3.279325685E-1
1.256485346E1,6.251565233E-2,2.389792120E-1,-9.884542644E-2,2.660633175E-1
1.257488846E1,-6.563061029E-3,2.011179060E-1,-1.560674483E-1,2.546537537E-1
1.258492346E1,-7.276348248E-2,9.783151925E-2,-2.069563508E-1,2.402008778E-1
1.259495846E1,-2.516155567E-1,-1.064017832E-2,-1.328124869E-1,2.847152234E-1
1.260499246E1,-4.803604603E-1,-1.527298576E-1,-1.114701498E-1,5.162346128E-1
1.261502746E1,-8.165850082E-1,-3.690019923E-1,-3.342268467E-2,8.967110024E-1
1.262506246E1,-1.152110668E0,-6.556301647E-1,5.362890780E-2,1.326682314E0
1.263509746E1,-1.285530388E0,-8.950964499E-1,7.835210502E-2,1.568414832E0
1.264513246E1,-1.206423846E0,-1.119147720E0,-2.425834358E-2,1.645763830E0
1.265516746E1,-1.002946661E0,-1.283772569E0,-2.087192863E-1,1.642418264E0
1.266520246E1,-7.066732876E-1,-1.339774861E0,-4.417834550E-1,1.577832829E0
1.267523746E1,-3.150224709E-1,-1.367056215E0,-7.669377619E-1,1.598835634E0
1.268527146E1,1.143811130E-1,-1.224436194E0,-1.168515762E0,1.696395036E0
1.269530646E1,3.895433340E-1,-1.153468537E0,-1.369245998E0,1.832230411E0
1.270534146E1,5.852451103E-1,-1.006653138E0,-1.412296123E0,1.830421459E0
1.271537646E1,6.802210687E-1,-8.446156830E-1,-1.357311831E0,1.737346183E0
1.272541146E1,6.828083155E-1,-7.236233425E-1,-1.336614441E0,1.666252112E0
1.273544646E1,5.676038414E-1,-6.303865653E-1,-1.319585595E0,1.568715234E0
1.274548146E1,3.816253269E-1,-5.174201131E-1,-1.312033916E0,1.461093584E0
1.275551646E1,2.095604083E-1,-4.357046896E-1,-1.348758523E0,1.432795762E0
1.276555146E1,4.011811204E-2,-3.670291418E-1,-1.420212668E0,1.467420825E0
1.277558546E1,-6.492499754E-2,-3.188451612E-1,-1.509997249E0,1.544658274E0
1.278562046E1,-1.649596015E-1,-2.335804778E-1,-1.543403562E0,1.569670686E0
1.279565546E1,-2.972535134E-1,-1.648265773E-1,-1.468717661E0,1.507534086E0
1.280569046E1,-4.168107279E-1,-9.207552016E-2,-1.361261625E0,1.426619184E0
1.281572546E1,-5.380623923E-1,-2.100904584E-3,-1.182652575E0,1.299300837E0
1.282576046E1,-6.030629651E-1,4.486743987E-2,-1.024949076E0,1.190049846E0
1.283579546E1,-6.284439741E-1,1.169092298E-1,-8.926312637E-1,1.097907177E0
1.284583046E1,-6.185503390E-1,1.952192348E-1,-7.618202788E-1,1.000542457E0
1.285586546E1,-5.662480183E-1,3.077354515E-1,-7.142198503E-1,9.620020379E-1
1.286589946E1,-5.610773255E-1,4.347439921E-1,-6.268934387E-1,9.469981454E-1
1.287593446E1,-5.414241028E-1,5.404856247E-1,-4.862293106E-1,9.064677115E-1
1.288596946E1,-4.210880392E-1,6.143552542E-1,-3.214109194E-1,8.112043480E-1
1.289600396E1,-2.640460063E-1,6.235423994E-1,-1.905151498E-1,7.034354552E-1
1.290603896E1,-1.074711659E-1,6.800949150E-1,-9.732281148E-2,6.953782241E-1
1.291607396E1,1.364104249E-2,8.000984913E-1,2.358883739E-2,8.005623693E-1
1.292610896E1,7.804856144E-2,9.594421345E-1,2.111604989E-1,9.854996416E-1
1.293614396E1,6.902513824E-2,1.077937129E0,3.952577448E-1,1.150191988E0
1.294617796E1,-1.901660711E-2,1.121946782E0,5.837292928E-1,1.264858135E0
1.295621296E1,-1.005922090E-1,1.149578385E0,7.264633352E-1,1.363597533E0
1.296624796E1,-2.467421217E-1,1.145124561E0,9.761014366E-1,1.524783902E0
1.297628296E1,-3.393903767E-1,1.091798539E0,1.088594849E0,1.578685726E0
1.298631796E1,-2.125177838E-1,1.120204897E0,9.959492254E-1,1.513914687E0
1.299635296E1,2.783135779E-1,1.344865447E0,5.600948471E-1,1.483181633E0
1.300638796E1,8.725946099E-1,1.603855001E0,-1.377832049E-1,1.831053366E0
1.301642296E1,1.444291502E0,1.867738089E0,-7.460175937E-1,2.476078707E0
1.302645796E1,1.818263482E0,2.192475489E0,-1.018853939E0,3.025077554E0
1.303649196E1,1.932374673E0,2.627624694E0,-1.041256961E0,3.423842792E0
1.304652696E1,1.815131859E0,2.863381505E0,-1.012939480E0,3.538319333E0
1.305656196E1,1.446130013E0,2.900608388E0,-6.761766958E-1,3.310896549E0
1.306659696E1,9.414209428E-1,2.759777030E0,1.069274479E-1,2.917888984E0
1.307663196E1,2.424235144E-1,2.259124392E0,1.026756451E0,2.493319271E0
1.308666696E1,-5.381397218E-1,1.645134589E0,2.073885185E0,2.701307450E0
1.309670196E1,-1.203953617E0,9.326016605E-1,3.117348885E0,3.469454458E0
1.310673696E1,-1.553648322E0,8.722057700E-2,3.789021471E0,4.096109647E0
1.311677096E1,-1.318805577E0,-4.737513524E-1,3.828697752E0,4.077084126E0
1.312680596E1,-6.640124407E-1,-8.577450210E-1,3.232187031E0,3.409350678E0
1.313684096E1,5.831903256E-2,-1.156458219E0,2.456279640E0,2.715530591E0
1.314687596E1,5.371099540E-1,-1.363050288E0,1.885888431E0,2.388088852E0
1.315691096E1,8.479980049E-1,-1.471323765E0,1.577361267E0,2.317749513E0
1.316694596E1,1.104534432E0,-1.517184647E0,1.495651106E0,2.399753694E0
1.317698096E1,1.284881493E0,-1.523868599E0,1.544887000E0,2.521858799E0
1.318701596E1,1.412280335E0,-1.526301625E0,1.559270566E0,2.599126218E0
1.319705096E1,1.581504750E0,-1.479769483E0,1.342128950E0,2.547976671E0
1.320708496E1,1.732213517E0,-1.426721789E0,6.957297850E-1,2.349497535E0
1.321711996E1,1.914080781E0,-1.250722936E0,-1.548763704E-1,2.291724196E0
1.322715496E1,1.968775637E0,-1.040076408E0,-9.897260338E-1,2.436676848E0
1.323718996E1,1.839875083E0,-8.679677081E-1,-1.718990185E0,2.663350431E0
1.324722496E1,1.499103302E0,-6.713328624E-1,-2.161412156E0,2.714719328E0
1.325725996E1,1.016431145E0,-5.257290065E-1,-2.311676828E0,2.579413308E0
1.326729496E1,5.474212995E-1,-4.328073943E-1,-2.255579810E0,2.361065988E0
1.327732996E1,8.921082303E-2,-4.526183456E-1,-1.968603144E0,2.021934785E0
1.328736396E1,-2.667223500E-1,-5.238801169E-1,-1.572536729E0,1.678827851E0
1.329739896E1,-4.297362904E-1,-5.468959272E-1,-1.191630390E0,1.379764988E0
1.330743396E1,-3.290124460E-1,-5.760518986E-1,-8.932610089E-1,1.112654578E0
1.331746896E1,-2.416917354E-2,-6.107188708E-1,-6.731677186E-1,9.092394984E-1
1.332750396E1,2.765898187E-1,-6.194674748E-1,-4.648080361E-1,8.223675520E-1
1.333753896E1,4.669082098E-1,-5.794912308E-1,-1.969055718E-1,7.697955360E-1
1.334757396E1,5.787645681E-1,-5.135229439E-1,1.142136633E-2,7.738247132E-1
1.335760796E1,5.880366442E-1,-4.803861880E-1,1.210332710E-1,7.688998876E-1
1.336764296E1,5.728466012E-1,-4.228145027E-1,9.978916705E-2,7.189459020E-1
1.337767796E1,5.463090129E-1,-3.717086685E-1,-1.262109804E-1,6.727184280E-1
1.338771296E1,4.785112783E-1,-3.616438562E-1,-4.362888265E-1,7.416921614E-1
1.339774796E1,4.058739495E-1,-3.580261838E-1,-7.065260839E-1,8.899974823E-1
1.340778296E1,2.727705637E-1,-3.549178040E-1,-9.324379385E-1,1.034316652E0
1.341781796E1,1.589400391E-1,-3.415586704E-1,-1.084616404E0,1.148179866E0
1.342785296E1,-1.786894485E-2,-3.589640772E-1,-1.118571185E0,1.174894039E0
1.343788696E1,-1.001334219E-1,-3.405225438E-1,-1.080385358E0,1.137196037E0
1.344792196E1,-6.461114824E-2,-3.217407024E-1,-1.033489519E0,1.084339553E0
1.345795696E1,1.192978173E-3,-2.980729276E-1,-9.759517479E-1,1.020456127E0
1.346799196E1,6.434144542E-2,-2.544328183E-1,-9.065628397E-1,9.437860261E-1
1.347802696E1,1.281532793E-1,-2.301744747E-1,-8.699504989E-1,9.089650282E-1
1.348806196E1,1.770507663E-1,-2.553139937E-1,-7.696561325E-1,8.300016696E-1
1.349809696E1,2.098134466E-1,-2.717499322E-1,-5.899407899E-1,6.825685633E-1
1.350813196E1,2.688517597E-1,-2.951002032E-1,-4.096284467E-1,5.719797750E-1
1.351816596E1,3.532561715E-1,-3.437238944E-1,-2.963409823E-1,5.751121769E-1
1.352820096E1,4.919492032E-1,-3.592406505E-1,-2.439516842E-1,6.561861685E-1
1.353823596E1,6.659173174E-1,-3.797497594E-1,-2.728661656E-1,8.137024627E-1
1.354827096E1,7.889776719E-1,-4.390896428E-1,-3.599405622E-1,9.720301896E-1
1.355830596E1,9.311473118E-1,-4.347270352E-1,-5.501294374E-1,1.165617995E0
1.356834096E1,1.133093183E0,-3.545260406E-1,-7.740889066E-1,1.417322303E0
1.357837596E1,1.306926081E0,-2.910463285E-1,-9.095735711E-1,1.618668535E0
1.358841096E1,1.381787983E0,-2.414139926E-1,-8.138131356E-1,1.621699900E0
1.359844496E1,1.246812757E0,-3.433876795E-1,-3.812548327E-1,1.348262733E0
1.360847996E1,9.390419300E-1,-5.610415113E-1,3.956465846E-1,1.163229790E0
1.361851496E1,8.581930639E-1,-6.565651345E-1,1.175300871E0,1.596529125E0
1.362854996E1,1.042678273E0,-5.578623801E-1,1.450747413E0,1.871645392E0
1.363858496E1,1.301809913E0,-1.519457459E-1,1.079331690E0,1.697867326E0
1.364861996E1,1.439967779E0,4.640952605E-1,6.163754672E-1,1.633649390E0
1.365865496E1,1.239586914E0,1.200190129E0,1.998473060E-1,1.736943007E0
1.366868996E1,9.478148000E-1,1.904921703E0,-1.944327843E-1,2.136558845E0
1.367872396E1,4.710898460E-1,2.333572896E0,-3.533548433E-1,2.406729679E0
1.368875896E1,-3.675148992E-1,2.281042680E0,-2.255791479E-1,2.321445425E0
1.369879396E1,-1.246732358E0,1.949998473E0,1.285656542E-1,2.318051929E0
1.370882896E1,-1.983582687E0,1.516109344E0,6.893294227E-1,2.590050747E0
1.371886396E1,-2.646759122E0,1.025816218E0,1.276617916E0,3.112456597E0
1.372889896E1,-3.213979971E0,4.990996170E-1,1.921904356E0,3.777894127E0
1.373893396E1,-3.555751772E0,1.437795246E-1,2.670155586E0,4.449019450E0
1.374896796E1,-3.681466616E0,-3.993355930E-2,3.385765904E0,5.001819858E0
1.375900296E1,-3.687837158E0,-3.163606793E-1,3.968022868E0,5.426364572E0
1.376903796E1,-3.402329312E0,-5.354581887E-1,4.262299783E0,5.479941575E0
1.377907296E1,-2.869748246E0,-7.226187909E-1,4.198247629E0,5.136430284E0
1.378910796E1,-2.242595775E0,-8.751808333E-1,3.758695471E0,4.463515313E0
1.379914296E1,-1.683796964E0,-1.048760692E0,2.895992011E0,3.510247988E0
1.380917796E1,-1.150255492E0,-1.205012913E0,1.861105592E0,2.497770575E0
1.381921296E1,-7.881804040E-1,-1.286372241E0,9.135736513E-1,1.763688949E0
1.382924696E1,-4.517156817E-1,-1.147853456E0,8.488402963E-2,1.236454574E0
1.383928196E1,-2.142451975E-1,-1.042290164E0,-7.037311149E-1,1.275737932E0
1.384931696E1,1.682441287E-1,-9.598274660E-1,-1.297128194E0,1.622379858E0
1.385935196E1,2.625981626E-1,-9.330735308E-1,-1.621803029E0,1.889399130E0
1.386938696E1,-6.804200202E-1,-1.020409883E0,-2.040537930E0,2.380756765E0
1.387942196E1,-3.076027197E-1,-7.922281390E-1,-2.251439981E0,2.406496800E0
1.388945767E1,-4.525369231E-1,-7.411053479E-1,-2.270523539E0,2.430905993E0
1.389949167E1,-7.122635181E-1,-7.400335532E-1,-2.214370973E0,2.440985003E0
1.390952667E1,-8.573665600E-1,-6.893036950E-1,-2.063694658E0,2.338600573E0
1.391956167E1,-1.161289919E0,-7.991904187E-1,-1.677891861E0,2.191488238E0
1.392959667E1,-1.439397529E0,-9.057208407E-1,-1.194614224E0,2.078292239E0
1.393963167E1,-1.702738142E0,-1.056081991E0,-7.897974515E-1,2.153695978E0
1.394966667E1,-1.948551579E0,-1.213209540E0,-3.830183530E-1,2.327108443E0
1.395970167E1,-1.952403579E0,-1.287948650E0,-3.053883791E-2,2.339150290E0
1.396973667E1,-1.697019419E0,-1.329917040E0,6.480761468E-2,2.157024401E0
1.397977067E1,-1.292231736E0,-1.306755050E0,-8.174407482E-3,1.837808053E0
1.398980567E1,-8.437570193E-1,-1.244869289E0,-8.907063603E-2,1.506505570E0
1.399984067E1,-4.578616901E-1,-1.139428203E0,-1.559054804E-1,1.237837015E0
1.400987567E1,-2.856407239E-1,-1.098840340E0,-1.815116072E-1,1.149777013E0
1.401991067E1,-1.854080455E-1,-1.018356341E0,-1.762578839E-1,1.049996486E0
1.402994567E1,-1.374040130E-1,-8.832382965E-1,-1.665287018E-1,9.092422998E-1
1.403998067E1,-1.267376684E-1,-7.933227378E-1,-2.333237851E-1,8.365783834E-1
1.405001467E1,-1.149407646E-1,-6.911443985E-1,-4.147851062E-1,8.142104416E-1
1.406004967E1,-1.948406276E-1,-5.314762348E-1,-6.156492430E-1,8.363335750E-1
1.407008467E1,-3.402097178E-1,-3.755795252E-1,-8.323306829E-1,9.744624146E-1
1.408011967E1,-4.199344566E-1,-1.832610941E-1,-9.832245147E-1,1.084739611E0
1.409015467E1,-5.169187143E-1,-5.281088233E-2,-1.127065435E0,1.241076324E0
1.410018967E1,-5.434997182E-1,1.222711265E-1,-1.270666620E0,1.387420567E0
1.411022467E1,-5.947919324E-1,2.254411536E-1,-1.329342259E0,1.473686533E0
1.412025867E1,-7.075781442E-1,2.625586939E-1,-1.207514352E0,1.423971491E0
1.413029367E1,-7.763245896E-1,3.146626478E-1,-8.938697040E-1,1.225028774E0
1.414032867E1,-8.044116899E-1,3.942298043E-1,-5.721594071E-1,1.062949525E0
1.415036367E1,-8.502912828E-1,3.688072801E-1,-3.935573745E-1,1.006926751E0
1.416039867E1,-8.674353191E-1,3.304840440E-1,-3.371872920E-1,9.876026560E-1
1.417043367E1,-7.686904648E-1,3.910290384E-1,-2.958837301E-1,9.117762452E-1
1.418046867E1,-6.159981756E-1,4.316525692E-1,-2.846032816E-1,8.042242975E-1
1.419050267E1,-4.973761502E-1,4.032450414E-1,-3.008129328E-1,7.074447107E-1
1.420053767E1,-2.750692503E-1,4.362116432E-1,-3.066899693E-1,6.000020228E-1
1.421057267E1,-8.820524812E-2,4.517161202E-1,-2.207832617E-1,5.104633853E-1
1.422060767E1,1.063922815E-1,5.160805160E-1,-1.160274696E-1,5.395561048E-1
1.423064267E1,3.349052699E-1,6.204457140E-1,-5.716354966E-2,7.073769117E-1
1.424067767E1,4.495916806E-1,6.467546761E-1,2.631831765E-2,7.881097285E-1
1.425071267E1,5.977164173E-1,6.321910161E-1,8.820407867E-2,8.744771900E-1
1.426074667E1,5.747972323E-1,5.216669458E-1,3.647177374E-1,8.576405358E-1
1.427078167E1,5.190159644E-1,5.049579424E-1,9.257715279E-1,1.175335278E0
1.428081667E1,6.451879147E-1,6.116608572E-1,1.475431434E0,1.722583631E0
1.429085167E1,1.027056559E0,9.719458205E-1,1.738982400E0,2.241335236E0
1.430088667E1,1.451491910E0,1.263849351E0,1.612218273E0,2.510655633E0
1.431092167E1,1.808625078E0,1.398442315E0,1.148873795E0,2.558647412E0
1.432095667E1,2.198920875E0,1.878582335E0,5.792474020E-1,2.949551179E0
1.433099067E1,2.624023978E0,2.478625944E0,1.085009336E-2,3.609599165E0
1.434102567E1,1.860766161E0,2.524956357E0,-5.044468957E-1,3.176841511E0
1.435106067E1,1.410161158E0,2.665204164E0,-5.314686334E-1,3.061752217E0
1.436109567E1,9.694863354E-1,2.696888471E0,2.138034403E-1,2.873816816E0
1.437113067E1,6.266928792E-2,2.128338550E0,1.082764590E0,2.388751051E0
1.438116567E1,-6.717839751E-1,1.334525231E0,1.993572509E0,2.491301397E0
1.439120067E1,-1.139382010E0,5.267060763E-1,2.778767032E0,3.049123952E0
1.440123467E1,-1.090998786E0,-9.654220819E-2,3.088210455E0,3.276681639E0
1.441126967E1,-6.225061266E-1,-5.743018270E-1,2.760071145E0,2.887097018E0
1.442130467E1,-7.116573080E-2,-9.347493428E-1,1.921320804E0,2.137824718E0
1.443133967E1,4.574282652E-1,-1.191129284E0,1.163530426E0,1.726798379E0
1.444137467E1,1.032959323E0,-1.199394908E0,7.650964737E-1,1.758102876E0
1.445140967E1,1.464655893E0,-1.172181966E0,4.927869630E-1,1.939604711E0
1.446144467E1,1.730980778E0,-1.250968519E0,3.257390285E-1,2.160398714E0
1.447147967E1,1.889597320E0,-1.344730377E0,2.693122280E-1,2.334824810E0
1.448151367E1,2.082310877E0,-1.425406165E0,1.462423718E-1,2.527684346E0
1.449154867E1,2.279187066E0,-1.474936759E0,-1.033705866E-1,2.716766020E0
1.450158367E1,2.505098628E0,-1.437077208E0,-4.883337235E-1,2.929023705E0
1.451161867E1,2.735711352E0,-1.272490951E0,-8.851754791E-1,3.144341815E0
1.452165367E1,2.856152008E0,-1.069879081E0,-1.277637085E0,3.306750983E0
1.453168867E1,2.878485448E0,-8.409974259E-1,-1.538729882E0,3.370555562E0
1.454172267E1,2.714133664E0,-6.388474864E-1,-1.555682130E0,3.192928835E0
1.455175767E1,2.480050618E0,-4.328535873E-1,-1.325073792E0,2.844966406E0
1.456179267E1,2.224151172E0,-2.604642212E-1,-1.024194785E0,2.462451016E0
1.457182767E1,1.980206066E0,-1.304145437E-1,-7.705150884E-1,2.128830082E0
1.458186267E1,1.700650393E0,-1.300467539E-1,-5.745509183E-1,1.799786842E0
1.459189767E1,1.566410601E0,-1.009995407E-1,-4.784975374E-1,1.640976225E0
1.460193267E1,1.458464422E0,-1.123273516E-1,-3.462241638E-1,1.503198948E0
1.461196667E1,1.314084973E0,-1.781868804E-1,-1.507862431E-1,1.334655900E0
1.462200167E1,1.151001012E0,-2.222520822E-1,1.245082712E-1,1.178856068E0
1.463203667E1,9.475714096E-1,-3.092340928E-1,4.174929518E-1,1.080656127E0
1.464207167E1,7.266124392E-1,-4.977933490E-1,6.656499535E-1,1.104017081E0
1.465210667E1,6.068110304E-1,-6.485643893E-1,8.044564211E-1,1.198334481E0
1.466214167E1,6.174474080E-1,-7.470484579E-1,7.827047789E-1,1.245772640E0
1.467217667E1,7.141268796E-1,-7.973643333E-1,5.968276405E-1,1.225548984E0
1.468221067E1,8.496635842E-1,-8.191148061E-1,2.532657140E-1,1.207071164E0
1.469224567E1,1.014760157E0,-7.881573075E-1,-9.487926006E-2,1.288383557E0
1.470228067E1,1.169208072E0,-7.365778488E-1,-4.204364401E-1,1.444424191E0
1.471231567E1,1.306649069E0,-6.873203194E-1,-6.502039486E-1,1.613228498E0
1.472235067E1,1.383379449E0,-6.145692623E-1,-7.690006596E-1,1.697879881E0
1.473238567E1,1.357014061E0,-5.326521099E-1,-7.331016791E-1,1.631760860E0
1.474242067E1,1.278240518E0,-4.726438898E-1,-6.461898351E-1,1.508261374E0
1.475245467E1,1.217505489E0,-4.032011873E-1,-5.670395851E-1,1.402292660E0
1.476248967E1,1.175191090E0,-3.440256107E-1,-5.528507316E-1,1.343529549E0
1.477252467E1,1.115217807E0,-2.615845478E-1,-4.901744270E-1,1.245956741E0
1.478255967E1,1.065032032E0,-1.752504086E-1,-4.028702348E-1,1.152089563E0
1.479259467E1,1.024427212E0,-1.086629015E-1,-2.255347091E-1,1.054573205E0
1.480262967E1,9.839788055E-1,2.546462417E-3,-7.541154027E-3,9.840109975E-1
1.481266467E1,9.264215921E-1,9.222111583E-2,1.696318191E-1,9.463279847E-1
1.482269867E1,9.279744664E-1,2.423916471E-1,3.057012051E-1,1.006649665E0
1.483273367E1,8.844208959E-1,3.635471249E-1,5.010712981E-1,1.079555130E0
1.484276867E1,7.538522780E-1,3.357898074E-1,7.682609868E-1,1.127507426E0
1.485280367E1,6.435387075E-1,3.005878150E-1,1.101692612E0,1.310809564E0
1.486283867E1,4.631936198E-1,2.753582489E-1,1.360044819E0,1.462905467E0
1.487287367E1,2.951059042E-1,2.445387447E-1,1.420212668E0,1.471016898E0
1.488290767E1,1.138729168E-1,1.718005514E-1,1.473902387E0,1.488244173E0
1.489294221E1,2.367873833E-2,1.965594167E-1,1.426268045E0,1.439943340E0
1.490297721E1,1.069558069E-1,2.739794755E-1,1.172577823E0,1.208901587E0
1.491301221E1,3.135871987E-1,3.820623332E-1,7.867300022E-1,9.291139080E-1
1.492304721E1,5.594579391E-1,5.822119403E-1,3.287895209E-1,8.718179157E-1
1.493308221E1,8.842719381E-1,9.105021089E-1,-5.042463362E-2,1.270233677E0
1.494311621E1,1.067001374E0,1.197479360E0,-3.186451864E-1,1.635231942E0
1.495315121E1,1.063906004E0,1.346030797E0,-5.805565935E-1,1.811281550E0
1.496318621E1,1.007649796E0,1.510815275E0,-7.877351385E-1,1.979506897E0
1.497322121E1,7.293043511E-1,1.474534471E0,-7.659700477E-1,1.814620306E0
1.498325621E1,8.614585876E-2,1.129662184E0,-1.947403479E-1,1.149557115E0
1.499329121E1,-4.181693284E-1,8.002271301E-1,6.224706048E-1,1.096676206E0
1.500332621E1,-9.883754732E-1,3.654404533E-1,1.506887115E0,1.838788073E0
1.501336021E1,-1.577344748E0,-1.132149589E-1,2.411804549E0,2.884031079E0
1.502339521E1,-1.833564329E0,-4.687402886E-1,2.885828966E0,3.451041064E0
1.503343021E1,-1.756762321E0,-7.991687840E-1,2.857174686E0,3.447946024E0
1.504346521E1,-1.375802481E0,-9.662898088E-1,2.448042668E0,2.969757795E0
1.505350021E1,-7.835252894E-1,-1.037049304E0,1.808881186E0,2.227427728E0
1.506353521E1,-8.286513224E-2,-9.542492223E-1,1.099878806E0,1.458489491E0
1.507357021E1,5.013964033E-1,-8.385299009E-1,4.338072681E-1,1.068980586E0
1.508360421E1,9.256953679E-1,-6.909052473E-1,-1.248550111E-1,1.161830775E0
1.509363921E1,1.236146559E0,-4.687309331E-1,-5.328281111E-1,1.425367601E0
1.510367421E1,1.537933345E0,-2.313415790E-1,-8.430591542E-1,1.769041163E0
1.511370921E1,1.833589619E0,9.177789688E-3,-1.041180362E0,2.108599456E0
1.512374421E1,1.980768861E0,2.045040286E-1,-1.172201847E0,2.310697805E0
1.513377921E1,1.914191148E0,3.187931210E-1,-1.141554251E0,2.251422419E0
1.514381321E1,1.702321528E0,3.580805629E-1,-9.287460065E-1,1.971976018E0
1.515384821E1,1.330563012E0,3.297402781E-1,-6.164234143E-1,1.503031738E0
1.516388321E1,1.044402324E0,3.032097065E-1,-2.976881808E-1,1.127532968E0
1.517391821E1,8.486505541E-1,2.723808467E-1,-1.167794216E-1,8.989085170E-1
1.518395321E1,6.922613628E-1,2.006027663E-1,-1.406138420E-2,7.208779278E-1
1.519398821E1,5.971357888E-1,1.427609396E-1,2.351960635E-1,6.574716910E-1
1.520402221E1,5.314768195E-1,7.612197697E-2,5.842344922E-1,7.934684032E-1
1.521405721E1,4.226333852E-1,-6.674479723E-2,1.040248901E0,1.124807371E0
1.522409221E1,3.910072576E-1,-2.376530635E-1,1.444949899E0,1.515666805E0
1.523412721E1,3.876771221E-1,-3.942081696E-1,1.792651069E0,1.875977475E0
1.524416221E1,4.551659775E-1,-5.333643007E-1,2.014795563E0,2.133320113E0
1.525419721E1,6.029012896E-1,-5.955155253E-1,2.021650254E0,2.192076288E0
1.526423221E1,7.890804367E-1,-6.227080017E-1,1.843114879E0,2.099401260E0
1.527426621E1,9.261629990E-1,-6.141552794E-1,1.538903545E0,1.898206714E0
1.528430121E1,1.000614719E0,-5.863435829E-1,1.126496501E0,1.616794044E0
1.529433621E1,9.805875666E-1,-6.003745615E-1,6.959227431E-1,1.343990348E0
1.530437121E1,9.401974860E-1,-6.223279327E-1,2.489656717E-1,1.154663273E0
1.531440621E1,9.155324686E-1,-6.064194131E-1,-1.659018803E-1,1.110615883E0
1.532444121E1,8.901992606E-1,-5.990677088E-1,-4.509056962E-1,1.163895524E0
1.533447521E1,8.370616651E-1,-6.296737897E-1,-5.037341201E-1,1.162286271E0
1.534451021E1,6.672702169E-1,-7.337454575E-1,-4.408069700E-1,1.085330698E0
1.535454521E1,5.639405608E-1,-8.481783915E-1,-3.632313752E-1,1.081375315E0
1.536458021E1,5.975867553E-1,-8.962986374E-1,-2.322455585E-1,1.101997812E0
1.537461521E1,6.180628274E-1,-9.532236207E-1,-1.086453599E-1,1.141245260E0
1.538465021E1,6.307559632E-1,-9.802161223E-1,9.856066704E-3,1.165664563E0
1.539468421E1,6.697089444E-1,-9.385319066E-1,1.724016452E-1,1.165793523E0
1.540471921E1,7.622507800E-1,-8.971295267E-1,3.290836358E-1,1.222359881E0
1.541475421E1,8.838924538E-1,-8.552593696E-1,5.457375938E-1,1.345571990E0
1.542478921E1,1.036503905E0,-7.622927338E-1,7.938823164E-1,1.511846450E0
1.543482421E1,1.208275221E0,-6.402075487E-1,1.009411855E0,1.699619665E0
1.544485921E1,1.318367912E0,-5.402938360E-1,1.231538222E0,1.883267844E0
1.545489321E1,1.430865564E0,-4.638046539E-1,1.433641384E0,2.077936148E0
1.546492821E1,1.590476864E0,-3.399354833E-1,1.626955596E0,2.300468930E0
1.547496321E1,1.675991954E0,-2.138250750E-1,1.807822840E0,2.474448143E0
1.548499821E1,1.551823991E0,-1.839382017E-1,2.111365837E0,2.626757823E0
1.549503321E1,1.181520701E0,-2.065242416E-1,2.598955210E0,2.862378664E0
1.550506821E1,7.906599158E-1,-1.770846802E-1,3.045987711E0,3.151911043E0
1.551510221E1,4.861063729E-1,-2.021674812E-1,3.225890749E0,3.268568834E0
1.552513721E1,3.144914706E-1,-3.310395294E-1,3.053033021E0,3.086989259E0
1.553517221E1,2.240805066E-1,-5.031260097E-1,2.599189684E0,2.656903248E0
1.554520721E1,4.757484689E-2,-7.700794709E-1,2.174865430E0,2.307666656E0
1.555524221E1,-1.840528071E-1,-1.065100737E0,1.985144332E0,2.260334717E0
1.556527721E1,-3.299335286E-1,-1.281864038E0,1.904937490E0,2.319659110E0
1.557531221E1,-3.348218009E-1,-1.474650831E0,1.865998542E0,2.401801672E0
1.558534621E1,-1.287463331E-1,-1.533091997E0,1.712402712E0,2.302014278E0
1.559538121E1,3.700840196E-1,-1.476885636E0,1.461514476E0,2.110492343E0
1.560541621E1,9.354358059E-1,-1.381242145E0,1.212948169E0,2.062550187E0
1.561545121E1,1.445866450E0,-1.207813144E0,1.198281013E0,2.232760571E0
1.562548621E1,1.795139937E0,-1.018735240E0,1.356570404E0,2.469945777E0
1.563552121E1,1.991455817E0,-8.871337116E-1,1.509565140E0,2.651733283E0
1.564555521E1,2.179033325E0,-6.422429645E-1,1.626655633E0,2.794042020E0
1.565559021E1,2.254752429E0,-4.648308402E-1,1.629445925E0,2.820473409E0
1.566562521E1,2.307326207E0,-3.266219580E-1,1.505363331E0,2.774266549E0
1.567566021E1,2.206616396E0,-1.974090171E-1,1.470299917E0,2.658929876E0
1.568569521E1,2.109327206E0,1.093955576E-2,1.480424956E0,2.577021340E0
1.569573021E1,1.963906368E0,1.287328845E-1,1.489199288E0,2.468038674E0
1.570576421E1,1.786807947E0,1.405179477E-1,1.439186298E0,2.298626793E0
1.571579921E1,1.672146387E0,1.369844753E-1,1.372867763E0,2.167857048E0
1.572583421E1,1.577570305E0,1.295497406E-1,1.344323995E0,2.076708503E0
1.573586921E1,1.479501973E0,5.954921365E-2,1.307256156E0,1.975193878E0
1.574590421E1,1.400071642E0,1.837429047E-2,1.150861264E0,1.812462376E0
1.575593921E1,1.335182458E0,-8.695745230E-2,1.016213921E0,1.680168006E0
1.576597321E1,1.232081428E0,-2.624920356E-1,9.326823521E-1,1.567425623E0
1.577600821E1,1.281374626E0,-3.567731255E-1,8.574719560E-1,1.582550520E0
1.578604321E1,1.517365910E0,-4.655705130E-1,7.131486404E-1,1.740039135E0
1.579607821E1,1.896310216E0,-5.885210860E-1,4.548087126E-1,2.036958632E0
1.580611321E1,2.380611700E0,-4.876355660E-1,3.412332729E-1,2.453882771E0
1.581614721E1,2.668949890E0,-3.515205717E-1,3.336675605E-1,2.712599172E0
1.582618221E1,2.625092849E0,-4.958596748E-1,3.215109068E-1,2.690791435E0
1.583621721E1,2.699645726E0,-4.174093366E-1,4.859369498E-1,2.774608498E0
1.584625221E1,2.695635121E0,-3.148953670E-1,6.411834490E-1,2.788677825E0
1.585628721E1,2.594263989E0,-3.532478392E-1,7.824504250E-1,2.732621150E0
1.586632221E1,2.522334466E0,-4.092208958E-1,8.941468620E-1,2.707236877E0
1.587635721E1,2.506201998E0,-4.132472885E-1,9.133865404E-1,2.699277079E0
1.588639121E1,2.496040414E0,-4.492655522E-1,8.534093106E-1,2.675885786E0
1.589642667E1,2.484567592E0,-4.820421195E-1,7.282449818E-1,2.633587189E0
1.590646167E1,2.472742768E0,-5.195923537E-1,5.462644279E-1,2.585118534E0
1.591649667E1,2.416669578E0,-5.762191290E-1,3.618221962E-1,2.510624551E0
1.592653167E1,2.341352617E0,-6.129355502E-1,2.387137485E-1,2.431996365E0
1.593656567E1,2.128558552E0,-7.294571096E-1,2.441458118E-1,2.263288837E0
1.594660067E1,2.068290277E0,-6.933394432E-1,1.470457792E-1,2.186359237E0
1.595663567E1,1.931933646E0,-7.675979125E-1,1.217799604E-1,2.082403546E0
1.596667067E1,1.713672727E0,-8.431813610E-1,1.886469644E-1,1.919170837E0
1.597670567E1,1.573454303E0,-8.831271994E-1,2.700326049E-1,1.824442299E0
1.598674067E1,1.382619311E0,-9.652490044E-1,3.434701252E-1,1.720846747E0
1.599677467E1,1.248802857E0,-1.043327460E0,3.764221090E-1,1.670249792E0
1.600680967E1,1.306478915E0,-1.165895625E0,2.550613940E-1,1.769535554E0
1.601684467E1,1.447031654E0,-1.344904624E0,-7.472800076E-2,1.976930279E0
1.602687967E1,1.656536075E0,-1.543533370E0,-4.747243291E-1,2.313432562E0
1.603691467E1,1.884923056E0,-1.632078341E0,-8.261033982E-1,2.626606454E0
1.604694967E1,2.053971907E0,-1.701031047E0,-1.083136473E0,2.878453029E0
1.605698367E1,2.136211095E0,-1.692981185E0,-1.164888149E0,2.964211116E0
1.606701867E1,2.152668230E0,-1.555085129E0,-1.256417540E0,2.937831735E0
1.607705367E1,1.936128293E0,-1.453938823E0,-1.219163175E0,2.710883567E0
1.608708867E1,1.655556374E0,-1.346422561E0,-1.140543852E0,2.419619990E0
1.609712367E1,1.470309419E0,-1.138395585E0,-1.063224365E0,2.142008484E0
1.610715867E1,1.313677422E0,-1.004421256E0,-9.592848444E-1,1.911763019E0
1.611719267E1,1.188672430E0,-8.404881334E-1,-7.590276486E-1,1.641793355E0
1.612722767E1,9.854689685E-1,-6.096950233E-1,-4.514816469E-1,1.243669082E0
1.613726267E1,8.071416087E-1,-3.218903911E-1,-7.455433846E-2,8.721521369E-1
1.614729767E1,5.511048992E-1,-1.860619104E-1,2.628621644E-1,6.383041296E-1
1.615733267E1,3.819114751E-1,-1.064777970E-2,5.521946740E-1,6.714824704E-1
1.616736767E1,2.057161564E-1,1.920447814E-1,6.970781529E-1,7.517434977E-1
1.617740167E1,1.994879946E-2,3.411949736E-1,7.682492924E-1,8.408441829E-1
1.618743667E1,-1.237593891E-1,4.813550717E-1,8.751597834E-1,1.006441125E0
1.619747167E1,-2.132266125E-1,6.175004715E-1,1.039996886E0,1.228155504E0
1.620750667E1,-2.138490486E-1,7.007209682E-1,1.189100300E0,1.396674914E0
1.621754167E1,-1.124292393E-1,8.119724321E-1,1.345370647E0,1.575424305E0
1.622757567E1,1.203586484E-1,1.057202902E0,1.360097444E0,1.726855303E0
1.623761067E1,2.560416797E-1,1.349145609E0,1.294543725E0,1.887218766E0
1.624764567E1,2.531319590E-1,1.538709417E0,1.210294703E0,1.973959403E0
1.625768067E1,2.321240826E-1,1.730708005E0,1.156154163E0,2.094259831E0
