"Time (s)","Linear Acceleration x (m/s^2)","Linear Acceleration y (m/s^2)","Linear Acceleration z (m/s^2)","Absolute acceleration (m/s^2)"
1.199483333E-2,-3.872002816E-1,-1.994017482E-2,-6.249299437E-1,7.354312362E-1
2.202883334E-2,-4.274823350E-1,1.130822271E-1,-8.735868824E-1,9.791234742E-1
3.206283333E-2,-5.064542449E-1,1.417891324E-1,-8.378943086E-1,9.892759638E-1
4.209683333E-2,-6.402812237E-1,8.351519644E-2,-7.663419306E-1,1.002105178E0
5.213083333E-2,-7.272065163E-1,-1.323546499E-2,-7.095830083E-1,1.016126242E0
6.216583333E-2,-7.696660727E-1,-1.425206190E-1,-7.134684831E-1,1.059120044E0
7.219983333E-2,-8.157111418E-1,-2.543898413E-1,-7.814236540E-1,1.157895412E0
8.223383334E-2,-8.044453114E-1,-3.253212449E-1,-8.563580614E-1,1.219145316E0
9.226783333E-2,-7.907815379E-1,-3.866053274E-1,-9.075627136E-1,1.264305817E0
1.023018333E-1,-7.838666207E-1,-4.511895785E-1,-8.128682256E-1,1.216048382E0
1.123368333E-1,-7.233865303E-1,-5.035435009E-1,-6.495894063E-1,1.094902062E0
1.223708333E-1,-6.180501097E-1,-4.419655958E-1,-5.998582524E-1,9.680647959E-1
1.324048333E-1,-5.417573941E-1,-3.366356072E-1,-5.868844503E-1,8.667513854E-1
1.424388333E-1,-4.577334899E-1,-1.860569403E-1,-6.854790312E-1,8.449962337E-1
1.524728333E-1,-3.691604519E-1,-5.942379087E-2,-8.363348562E-1,9.161149588E-1
1.625078333E-1,-3.609965694E-1,3.154748261E-2,-9.364403576E-1,1.004108714E0
1.725418333E-1,-4.127409196E-1,9.404193878E-2,-9.994733423E-1,1.085424302E0
1.825758333E-1,-4.884991997E-1,8.359559566E-2,-9.671154356E-1,1.086706933E0
1.926098333E-1,-5.793894893E-1,3.562942386E-2,-8.694879842E-1,1.045452529E0
2.026438333E-1,-6.280488485E-1,-5.015332282E-2,-7.766926718E-1,1.000106104E0
2.126788333E-1,-7.183900845E-1,-1.219235095E-1,-7.092087865E-1,1.016821891E0
2.227128333E-1,-7.969626296E-1,-1.651765332E-1,-8.023040611E-1,1.142858052E0
2.327468333E-1,-9.171696889E-1,-2.095381889E-1,-9.391908878E-1,1.329355488E0
2.427808333E-1,-1.054588028E0,-2.058749083E-1,-1.031958718E0,1.489791657E0
2.528148333E-1,-1.136935535E0,-2.213992658E-1,-1.105094522E0,1.600897857E0
2.628488333E-1,-1.107250391E0,-2.385602590E-1,-1.183615612E0,1.638249169E0
2.728838333E-1,-1.139640457E0,-2.793773326E-1,-1.269888940E0,1.729002598E0
2.829178333E-1,-1.234347224E0,-2.827655017E-1,-1.347906584E0,1.849438174E0
2.929518333E-1,-1.191834458E0,-2.946142995E-1,-1.488526273E0,1.929501860E0
3.029858333E-1,-1.230851759E0,-3.148322171E-1,-1.613150904E0,2.053380436E0
3.130198333E-1,-1.271225613E0,-2.990792334E-1,-1.511883561E0,1.997812516E0
3.230548333E-1,-1.219290644E0,-3.020326620E-1,-1.373693975E0,1.861431852E0
3.330888333E-1,-1.186377252E0,-3.136534184E-1,-1.439191561E0,1.891333339E0
3.431228333E-1,-1.276841864E0,-2.607776320E-1,-1.568196341E0,2.039011987E0
3.531568333E-1,-1.369268802E0,-1.948836046E-1,-1.734426250E0,2.218357746E0
3.631908333E-1,-1.360999669E0,-1.257037345E-1,-1.815823000E0,2.272737270E0
3.732258333E-1,-1.294696337E0,-8.325148702E-2,-1.921950549E0,2.318849570E0
3.832598333E-1,-1.304535447E0,-7.583049327E-2,-1.932297197E0,2.332667026E0
3.932938333E-1,-1.260104794E0,-1.108123380E-1,-1.810081034E0,2.208288210E0
4.033278333E-1,-1.160939525E0,-1.294801587E-1,-1.779611778E0,2.128746996E0
4.133618333E-1,-1.097904786E0,-1.239527857E-1,-1.627416941E0,1.967039682E0
4.233968333E-1,-1.032305458E0,-2.309191176E-1,-1.372877119E0,1.733138708E0
4.334308333E-1,-1.152243546E0,-3.508393711E-1,-1.316188948E0,1.784126340E0
4.434648333E-1,-1.261188283E0,-3.490597710E-1,-1.335069607E0,1.869451648E0
4.534988333E-1,-1.237153303E0,-3.343467146E-1,-1.370237101E0,1.876135851E0
4.635328333E-1,-1.099874128E0,-3.186954725E-1,-1.373151938E0,1.787969839E0
4.735678333E-1,-9.682392704E-1,-2.250482208E-1,-1.357251019E0,1.682338942E0
4.836018333E-1,-8.653534180E-1,-1.188332561E-1,-1.385551543E0,1.637898336E0
4.936358333E-1,-7.197963399E-1,-2.401743829E-2,-1.363306981E0,1.541846144E0
5.036698333E-1,-6.751218581E-1,5.601632595E-2,-1.344440355E0,1.505472424E0
5.137038333E-1,-5.169973594E-1,1.095908546E-1,-1.213511256E0,1.323595857E0
5.237388333E-1,-3.512264568E-1,9.257136405E-2,-1.137608550E0,1.194187043E0
5.337728333E-1,-3.312225473E-1,8.202006340E-2,-1.196921536E0,1.244611116E0
5.438068333E-1,-3.756795126E-1,1.253479314E-1,-1.349216945E0,1.406141375E0
5.538408333E-1,-4.426801255E-1,8.901625693E-2,-1.594374910E0,1.657082056E0
5.638748333E-1,-4.911184600E-1,3.284614921E-2,-1.749962887E0,1.817868619E0
5.739088333E-1,-5.970103660E-1,1.590325713E-2,-1.507507505E0,1.621497199E0
5.839438333E-1,-3.619017184E-1,1.234230280E-1,-3.442963368E-1,5.145348046E-1
5.939778333E-1,2.558162695E-1,1.453006777E-1,8.482152289E-1,8.977880180E-1
6.040118333E-1,3.467743868E-1,1.589305374E-1,1.209933929E0,1.268641598E0
6.140458333E-1,5.120669872E-2,3.433718920E-1,1.087533579E0,1.141602237E0
6.240808333E-1,-1.716184106E-1,5.156726727E-1,6.248597771E-1,8.281430585E-1
6.341148333E-1,-2.722723809E-1,5.107279748E-1,5.855460227E-2,5.817249823E-1
6.441488333E-1,-2.752638164E-1,5.393734843E-1,-2.199757612E-1,6.442695551E-1
6.541828333E-1,-1.781529665E-1,5.450774431E-1,-1.183417976E-2,5.735747085E-1
6.642168333E-1,2.522371888E-2,4.026109108E-1,3.402155650E-1,5.277105382E-1
6.742508333E-1,3.095729390E-1,4.080499908E-1,1.011268930E0,1.133580632E0
6.842858333E-1,6.632482097E-1,3.581346497E-1,1.585346224E0,1.755414842E0
6.943198333E-1,8.369581693E-1,3.615704736E-1,1.892298149E0,2.100481961E0
7.043538333E-1,8.311857980E-1,4.934555921E-1,1.955773183E0,2.181608809E0
7.143878333E-1,8.152571055E-1,5.879980525E-1,1.820251681E0,2.079351351E0
7.244218333E-1,9.074954706E-1,6.237441283E-1,1.564635971E0,1.913293101E0
7.344568333E-1,9.438797700E-1,6.421350834E-1,1.300790305E0,1.730694053E0
7.444908333E-1,9.731667191E-1,6.336803019E-1,1.115385622E0,1.610182994E0
7.545248333E-1,9.941786885E-1,5.278693798E-1,8.593570983E-1,1.416168058E0
7.645588333E-1,9.412815598E-1,4.621118850E-1,5.792450631E-1,1.197949587E0
7.745928333E-1,9.339973909E-1,4.945183235E-1,4.883033180E-1,1.164190547E0
7.846278333E-1,1.149725150E0,5.354970726E-1,4.748751873E-1,1.354301103E0
7.946618333E-1,1.348060074E0,5.226732516E-1,3.706193322E-1,1.492585669E0
8.046958333E-1,1.366230296E0,5.995597520E-1,1.660229176E-1,1.501206424E0
8.147298333E-1,1.323196251E0,6.835146591E-1,-1.641787058E-1,1.498330823E0
8.247638333E-1,1.287274759E0,7.274772424E-1,-5.479840940E-1,1.576891248E0
8.347988333E-1,1.284799632E0,8.038263837E-1,-7.458106023E-1,1.689106392E0
8.448328333E-1,1.276350113E0,8.369575846E-1,-8.424030966E-1,1.743333183E0
8.548668333E-1,1.237726476E0,7.462672698E-1,-9.455240071E-1,1.727106631E0
8.649008333E-1,1.166186378E0,6.123055127E-1,-9.938529986E-1,1.650046209E0
8.749348333E-1,1.127552070E0,4.631032804E-1,-9.298271567E-1,1.533106930E0
8.849688333E-1,1.111795285E0,3.020075190E-1,-8.054522020E-1,1.405720651E0
8.950038333E-1,1.130082452E0,2.121697283E-1,-6.948439318E-1,1.343469550E0
9.050378333E-1,1.084934492E0,1.371870813E-1,-5.427935207E-1,1.220871801E0
9.150720833E-1,1.028584436E0,8.936241210E-2,-4.099213922E-1,1.110858736E0
9.251060833E-1,1.025093064E0,2.851540893E-2,-3.592424047E-1,1.086592851E0
9.351400833E-1,9.638013799E-1,-2.890863419E-3,-4.565915287E-1,1.066488294E0
9.451750833E-1,7.912208100E-1,5.974801898E-2,-6.546215200E-1,1.028654233E0
9.552090833E-1,7.080383201E-1,1.304867569E-1,-7.937256110E-1,1.071608791E0
9.652430833E-1,7.792134064E-1,1.976464140E-1,-9.094069254E-1,1.213778643E0
9.752770833E-1,8.191884810E-1,4.681429955E-1,-9.580347097E-1,1.344640523E0
9.853110833E-1,8.981247228E-1,8.145177251E-1,-8.521194148E-1,1.481949608E0
9.953460833E-1,9.682772774E-1,1.038162322E0,-8.431515402E-1,1.651134886E0
1.005380083E0,8.914363852E-1,1.108072217E0,-8.692500025E-1,1.666756861E0
1.015414083E0,7.263545769E-1,1.171585550E0,-8.354794085E-1,1.611902452E0
1.025448083E0,4.952821161E-1,1.255802413E0,-8.719853300E-1,1.607078869E0
1.035482083E0,3.487555696E-1,1.271326478E0,-9.795811146E-1,1.642400871E0
1.045517083E0,1.919519569E-1,1.275353163E0,-9.444083583E-1,1.598523816E0
1.055551083E0,5.525238723E-2,1.368957145E0,-7.856161076E-1,1.579331871E0
1.065585083E0,-1.754809351E-1,1.417146681E0,-5.815810257E-1,1.541860812E0
1.075619083E0,-3.673964931E-1,1.440700142E0,-4.102184308E-1,1.542360608E0
1.085653083E0,-6.286421947E-1,1.497838549E0,-2.303329343E-1,1.640659803E0
1.095687083E0,-6.259385884E-1,1.607307782E0,-6.757802546E-2,1.726210940E0
1.105722083E0,-6.560907792E-1,1.650062038E0,-1.665579379E-2,1.775792008E0
1.115756083E0,-6.799493194E-1,1.646457229E0,-3.703450978E-2,1.781719405E0
1.125790083E0,-7.321594003E-1,1.562174001E0,-3.915587962E-2,1.725681946E0
1.135824083E0,-8.115049472E-1,1.459213597E0,1.991561651E-2,1.669802752E0
1.145858083E0,-9.036998968E-1,1.316030780E0,2.570377529E-2,1.596643731E0
1.155893083E0,-9.310050783E-1,1.169141414E0,5.945331931E-2,1.495726178E0
1.165927083E0,-9.636106145E-1,1.012981580E0,5.170049608E-2,1.399053265E0
1.175961083E0,-1.140939416E0,8.569354740E-1,3.281925201E-2,1.427290531E0
1.185995083E0,-1.133174021E0,7.495960897E-1,-5.292899609E-3,1.358677914E0
1.196029083E0,-9.225564364E-1,6.676464853E-1,9.504298210E-2,1.142757794E0
1.206064083E0,-5.165898085E-1,6.348412666E-1,2.853505558E-1,8.667833660E-1
1.216098083E0,3.865740448E-2,6.713033339E-1,3.940543878E-1,7.793724537E-1
1.226132083E0,1.987491989E-1,6.500337946E-1,3.305928022E-1,7.558682287E-1
1.236166083E0,1.290001023E-1,4.223961344E-1,1.530801058E-1,4.674323904E-1
1.246200083E0,1.508593333E-1,-1.704229474E-2,-2.896944523E-2,1.545581024E-1
1.256234083E0,4.159124494E-2,-5.478548706E-1,-4.129888415E-3,5.494468553E-1
1.266269083E0,-2.156292334E-1,-9.538612595E-1,1.614118034E-1,9.911614596E-1
1.276303083E0,-6.197048718E-1,-1.182704908E0,1.831511664E-1,1.347727486E0
1.286337083E0,-8.959578909E-1,-1.272513463E0,-1.294789892E-1,1.561664453E0
1.296371083E0,-9.202030782E-1,-1.063594786E0,-5.798338777E-1,1.521254384E0
1.306405083E0,-8.001888308E-1,-6.565414533E-1,-1.076714476E0,1.493540394E0
1.316440083E0,-4.804301883E-1,-1.982931161E-1,-1.270261992E0,1.372479091E0
1.326474083E0,6.232123241E-2,6.995521098E-2,-1.065153946E0,1.069266383E0
1.336508083E0,6.510991573E-1,1.065008935E-1,-3.653170770E-1,7.541413129E-1
1.346542083E0,1.101669954E0,-1.384910104E-1,7.021348250E-1,1.313716012E0
1.356576083E0,1.361053171E0,-5.988750431E-1,1.970321640E0,2.468457903E0
1.366611083E0,1.411938566E0,-1.106647835E0,3.184840372E0,3.655331467E0
1.376645083E0,1.536501508E0,-1.742563528E0,4.189793724E0,4.790797009E0
1.386679083E0,1.266121871E0,-2.176049199E0,4.510174364E0,5.165261611E0
1.396713083E0,8.768312100E-1,-2.297037739E0,4.331415626E0,4.980600031E0
1.406747083E0,6.622842962E-1,-2.284610359E0,3.621513945E0,4.332831434E0
1.416781083E0,6.889468686E-1,-2.232382736E0,2.544322336E0,3.454237487E0
1.426816083E0,7.350824234E-1,-1.983967288E0,1.719994737E0,2.726692917E0
1.436850083E0,8.375452298E-1,-1.730924937E0,1.265805829E0,2.302139776E0
1.446884083E0,9.477001946E-1,-1.624042513E0,9.311591524E-1,2.098262879E0
1.456918083E0,1.038581275E0,-1.653324784E0,6.210912466E-1,2.048874872E0
1.466952083E0,1.015911766E0,-1.791430755E0,4.013271546E-1,2.098181201E0
1.476987083E0,9.293818912E-1,-1.892217165E0,2.039409417E-1,2.117977433E0
1.487021083E0,8.812641303E-1,-1.948506556E0,-9.780228317E-2,2.140763778E0
1.497055083E0,8.563634701E-1,-1.913954774E0,-4.758411473E-1,2.150117687E0
1.507089083E0,9.283612597E-1,-1.814748282E0,-8.123975247E-1,2.194346302E0
1.517123083E0,1.010815771E0,-1.682598284E0,-1.075841487E0,2.238374503E0
1.527158083E0,1.114639809E0,-1.404950851E0,-1.321932667E0,2.227962023E0
1.537192083E0,1.098641827E0,-1.167785445E0,-1.561659154E0,2.238194813E0
1.547226083E0,1.015916736E0,-9.415771365E-1,-1.897875808E0,2.349592922E0
1.557260083E0,8.720243602E-1,-6.702943969E-1,-2.131254557E0,2.398325885E0
1.567294083E0,8.488859046E-1,-5.848966894E-1,-2.199167628E0,2.428795930E0
1.577328083E0,6.923965797E-1,-5.178025210E-1,-2.319786331E0,2.475669828E0
1.587363083E0,6.025786695E-1,-4.345735458E-1,-2.198363051E0,2.320507557E0
1.597397083E0,4.994193135E-1,-3.806332737E-1,-1.925545417E0,2.025346018E0
1.607431083E0,5.474426419E-1,-2.782637304E-1,-1.605868197E0,1.719283809E0
1.617465083E0,6.600373574E-1,-1.441806436E-2,-1.441994131E0,1.585939554E0
1.627499083E0,8.564887467E-1,2.531005302E-1,-1.401135542E0,1.661569637E0
1.637534083E0,9.525236358E-1,5.181171012E-1,-1.389335276E0,1.762384498E0
1.647568083E0,1.022527744E0,7.334700537E-1,-1.371728141E0,1.861499234E0
1.657602083E0,1.037452250E0,8.781366009E-1,-1.383344804E0,1.939348836E0
1.667636083E0,9.945982262E-1,1.016084113E0,-1.374406165E0,1.977535047E0
1.677670083E0,8.415828053E-1,1.041601362E0,-1.247846691E0,1.830386948E0
1.687704083E0,7.328897906E-1,1.013608986E0,-1.148433500E0,1.698066585E0
1.697739083E0,6.448579124E-1,9.545421678E-1,-1.002762986E0,1.527260974E0
1.707773083E0,5.268941373E-1,9.191092104E-1,-8.423516411E-1,1.353490103E0
1.717807083E0,4.125177752E-1,9.370893985E-1,-7.148829246E-1,1.248745391E0
1.727841083E0,3.417460737E-1,9.848167115E-1,-6.118959153E-1,1.208747676E0
1.737875083E0,2.746266892E-1,1.015680947E0,-5.029424071E-1,1.166181234E0
1.747910083E0,2.184387475E-1,1.079050147E0,-3.369808853E-1,1.151356080E0
1.757944083E0,2.088605697E-1,1.084293053E0,-9.832327008E-2,1.108594437E0
1.767978083E0,1.255202781E-1,1.018590814E0,5.644901991E-2,1.027846816E0
1.778012083E0,1.285473816E-2,9.098606694E-1,1.525708133E-1,9.226535293E-1
1.788046083E0,-7.652788337E-2,7.327309656E-1,2.783151859E-1,7.875344612E-1
1.798080083E0,-1.709152830E-1,5.292098540E-1,4.223087186E-1,6.982977569E-1
1.808115083E0,-2.458940927E-1,3.675372648E-1,7.151828867E-1,8.408532020E-1
1.818149083E0,-2.405600433E-1,1.966301680E-1,9.947102004E-1,1.042104093E0
1.828183083E0,-2.351568506E-1,9.237109691E-2,1.245824139E0,1.271184074E0
1.838217083E0,-2.710312728E-1,7.186315745E-2,1.255255113E0,1.286191146E0
1.848251083E0,-2.594106626E-1,1.783114260E-1,1.094087139E0,1.138470695E0
1.858286083E0,-4.170584671E-1,3.192088580E-1,8.800895709E-1,1.024885219E0
1.868320083E0,-6.105388131E-1,5.827425751E-1,6.545238715E-1,1.068058074E0
1.878354083E0,-6.694718398E-1,8.482891962E-1,3.561503971E-1,1.137818180E0
1.888388083E0,-6.448683643E-1,1.002228843E0,-1.063497430E-1,1.196506635E0
1.898422083E0,-7.134094993E-1,1.170366113E0,-5.247916979E-1,1.467690798E0
1.908456375E0,-6.854210707E-1,1.331590221E0,-7.289139032E-1,1.665608009E0
1.918491375E0,-4.878431422E-1,1.341800044E0,-6.831956935E-1,1.582774351E0
1.928525375E0,-2.301326123E-1,1.299459479E0,-2.888109380E-1,1.350913659E0
1.938559375E0,2.016158329E-1,1.213260118E0,5.536564779E-1,1.348771498E0
1.948593375E0,6.475460237E-1,8.882902908E-1,1.678487107E0,2.006413333E0
1.958627375E0,1.096073146E0,4.109051862E-1,2.895719531E0,3.123365335E0
1.968662375E0,1.353273451E0,-9.821041882E-2,3.903432185E0,4.132526726E0
1.978696375E0,1.440753206E0,-5.076821601E-1,4.427168460E0,4.683303487E0
1.988730375E0,1.339641691E0,-8.902953011E-1,4.402016078E0,4.686684450E0
1.998764375E0,1.085481865E0,-1.074113635E0,3.935957907E0,4.221818995E0
2.008798375E0,9.913217390E-1,-1.056708520E0,3.160491981E0,3.476788928E0
2.018832375E0,8.119029234E-1,-8.916872308E-1,1.989402274E0,2.326373548E0
2.028867375E0,7.645732941E-1,-7.337559825E-1,6.347433257E-1,1.235260804E0
2.038901375E0,7.211760635E-1,-5.850156802E-1,-7.302154934E-1,1.181335231E0
2.048935375E0,4.569135275E-1,-3.448334035E-1,-1.651840761E0,1.748215646E0
2.058969375E0,2.392393401E-1,-2.498260894E-1,-2.388673548E0,2.413588585E0
2.069003375E0,8.832592003E-2,-2.059974074E-1,-3.143554936E0,3.151535187E0
2.079037375E0,3.310364597E-2,-1.287893102E-1,-3.598567716E0,3.601023764E0
2.089072375E0,-4.075597018E-2,4.250633419E-3,-3.610852717E0,3.611085219E0
2.099106375E0,6.063078409E-2,1.906838420E-1,-3.447520103E0,3.453321775E0
2.109140375E0,2.029225760E-1,3.444983581E-1,-3.167765332E0,3.192897413E0
2.119174375E0,3.371212184E-1,4.108031523E-1,-2.757306581E0,2.808050841E0
2.129208375E0,4.414762569E-1,4.442243752E-1,-2.357876848E0,2.439635180E0
2.139243375E0,5.364932920E-1,4.176876640E-1,-2.027622600E0,2.138583981E0
2.149277375E0,6.106106973E-1,3.400264075E-1,-1.694622499E0,1.833087231E0
2.159311375E0,6.891500594E-1,1.773083362E-1,-1.263694984E0,1.450272755E0
2.169345375E0,7.497620045E-1,-1.367400616E-2,-8.127898729E-1,1.105874052E0
2.179379375E0,7.624058774E-1,-9.402118117E-2,-4.283307660E-1,8.795282539E-1
2.189413375E0,7.106708828E-1,-1.967649463E-1,-8.630373359E-2,7.424404906E-1
2.199448375E0,6.652804095E-1,-2.945236677E-1,3.031570816E-1,7.881918740E-1
2.209482375E0,5.453826678E-1,-3.597028729E-1,4.432628006E-1,7.895000453E-1
2.219516375E0,3.876505172E-1,-3.926361457E-1,4.052173072E-1,6.845707651E-1
2.229550375E0,2.289094662E-1,-4.821131632E-1,3.717922837E-1,6.504322778E-1
2.239584375E0,2.170004055E-2,-4.540544218E-1,1.948415047E-1,4.945700372E-1
2.249619375E0,-8.947942950E-2,-2.631475085E-1,-5.888380051E-2,2.841135011E-1
2.259653375E0,-2.686174326E-2,-7.453094959E-2,-3.502259982E-1,3.590747352E-1
2.269687375E0,9.510218516E-2,1.469943237E-1,-6.278535515E-1,6.518065963E-1
2.279721375E0,1.666497757E-1,3.372738308E-1,-9.014500344E-1,9.767998511E-1
2.289755375E0,2.361830370E-1,5.512275445E-1,-1.057823292E0,1.215986986E0
2.299789375E0,3.971998244E-1,7.390781182E-1,-1.067156618E0,1.357507794E0
2.309824375E0,5.520943212E-1,8.565627140E-1,-1.033056241E0,1.451107515E0
2.319858375E0,6.173374803E-1,9.155593657E-1,-9.617020833E-1,1.464317388E0
2.329892375E0,6.727367789E-1,9.066946945E-1,-8.743908745E-1,1.428015912E0
2.339926375E0,6.399289289E-1,7.697833094E-1,-8.024671984E-1,1.282976610E0
2.349960375E0,5.283742138E-1,6.251334268E-1,-6.670825213E-1,1.055921494E0
2.359994375E0,4.174079113E-1,5.747450459E-1,-5.622074461E-1,9.058909673E-1
2.370029375E0,3.385826569E-1,5.652231476E-1,-5.299319851E-1,8.455432165E-1
2.380063375E0,3.044520937E-1,5.951068050E-1,-5.799531609E-1,8.849795791E-1
2.390097375E0,2.464977447E-1,6.841879660E-1,-6.871560127E-1,1.000528709E0
2.400131375E0,2.421495358E-1,8.154515254E-1,-7.189233506E-1,1.113754179E0
2.410165375E0,3.229896311E-1,9.460841703E-1,-6.797598696E-1,1.208913165E0
2.420200375E0,4.556268477E-1,1.027156985E0,-5.556234813E-1,1.253540884E0
2.430234375E0,5.841531428E-1,1.166011107E0,-4.171701854E-1,1.369250802E0
2.440268375E0,6.586550756E-1,1.317734659E0,6.470528841E-3,1.473191436E0
2.450302375E0,3.580836327E-1,1.424810919E0,4.794617432E-1,1.545378143E0
2.460336375E0,-6.946002491E-2,1.591726414E0,7.109132499E-1,1.744653352E0
2.470370375E0,-5.880723853E-1,1.741050268E0,6.507185036E-1,1.949492174E0
2.480405375E0,-1.000959558E0,1.768894124E0,4.582205629E-1,2.083476073E0
2.490439375E0,-1.147853822E0,1.848592843E0,3.601493078E-1,2.205577344E0
2.500473375E0,-9.910170259E-1,1.808387096E0,4.200838530E-1,2.104483090E0
2.510507375E0,-6.322027105E-1,1.510787500E0,1.172157993E0,2.013979518E0
2.520541375E0,-1.796745582E-1,9.657837322E-1,2.788557025E0,2.956530305E0
2.530576375E0,2.419014312E-1,2.619616932E-1,4.794450202E0,4.807691023E0
2.540610375E0,4.279314742E-1,-5.655938610E-1,6.300553206E0,6.340346399E0
2.550644375E0,3.429644872E-1,-1.294288201E0,6.891987374E0,7.020847282E0
2.560678375E0,4.842166990E-2,-1.796188635E0,6.372178089E0,6.620671557E0
2.570712375E0,-1.777259005E-1,-2.102812238E0,5.041564645E0,5.465416716E0
2.580746375E0,-3.588894521E-1,-2.174238316E0,3.438456919E0,4.084005372E0
2.590781375E0,-5.216678229E-1,-2.023778348E0,2.111163524E0,2.970661129E0
2.600815375E0,-4.348803053E-1,-1.685875356E0,1.002461269E0,2.009035887E0
2.610849375E0,-3.299068507E-1,-1.290224386E0,-5.707642615E-2,1.332957320E0
2.620883375E0,-2.309059614E-1,-9.224181497E-1,-1.069764476E0,1.431282236E0
2.630917375E0,-2.805244102E-1,-6.422336090E-1,-1.972516100E0,2.093317396E0
2.640951375E0,-5.024740452E-1,-4.901042604E-1,-2.674607656E0,2.765177836E0
2.650986375E0,-7.498635998E-1,-4.313824278E-1,-3.127702550E0,3.245136277E0
2.661020375E0,-9.829394630E-1,-3.945920393E-1,-3.381323774E0,3.543335058E0
2.671054375E0,-1.193687148E0,-3.783335638E-1,-3.390556528E0,3.614401591E0
2.681088375E0,-1.305150720E0,-4.058283412E-1,-3.177595087E0,3.459078718E0
2.691122375E0,-1.270258922E0,-5.042647550E-1,-2.840224192E0,3.151938155E0
2.701156375E0,-1.182845533E0,-6.347544354E-1,-2.446206642E0,2.790333974E0
2.711191375E0,-1.142641248E0,-7.131501022E-1,-2.058404682E0,2.459927219E0
2.721225375E0,-1.090557321E0,-7.714716929E-1,-1.746573256E0,2.198863793E0
2.731259375E0,-1.090876213E0,-8.312463167E-1,-1.470939603E0,2.011130196E0
2.741293375E0,-1.066490327E0,-8.442171952E-1,-1.237080213E0,1.838605924E0
2.751327375E0,-1.012079501E0,-8.605157241E-1,-9.464665782E-1,1.631131880E0
2.761361375E0,-9.460385621E-1,-8.885917148E-1,-4.926606631E-1,1.388271849E0
2.771396375E0,-9.269338082E-1,-8.561715353E-1,7.210493982E-2,1.263896794E0
2.781430375E0,-8.709246451E-1,-7.986109596E-1,6.909362376E-1,1.368825075E0
2.791464375E0,-7.776361931E-1,-7.807129249E-1,1.099481780E0,1.556628056E0
2.801498375E0,-7.184476796E-1,-7.509330556E-1,1.196456682E0,1.584795291E0
2.811532375E0,-7.041178351E-1,-6.983589855E-1,1.046455135E0,1.441719650E0
2.821567375E0,-7.260979573E-1,-6.433974972E-1,8.051545787E-1,1.260734896E0
2.831601375E0,-7.775089431E-1,-5.590967274E-1,5.945606750E-1,1.127214134E0
2.841635375E0,-7.968011002E-1,-4.663315281E-1,3.794047737E-1,9.981508252E-1
2.851669375E0,-8.297636090E-1,-3.518921623E-1,1.581747848E-1,9.150710373E-1
2.861703375E0,-8.926804534E-1,-2.181157619E-1,-1.016982830E-1,9.245514687E-1
2.871737375E0,-9.018226482E-1,-6.376447141E-2,-4.026164657E-1,9.896716703E-1
2.881772375E0,-9.280060413E-1,4.953907281E-2,-7.525191128E-1,1.195798623E0
2.891806375E0,-9.412771744E-1,1.706670687E-1,-1.059199727E0,1.427247010E0
2.901840375E0,-8.986338691E-1,2.950835386E-1,-1.208744606E0,1.534822676E0
2.911874208E0,-8.104338104E-1,3.660149422E-1,-1.279256179E0,1.557968636E0
2.921908208E0,-7.289793921E-1,4.261599872E-1,-1.262943032E0,1.519226248E0
2.931942208E0,-7.147781863E-1,5.221315071E-1,-1.224953088E0,1.511303819E0
2.941977208E0,-6.899816796E-1,5.273092166E-1,-1.231871513E0,1.507195128E0
2.952011208E0,-6.672274592E-1,4.575864324E-1,-1.185495492E0,1.435262131E0
2.962045208E0,-6.766381142E-1,3.773512316E-1,-1.004927625E0,1.268902132E0
2.972079208E0,-7.265501663E-1,2.928013703E-1,-7.443224859E-1,1.080566402E0
2.982113208E0,-7.290476583E-1,1.804251945E-1,-4.981406736E-1,9.012257595E-1
2.992147208E0,-6.904265796E-1,7.593252718E-2,-3.114993042E-1,7.612400588E-1
3.002182208E0,-7.221942830E-1,-9.321631193E-3,-2.149301988E-1,7.535558809E-1
3.012216208E0,-7.371719990E-1,-7.224527299E-3,-1.479094130E-1,7.518988924E-1
3.022250208E0,-6.785986125E-1,3.835334927E-2,-6.080636501E-2,6.823961242E-1
3.032284208E0,-6.111050063E-1,6.650886208E-2,1.249549985E-3,6.147148272E-1
3.042318208E0,-5.395735321E-1,6.344959885E-2,6.750727415E-2,5.474693418E-1
3.052353208E0,-5.114911826E-1,3.337970763E-2,1.841399306E-1,5.446512176E-1
3.062387208E0,-5.483675252E-1,-1.787201464E-3,2.698209357E-1,6.111574872E-1
3.072421208E0,-6.229065147E-1,-6.647202462E-2,3.618894392E-1,7.234604497E-1
3.082455208E0,-6.072660899E-1,-1.247623327E-1,5.380566913E-1,8.208792522E-1
3.092489208E0,-5.196358424E-1,-1.732123616E-1,7.364819545E-1,9.178396375E-1
3.102523208E0,-4.757322429E-1,-1.877137488E-1,8.698119199E-1,1.009024477E0
3.112558208E0,-6.037329829E-1,-4.144097149E-2,8.917758161E-1,1.077717484E0
3.122592208E0,-7.893050428E-1,2.047788477E-1,6.854655826E-1,1.065269868E0
3.132626208E0,-8.561748243E-1,3.747685164E-1,2.312468541E-1,9.627885948E-1
3.142660208E0,-8.513920943E-1,5.237965018E-1,-2.988880295E-1,1.043343341E0
3.152694208E0,-8.417660424E-1,7.294442457E-1,-5.885251790E-1,1.259770163E0
3.162728208E0,-6.876932256E-1,9.647113529E-1,-5.855378366E-1,1.321531129E0
3.172763208E0,-3.585791112E-1,1.138834126E0,-3.772997761E-1,1.252149059E0
3.182797208E0,1.091277917E-1,1.120417736E0,5.692381382E-2,1.127157974E0
3.192831208E0,4.629125515E-1,8.382656068E-1,9.882402563E-1,1.376079962E0
3.202865208E0,7.209591318E-1,4.842941746E-1,2.570770462E0,2.713518690E0
3.212899208E0,6.969582850E-1,3.764028132E-2,3.629370849E0,3.695876134E0
3.222933208E0,5.993260461E-1,-5.062542701E-1,4.204942106E0,4.277501983E0
3.232968208E0,1.717009295E-1,-9.578391203E-1,4.454869645E0,4.559912339E0
3.243002208E0,-1.520607534E-1,-1.302405306E0,3.938247092E0,4.150803803E0
3.253036208E0,-4.947437337E-1,-1.445843646E0,2.942935798E0,3.316037744E0
3.263070208E0,-5.550674476E-1,-1.389883161E0,1.763153620E0,2.312700967E0
3.273104208E0,-4.158784259E-1,-1.276319708E0,7.384144592E-1,1.532058346E0
3.283138208E0,-2.294026423E-1,-9.721495959E-1,-1.069379729E-1,1.004557683E0
3.293173208E0,-9.151831705E-2,-6.256409651E-1,-7.276357019E-1,9.639792188E-1
3.303207208E0,-5.402936898E-2,-4.219412211E-1,-1.404294208E0,1.467309030E0
3.313241208E0,2.911189802E-2,-2.718966973E-1,-1.991593811E0,2.010278892E0
3.323275208E0,-1.395825393E-2,-1.052133366E-1,-2.304149707E0,2.306592845E0
3.333309208E0,-1.162264211E-1,7.040340006E-2,-2.389678684E0,2.393539102E0
3.343343208E0,-1.780696437E-1,1.797010168E-1,-2.333471739E0,2.347145418E0
3.353378208E0,-1.478036515E-1,2.348513702E-1,-2.232272809E0,2.249453929E0
3.363412208E0,-2.338060342E-2,2.667327288E-1,-2.128605183E0,2.145379460E0
3.373446208E0,2.281249891E-1,3.105926934E-1,-1.877405875E0,1.916549413E0
3.383480208E0,5.739772334E-1,2.853052399E-1,-1.456545512E0,1.591343386E0
3.393514208E0,8.876813033E-1,1.466332582E-1,-1.018102571E0,1.358680336E0
3.403548208E0,1.175484035E0,-3.529087007E-2,-5.520116562E-1,1.299124717E0
3.413583208E0,1.384587045E0,-2.106520835E-1,-5.246063411E-2,1.401501946E0
3.423617208E0,1.466818778E0,-3.818845779E-1,3.318908840E-1,1.551626474E0
3.433651208E0,1.383180205E0,-5.874890524E-1,5.440647054E-1,1.598229417E0
3.443685208E0,1.150578112E0,-8.160005790E-1,4.437013417E-1,1.478701396E0
3.453719208E0,8.355644124E-1,-9.695648342E-1,1.608650887E-1,1.290000555E0
3.463754208E0,6.091482721E-1,-1.044409487E0,-2.463443649E-1,1.233911804E0
3.473788208E0,4.223563734E-1,-1.028259185E0,-6.603740108E-1,1.292979386E0
3.483822208E0,2.888852707E-1,-9.178342250E-1,-9.995470172E-1,1.387432378E0
3.493856208E0,2.616626081E-1,-7.712731799E-1,-1.183377630E0,1.436562652E0
3.503890208E0,2.506834374E-1,-5.886301365E-1,-1.249761654E0,1.404005632E0
3.513924208E0,2.197434805E-1,-3.666774318E-1,-1.227137023E0,1.299463277E0
3.523959208E0,2.794760044E-1,-1.560118997E-1,-1.207174044E0,1.248885792E0
3.533993208E0,3.751009306E-1,-2.438230455E-2,-1.248555958E0,1.303912262E0
3.544027208E0,4.537945861E-1,9.821860492E-2,-1.242814577E0,1.326711911E0
3.554061208E0,5.895503421E-1,2.254835460E-1,-1.132842484E0,1.296820932E0
3.564095208E0,6.817726274E-1,3.431877047E-1,-1.028673753E0,1.280922092E0
3.574129208E0,7.037291414E-1,4.285374650E-1,-9.677790946E-1,1.271013548E0
3.584164208E0,7.180466337E-1,4.820836347E-1,-8.542805457E-1,1.215644212E0
3.594198208E0,7.001143927E-1,5.380879739E-1,-7.438763434E-1,1.154578211E0
3.604232208E0,6.881786176E-1,5.534433469E-1,-6.518224579E-1,1.097616447E0
3.614266208E0,6.432530710E-1,5.424201760E-1,-6.438608891E-1,1.059505076E0
3.624300208E0,5.313428452E-1,5.752020058E-1,-6.741173065E-1,1.033255394E0
3.634334208E0,4.826896986E-1,6.247837633E-1,-6.812193346E-1,1.042786593E0
3.644369208E0,4.159764764E-1,6.992118019E-1,-7.067652351E-1,1.077706208E0
3.654403208E0,3.286099382E-1,7.493119150E-1,-7.259797704E-1,1.093846180E0
3.664437208E0,2.377476422E-1,8.160470644E-1,-6.806042075E-1,1.088888810E0
3.674471208E0,1.311180369E-1,8.655995858E-1,-7.226673228E-1,1.135210395E0
3.684505208E0,-4.120306291E-2,8.528052932E-1,-8.006428671E-1,1.170471512E0
3.694539208E0,-1.649055878E-1,8.815060589E-1,-8.307490110E-1,1.222452741E0
3.704574208E0,-1.824873613E-1,9.222254840E-1,-7.479705638E-1,1.201358167E0
3.714608208E0,-1.445089647E-1,9.135642958E-1,-5.657479352E-1,1.084229353E0
3.724642208E0,-1.058948296E-1,8.211437899E-1,-2.026627403E-1,8.523866640E-1
3.734676208E0,-6.829547882E-2,6.530497885E-1,1.379346478E-1,6.709428185E-1
3.744710208E0,-9.198722720E-2,4.632132080E-1,4.693355352E-1,6.658107619E-1
3.754744208E0,-1.602248917E-1,2.979901895E-1,8.046242362E-1,8.728632943E-1
3.764779208E0,-3.344317916E-1,1.987345809E-1,1.106586732E0,1.172976663E0
3.774813208E0,-7.819364548E-1,2.809145656E-1,1.146839549E0,1.416184509E0
3.784847208E0,-1.254712345E0,4.035719007E-1,6.897346348E-1,1.487584356E0
3.794881208E0,-1.554881938E0,5.062712270E-1,8.010334611E-2,1.637188121E0
3.804915208E0,-1.706688813E0,7.452785057E-1,-4.970735568E-1,1.927513651E0
3.814949208E0,-1.708879326E0,1.130902086E0,-7.449762046E-1,2.180412260E0
3.824984208E0,-1.435716268E0,1.469912247E0,-5.276568335E-1,2.121401648E0
3.835018208E0,-9.972875800E-1,1.548495902E0,3.289649373E-1,1.870999734E0
3.845052208E0,-3.806977758E-1,1.401192260E0,1.685552298E0,2.224715059E0
3.855086208E0,2.106180600E-1,1.037523221E0,3.079810930E0,3.256693072E0
3.865120208E0,4.724343036E-1,4.497388843E-1,4.350827213E0,4.399449587E0
3.875154208E0,6.031531950E-1,-3.387470368E-1,5.020848545E0,5.068280127E0
3.885189208E0,2.516579856E-1,-1.096259087E0,5.066029395E0,5.189390095E0
3.895223208E0,-3.098453096E-1,-1.652953486E0,4.537383798E0,4.839019639E0
3.905257208E0,-8.273590878E-1,-2.017526505E0,3.515133796E0,4.136556764E0
3.915291458E0,-1.170036184E0,-2.072864846E0,2.260438846E0,3.282580863E0
3.925325458E0,-1.366168900E0,-1.911739556E0,1.043349679E0,2.570942269E0
3.935359458E0,-1.496994942E0,-1.558337935E0,-5.376397848E-2,2.161550726E0
3.945394458E0,-1.503220619E0,-1.072360932E0,-9.936237878E-1,2.096883027E0
3.955428458E0,-1.555598076E0,-6.743023708E-1,-1.693499833E0,2.396353636E0
3.965462458E0,-1.496661797E0,-3.255837849E-1,-2.314639612E0,2.775528394E0
3.975496458E0,-1.359853030E0,-6.228541821E-2,-2.705455812E0,3.028625247E0
3.985530458E0,-1.241682556E0,9.105576575E-2,-2.854349311E0,3.114061129E0
3.995564458E0,-1.054202696E0,1.490692082E-1,-2.691571598E0,2.894498682E0
4.005599458E0,-8.541532226E-1,1.006112856E-1,-2.172616006E0,2.336655873E0
4.015633458E0,-6.497703776E-1,-1.123577571E-1,-1.639450511E0,1.767094730E0
4.025667458E0,-4.948570966E-1,-3.897829968E-1,-1.158476093E0,1.318666443E0
4.035701458E0,-3.867147435E-1,-6.100853249E-1,-6.530877954E-1,9.737946729E-1
4.045735458E0,-3.333527245E-1,-8.063099885E-1,-6.107826054E-2,8.746372908E-1
4.055769458E0,-2.989752443E-1,-9.441212600E-1,3.772044665E-1,1.059733155E0
4.065804458E0,-1.986348858E-1,-9.743402553E-1,4.934336650E-1,1.110077264E0
4.075838458E0,-1.046709891E-1,-9.325908431E-1,6.118181473E-1,1.120269227E0
4.085872458E0,-8.744779615E-2,-8.632732710E-1,3.632266974E-1,9.406495050E-1
4.095906458E0,-1.995428853E-1,-7.844551429E-1,-2.280881882E-2,8.097576653E-1
4.105940458E0,-3.959394570E-1,-7.124124759E-1,-4.542865562E-1,9.331001365E-1
4.115974458E0,-5.565210289E-1,-6.448300651E-1,-7.312890422E-1,1.122633124E0
4.126009458E0,-7.327424408E-1,-6.054303566E-1,-9.450176382E-1,1.340341650E0
4.136043458E0,-8.923796873E-1,-6.001541215E-1,-1.157438212E0,1.579933445E0
4.146077458E0,-9.976495957E-1,-5.896358576E-1,-1.383085772E0,1.804411653E0
4.156111458E0,-1.054300418E0,-5.889327300E-1,-1.595951904E0,2.001362938E0
4.166145458E0,-1.115204870E0,-5.123257264E-1,-1.776068950E0,2.158837759E0
4.176179458E0,-1.080828139E0,-3.959032774E-1,-1.850782918E0,2.179524324E0
4.186213458E0,-1.009044430E0,-2.341985285E-1,-1.899485546E0,2.163576889E0
4.196248458E0,-9.064035031E-1,-4.169941843E-3,-1.877865466E0,2.085177069E0
4.206282458E0,-8.178336811E-1,1.812745026E-1,-1.811597217E0,1.995895001E0
4.216316458E0,-7.558978533E-1,3.686029199E-1,-1.774312447E0,1.963525996E0
4.226350458E0,-6.992650846E-1,5.076605254E-1,-1.663474381E0,1.874523375E0
4.236384458E0,-6.852945516E-1,5.662314999E-1,-1.495509603E0,1.739768866E0
4.246418458E0,-6.787800955E-1,5.269367489E-1,-1.246909967E0,1.514327977E0
4.256453458E0,-6.236381476E-1,4.436566105E-1,-9.043140006E-1,1.184710741E0
4.266487458E0,-5.629379826E-1,3.667794657E-1,-5.015840989E-1,8.384586794E-1
4.276521458E0,-5.100872296E-1,3.438814768E-1,-7.788023472E-2,6.200877219E-1
4.286555458E0,-4.680764104E-1,2.887030569E-1,1.667456335E-1,5.746730264E-1
4.296589458E0,-4.546774426E-1,3.279524919E-1,2.908393371E-1,6.315630877E-1
4.306623458E0,-5.615054879E-1,3.431470665E-1,4.135700548E-1,7.772248789E-1
4.316658458E0,-5.570222814E-1,3.859396219E-1,4.289973485E-1,8.020361207E-1
4.326692458E0,-4.794401451E-1,4.959207782E-1,5.105718541E-1,8.581863954E-1
4.336726458E0,-4.080363230E-1,5.614297664E-1,6.729513717E-1,9.667267308E-1
4.346760458E0,-3.726389422E-2,6.583274853E-1,8.832049674E-1,1.102195396E0
4.356794458E0,1.419418909E-1,6.273208702E-1,1.250829356E0,1.406503840E0
4.366828458E0,3.233956471E-1,5.195063996E-1,1.552266186E0,1.668532876E0
4.376863458E0,3.573174648E-1,4.330021065E-1,1.725868850E0,1.814880129E0
4.386897458E0,5.162713179E-2,5.697553244E-1,1.616849853E0,1.715077239E0
4.396931458E0,-2.744791749E-1,8.088421252E-1,1.173174239E0,1.451172697E0
4.406965458E0,-5.173117934E-1,9.782143280E-1,5.646281934E-1,1.242304214E0
4.416999458E0,-3.943511340E-1,1.166803405E0,2.298452765E-1,1.252905365E0
4.427033458E0,-1.719741589E-1,1.441036650E0,1.706463110E-1,1.461260381E0
4.437068458E0,2.303635591E-1,1.695287035E0,2.727936602E-1,1.732478537E0
4.447102458E0,8.279052177E-1,1.753656280E0,6.496069479E-1,2.045171530E0
4.457136458E0,1.389646348E0,1.555773931E0,1.597084510E0,2.627209247E0
4.467170458E0,1.822854423E0,1.248972572E0,3.097481800E0,3.804881633E0
4.477204458E0,2.027239753E0,8.142367664E-1,4.590276541E0,5.083632683E0
4.487238458E0,2.031434692E0,2.201280811E-1,5.702662541E0,6.057684652E0
4.497273458E0,1.715808423E0,-3.442144758E-1,6.204185244E0,6.446269983E0
4.507307458E0,1.087101251E0,-7.613139099E-1,5.830220720E0,5.979369670E0
4.517341458E0,4.371302773E-1,-1.031900539E0,4.646046115E0,4.779293473E0
4.527375458E0,1.843455333E-2,-1.169256897E0,3.156750932E0,3.366389456E0
4.537409458E0,-1.962390441E-1,-1.162796016E0,1.778555186E0,2.133978184E0
4.547443458E0,-1.222695642E-1,-1.064844044E0,6.087384188E-1,1.232641532E0
4.557478458E0,8.752094116E-4,-9.989786679E-1,-1.323090416E-1,1.007702747E0
4.567512458E0,1.961436065E-1,-1.002517987E0,-5.197063744E-1,1.146127979E0
4.577546458E0,4.675304997E-1,-9.198026901E-1,-6.422686923E-1,1.215372712E0
4.587580458E0,6.968542776E-1,-7.897246537E-1,-7.344114554E-1,1.283990303E0
4.597614458E0,8.999573864E-1,-6.699549660E-1,-1.067091129E0,1.548368958E0
4.607648458E0,1.094481753E0,-6.098400342E-1,-1.365234808E0,1.853014100E0
4.617683458E0,1.291410494E0,-5.570192116E-1,-1.580978354E0,2.116011348E0
4.627717458E0,1.396463325E0,-5.279266825E-1,-1.744893351E0,2.296403537E0
4.637751458E0,1.527225485E0,-5.657210380E-1,-1.795758864E0,2.424295336E0
4.647785458E0,1.634863809E0,-6.715462857E-1,-1.713072218E0,2.461375736E0
4.657819458E0,1.667412188E0,-8.052083731E-1,-1.487749178E0,2.375293992E0
4.667853458E0,1.635241246E0,-9.517483681E-1,-1.254276289E0,2.270032577E0
4.677888458E0,1.476009577E0,-1.086304495E0,-1.098531607E0,2.136687488E0
4.687922458E0,1.240359624E0,-1.196868326E0,-9.968321550E-1,1.991145432E0
4.697956458E0,9.630792488E-1,-1.275645524E0,-9.202956104E-1,1.844379883E0
4.707990458E0,6.686250168E-1,-1.294796324E0,-8.383942455E-1,1.681208448E0
4.718024458E0,4.864583022E-1,-1.234711506E0,-7.755208898E-1,1.537070861E0
4.728058458E0,3.480859172E-1,-1.131384773E0,-7.192589808E-1,1.385109668E0
4.738093458E0,2.938066163E-1,-1.018839028E0,-7.137883258E-1,1.278221056E0
4.748127458E0,2.906850437E-1,-8.394186777E-1,-7.722131199E-1,1.177044865E0
4.758161458E0,3.379240777E-1,-6.443660885E-1,-8.692125803E-1,1.133547903E0
4.768195458E0,3.388933999E-1,-5.109320426E-1,-1.053465947E0,1.218889162E0
4.778229458E0,3.481264823E-1,-3.935193676E-1,-1.172150391E0,1.284517840E0
4.788263458E0,4.663178237E-1,-2.575786203E-1,-1.167188444E0,1.283015168E0
4.798297458E0,6.081935680E-1,-1.661761147E-1,-1.128642429E0,1.292806115E0
4.808332458E0,7.715922187E-1,-6.300257921E-2,-1.123612069E0,1.364488168E0
4.818366458E0,9.107001834E-1,5.720681906E-2,-1.121024677E0,1.445456250E0
4.828400458E0,1.000701331E0,1.332130212E-1,-1.149739768E0,1.530049148E0
4.838434458E0,1.077646815E0,2.237665111E-1,-1.215937850E0,1.640091145E0
4.848468458E0,1.156775430E0,2.593064725E-1,-1.260170283E0,1.730144036E0
4.858502458E0,1.171200657E0,2.268041396E-1,-1.211943033E0,1.700575494E0
4.868537458E0,1.140142733E0,1.984375423E-1,-1.052375441E0,1.564224082E0
4.878571458E0,1.091841516E0,1.331621504E-1,-8.144551599E-1,1.368644315E0
4.888605458E0,1.024259251E0,6.190447211E-2,-6.182576859E-1,1.197990711E0
4.898639458E0,9.232138096E-1,4.809510291E-2,-5.251998335E-1,1.063236447E0
4.908673458E0,8.270467003E-1,1.233136851E-1,-5.025985909E-1,9.756115276E-1
4.918707458E0,7.608770498E-1,1.867068583E-1,-5.412516099E-1,9.522324512E-1
4.928742458E0,6.953346594E-1,2.511057526E-1,-5.963949466E-1,9.498585788E-1
4.938776458E0,6.345967799E-1,3.910559356E-1,-6.947421902E-1,1.018972290E0
4.948810458E0,5.973612721E-1,4.964560908E-1,-7.861651611E-1,1.105153745E0
4.958844458E0,5.732920128E-1,5.857401502E-1,-8.384819537E-1,1.172521745E0
4.968878458E0,5.232782192E-1,6.534088075E-1,-9.081649768E-1,1.235122176E0
4.978912458E0,4.366611479E-1,7.237432104E-1,-1.013383284E0,1.319629824E0
4.988947458E0,3.804411196E-1,7.740742886E-1,-1.099080076E0,1.397105387E0
4.998981458E0,3.455689102E-1,8.119987446E-1,-1.127960059E0,1.432150037E0
5.009015458E0,2.259324659E-1,8.674344420E-1,-1.095037896E0,1.415131084E0
5.019049458E0,1.291512528E-1,9.102547717E-1,-1.032617115E0,1.382585224E0
5.029083458E0,1.826648974E-1,8.305572224E-1,-8.878032178E-1,1.229384528E0
5.039117458E0,1.778576821E-1,7.404346722E-1,-6.762965637E-1,1.018456627E0
5.049151458E0,1.876054291E-1,6.525562835E-1,-3.666707075E-1,7.716689108E-1
5.059186458E0,2.199187508E-1,4.728672534E-1,-4.378512025E-2,5.233400740E-1
5.069220458E0,2.486182740E-1,3.017046332E-1,2.732585138E-1,4.769768833E-1
5.079254458E0,2.943266165E-1,9.415595949E-2,5.792696214E-1,6.565415418E-1
5.089288458E0,3.180387571E-1,-8.209373832E-2,8.269594306E-1,8.898033112E-1
5.099322458E0,2.536067529E-1,-1.691137558E-1,9.818036413E-1,1.028034162E0
5.109356458E0,5.299945503E-2,-1.120501935E-1,8.774729419E-1,8.861844909E-1
5.119391458E0,-1.720388255E-1,1.680548251E-2,5.141000640E-1,5.423823905E-1
5.129425458E0,-2.871743754E-1,2.505695629E-1,-2.491323173E-2,3.819357235E-1
5.139459458E0,-4.470911188E-1,6.242043042E-1,-3.788247299E-1,8.561715120E-1
5.149493458E0,-3.558538701E-1,9.935284781E-1,-4.672358000E-1,1.154140419E0
5.159527458E0,-7.387014113E-2,1.258205034E0,-2.780152237E-1,1.290670046E0
5.169561458E0,3.495545916E-1,1.424898627E0,-1.673508203E-1,1.476662049E0
5.179596458E0,8.474702206E-1,1.320555063E0,1.985515630E-1,1.581611259E0
5.189630458E0,1.453568256E0,9.173398429E-1,9.479143488E-1,1.962884275E0
5.199664458E0,1.797788871E0,4.859264249E-1,2.057276169E0,2.774987307E0
5.209698458E0,1.990400540E0,-6.082273722E-3,3.476191925E0,4.005701138E0
5.219732458E0,1.855128861E0,-6.430440331E-1,4.418971249E0,4.835526405E0
5.229766458E0,1.676600357E0,-1.212620725E0,4.936788388E0,5.352879353E0
5.239801458E0,1.149474962E0,-1.576214043E0,4.604125671E0,5.000371646E0
5.249835458E0,6.323567116E-1,-1.681475327E0,3.718671865E0,4.129861344E0
5.259869458E0,2.278252462E-1,-1.594203879E0,2.502855636E0,2.976184922E0
5.269903458E0,1.148818539E-1,-1.413261498E0,1.396406314E0,1.990089570E0
5.279937458E0,1.118190093E-1,-1.097112196E0,5.648579890E-1,1.239041246E0
5.289971458E0,1.322223201E-1,-7.485970929E-1,-1.704463363E-3,7.601863289E-1
5.300005458E0,2.773989638E-1,-5.079397300E-1,-4.181320524E-1,7.139939549E-1
5.310040458E0,4.802385093E-1,-4.643917143E-1,-6.232979858E-1,9.136679207E-1
5.320074458E0,6.907457645E-1,-4.852458090E-1,-5.841491228E-1,1.026559011E0
5.330108458E0,8.137079588E-1,-6.054347420E-1,-4.511653125E-1,1.110054957E0
5.340142458E0,9.159929368E-1,-8.156719655E-1,-3.475742859E-1,1.274822223E0
5.350176458E0,9.432117257E-1,-9.969724882E-1,-2.283513129E-1,1.391311189E0
5.360210458E0,9.792440227E-1,-1.144323492E0,-4.834945679E-2,1.506895079E0
5.370245458E0,1.026163324E0,-1.275378306E0,2.028592068E-1,1.649470475E0
5.380279458E0,1.064705319E0,-1.400138007E0,4.271414423E-1,1.810092171E0
5.390313458E0,1.027144413E0,-1.479399354E0,5.413831723E-1,1.880623257E0
5.400347458E0,9.425856350E-1,-1.493119846E0,5.083616066E-1,1.837472742E0
5.410381458E0,8.445205195E-1,-1.479470398E0,4.332061744E-1,1.757758560E0
5.420415458E0,7.599500468E-1,-1.540197826E0,2.231297493E-1,1.731912325E0
5.430449458E0,6.461965594E-1,-1.527887683E0,4.614914954E-2,1.659560336E0
5.440484458E0,4.918026939E-1,-1.367525747E0,-1.355922532E-1,1.459582754E0
5.450518458E0,4.366395132E-1,-1.188810278E0,-4.129479110E-1,1.332084802E0
5.460552458E0,5.517695814E-1,-1.019918424E0,-7.245454484E-1,1.367351224E0
5.470586458E0,6.051543680E-1,-8.586466616E-1,-1.000141679E0,1.450437616E0
5.480620458E0,5.620624352E-1,-6.831354672E-1,-1.262989810E0,1.541989464E0
5.490654458E0,5.044572380E-1,-5.427806568E-1,-1.488487682E0,1.662733751E0
5.500689458E0,5.016546675E-1,-4.710885304E-1,-1.591393415E0,1.733815102E0
5.510723458E0,5.210757192E-1,-4.596227252E-1,-1.521207531E0,1.672377143E0
5.520757458E0,5.399190660E-1,-4.624849373E-1,-1.393292087E0,1.564182776E0
5.530791458E0,4.789684941E-1,-4.702804452E-1,-1.258377526E0,1.426214750E0
5.540825458E0,4.336618187E-1,-4.670919585E-1,-1.133002113E0,1.299973561E0
5.550859458E0,4.205503512E-1,-4.707242489E-1,-9.833695257E-1,1.168528793E0
5.560894458E0,4.235445276E-1,-4.407941061E-1,-7.942138535E-1,1.002230041E0
5.570928458E0,4.184552207E-1,-4.533656198E-1,-6.154381585E-1,8.714409239E-1
5.580962458E0,4.312382209E-1,-4.553864175E-1,-3.758578527E-1,7.311718798E-1
5.590996458E0,4.243621145E-1,-4.240973818E-1,-1.330750269E-1,6.145329579E-1
5.601030458E0,4.169464564E-1,-4.116071445E-1,3.145451188E-2,5.867317745E-1
5.611064458E0,4.332535734E-1,-4.327120847E-1,9.123995304E-2,6.190905718E-1
5.621099458E0,3.449967601E-1,-4.254100817E-1,5.242672026E-2,5.502227396E-1
5.631133458E0,2.582703825E-1,-3.815793532E-1,-4.901486993E-2,4.633668641E-1
5.641167458E0,2.539776126E-1,-3.340724802E-1,-2.404141188E-2,4.203415744E-1
5.651201458E0,2.947594567E-1,-2.900955713E-1,1.099259001E-1,4.279278926E-1
5.661235458E0,3.063829905E-1,-2.347095752E-1,3.028091723E-1,4.905634682E-1
5.671269458E0,3.438599883E-1,-2.179669502E-1,4.686303610E-1,6.207766895E-1
5.681303458E0,4.305070265E-1,-2.095107070E-1,6.110270190E-1,7.762635211E-1
5.691338458E0,5.424383754E-1,-1.961062574E-1,8.607475662E-1,1.036138711E0
5.701372458E0,6.505306618E-1,-2.556238961E-1,1.176372666E0,1.368351697E0
5.711406458E0,7.902951957E-1,-3.341482016E-1,1.553436214E0,1.774650836E0
5.721440458E0,9.400833922E-1,-4.011561236E-1,1.864394066E0,2.126181614E0
5.731474458E0,1.083110672E0,-4.223438019E-1,2.001142314E0,2.314319247E0
5.741508458E0,1.343769094E0,-4.081730747E-1,2.006070347E0,2.448803560E0
5.751543458E0,1.411275638E0,-8.790762484E-2,1.769924111E0,2.265404608E0
5.761577458E0,1.150802499E0,4.787957454E-1,1.204573202E0,1.733374846E0
5.771611458E0,9.633996762E-1,6.503483748E-1,2.820942414E-1,1.196105809E0
5.781645458E0,1.204270682E0,6.228109127E-1,-7.396751189E-1,1.544435363E0
5.791679458E0,1.615110599E0,8.086564761E-1,-6.982955432E-1,1.936523743E0
5.801713458E0,2.152851102E0,8.667713678E-1,2.714909005E-1,2.336614598E0
5.811747458E0,2.395674419E0,5.340373152E-1,1.509656941E0,2.881582180E0
5.821782458E0,2.549545361E0,-4.846113861E-2,2.437223564E0,3.527405383E0
5.831816458E0,2.364871580E0,-7.924725527E-1,2.921192926E0,3.841093392E0
5.841850458E0,2.093910875E0,-1.460171955E0,3.124048040E0,4.034382363E0
5.851884458E0,1.599346359E0,-1.728842744E0,3.031558537E0,3.838899995E0
5.861918458E0,1.758972423E0,-1.578762259E0,2.987507368E0,3.809419186E0
5.871952458E0,2.251404606E0,-1.575279073E0,3.028448988E0,4.089233440E0
5.881987458E0,2.522810429E0,-1.459244587E0,2.600481918E0,3.905953588E0
5.892021458E0,2.884625024E0,-1.322489907E0,2.441199671E0,4.003685417E0
5.902055458E0,2.839811086E0,-1.416830346E0,2.378283046E0,3.965875122E0
5.912089458E0,2.790218804E0,-1.579714771E0,1.967659403E0,3.761981294E0
5.922123083E0,2.453403395E0,-1.846030008E0,1.329535217E0,3.345845021E0
5.932157083E0,2.288918003E0,-2.002302402E0,6.346339828E-1,3.106625311E0
5.942192083E0,2.191272425E0,-2.038895447E0,-2.801810324E-2,2.993251492E0
5.952226083E0,2.234607748E0,-1.957297260E0,-5.291993290E-1,3.017372413E0
5.962260083E0,2.584074047E0,-1.714940404E0,-7.810617113E-1,3.198205225E0
5.972294083E0,3.066177562E0,-1.365405839E0,-7.412468505E-1,3.437328154E0
5.982328083E0,3.622043995E0,-1.026569340E0,-4.633169961E-1,3.793113490E0
5.992362083E0,4.043434993E0,-8.611112630E-1,-3.643382531E-1,4.150135120E0
6.002396083E0,4.039826676E0,-9.059184766E-1,-4.054500264E-1,4.159961248E0
6.012431083E0,3.679494935E0,-9.891769803E-1,-3.593084782E-1,3.827042809E0
6.022465083E0,3.284544169E0,-1.162741052E0,-2.052589041E-1,3.490319236E0
6.032499083E0,3.042830799E0,-1.405053762E0,-9.091894090E-2,3.352799069E0
6.042533083E0,2.896524400E0,-1.582649488E0,5.978953421E-2,3.301243371E0
6.052567083E0,2.878690100E0,-1.629253551E0,5.048649716E-1,3.346074187E0
6.062601083E0,3.028370050E0,-1.532352324E0,1.151539541E0,3.584016200E0
6.072636083E0,3.104311641E0,-1.417738711E0,1.609928504E0,3.773407426E0
6.082670083E0,2.986808334E0,-1.352222999E0,1.711261336E0,3.698370779E0
6.092704083E0,2.722446066E0,-1.358164939E0,1.519718830E0,3.400863112E0
6.102738083E0,2.366961521E0,-1.325206524E0,1.173432101E0,2.955608578E0
6.112772083E0,2.071930169E0,-1.236326507E0,8.475258422E-1,2.557283306E0
6.122806083E0,1.948747900E0,-1.150898686E0,5.843619615E-1,2.337448409E0
6.132840083E0,1.915714786E0,-1.068747060E0,3.519468337E-1,2.221722303E0
6.142875083E0,1.985613279E0,-9.815814471E-1,1.827149642E-1,2.222509165E0
6.152909083E0,2.111916645E0,-8.345134485E-1,1.688190562E-1,2.277082450E0
6.162943083E0,2.204330427E0,-8.024537498E-1,1.978773791E-1,2.354179285E0
6.172977083E0,2.165266641E0,-8.898468196E-1,1.525409925E-1,2.345948794E0
6.183011083E0,2.074544605E0,-9.548298508E-1,1.203947550E-1,2.286904077E0
6.193045083E0,1.954469254E0,-1.083268620E0,7.086825371E-2,2.235719857E0
6.203080083E0,1.737741913E0,-1.211952388E0,-2.260708988E-2,2.118746476E0
6.213114083E0,1.519052247E0,-1.331803937E0,-5.553334594E-2,2.020966454E0
6.223148083E0,1.351745281E0,-1.407621274E0,-6.065726101E-2,1.952509221E0
6.233182083E0,1.244955243E0,-1.424005757E0,-1.223342764E-1,1.895434417E0
6.243216083E0,1.241804763E0,-1.377323341E0,-1.429322630E-1,1.859980723E0
6.253250083E0,1.191082652E0,-1.334065055E0,-4.102114141E-2,1.788879591E0
6.263284083E0,1.054352750E0,-1.300904911E0,8.779594302E-2,1.676818844E0
6.273319083E0,9.161800477E-1,-1.358829768E0,1.994900411E-1,1.650939276E0
6.283353083E0,6.671014517E-1,-1.457786876E0,2.948937964E-1,1.630070328E0
6.293387083E0,5.061702894E-1,-1.444677418E0,5.355412191E-1,1.621760032E0
6.303421083E0,3.734713847E-1,-1.437332146E0,7.629049373E-1,1.669559378E0
6.313455083E0,9.425368108E-2,-1.454092605E0,8.307770777E-1,1.677337060E0
6.323489083E0,-2.498736712E-1,-1.336295183E0,7.545989674E-1,1.554844452E0
6.333524083E0,-6.234228969E-1,-1.163051539E0,6.572837573E-1,1.474234353E0
6.343558083E0,-7.127185046E-1,-1.072832510E0,7.055712336E-1,1.468593894E0
6.353592083E0,-5.174663061E-1,-1.001637397E0,8.748984128E-1,1.427058543E0
6.363626083E0,-3.168252771E-1,-8.222155845E-1,9.495936692E-1,1.295432306E0
6.373660083E0,-2.468720395E-1,-5.483524686E-1,8.118315142E-1,1.010300273E0
6.383694083E0,-7.274758536E-2,-3.196994394E-1,8.965927523E-1,9.546614616E-1
6.393728083E0,1.481012199E-1,-1.264852148E-1,1.306814107E0,1.321247740E0
6.403763083E0,3.570467021E-1,8.229663670E-2,2.084746973E0,2.116701449E0
6.413797083E0,4.701602849E-1,1.793411207E-1,2.757589586E0,2.803125801E0
6.423831083E0,1.753811670E-1,1.726653546E-1,2.659211937E0,2.670576718E0
6.433865083E0,-1.652343110E-1,3.765478241E-1,2.030072583E0,2.071300397E0
6.443899083E0,-4.544614976E-1,5.620706213E-1,1.290444242E0,1.479089239E0
6.453933083E0,-6.926073718E-1,8.205409420E-1,2.901411796E-1,1.112283378E0
6.463968083E0,-7.324004517E-1,1.118653631E0,-2.328495759E-1,1.357208640E0
6.474002083E0,-3.795072462E-1,1.311800027E0,-2.075714779E-1,1.381278748E0
6.484036083E0,5.455795728E-2,1.270548506E0,3.307764047E-1,1.314033145E0
6.494070083E0,3.753090915E-1,1.150005231E0,8.509838855E-1,1.479034320E0
6.504104083E0,6.200472993E-1,1.016723798E0,1.255779608E0,1.730655471E0
6.514138083E0,6.449239860E-1,6.802598065E-1,1.373451315E0,1.662843609E0
6.524172083E0,5.811674814E-1,2.784005553E-1,1.290348932E0,1.442311644E0
6.534207083E0,3.916649962E-1,-1.018333536E-1,1.295776318E0,1.357500559E0
6.544241083E0,2.414154544E-1,-4.621990085E-1,1.406205663E0,1.499774554E0
6.554275083E0,1.328525403E-1,-6.994123614E-1,1.353211763E0,1.529055108E0
6.564309083E0,6.091344215E-2,-8.671444201E-1,1.176241103E0,1.462598040E0
6.574343083E0,-8.178654023E-2,-9.293927085E-1,8.770513576E-1,1.280499484E0
6.584377083E0,-2.305503045E-1,-9.375735480E-1,6.585280448E-1,1.168698758E0
6.594412083E0,-3.391408467E-1,-1.014709432E0,4.873221552E-1,1.175642220E0
6.604446083E0,-4.546006979E-1,-1.101616014E0,2.758418137E-1,1.223236830E0
6.614480083E0,-5.934476575E-1,-1.128726629E0,-5.482407868E-2,1.276404953E0
6.624514083E0,-9.367078677E-1,-1.092003776E0,-5.169783559E-1,1.528777452E0
6.634548083E0,-8.453845187E-1,-1.030887508E0,-6.461307782E-1,1.481515785E0
6.644582083E0,-6.359648822E-1,-9.127661508E-1,-5.850627503E-1,1.256937468E0
6.654616083E0,-5.465008747E-1,-8.821606547E-1,-4.852083868E-1,1.145555675E0
6.664651083E0,-5.592852270E-1,-8.549091214E-1,-4.354784024E-1,1.110545366E0
6.674685083E0,-5.822357677E-1,-8.584607202E-1,-4.817123365E-1,1.143678308E0
6.684719083E0,-5.884460954E-1,-8.252222228E-1,-6.491546658E-1,1.203603882E0
6.694753083E0,-5.799139845E-1,-6.747254169E-1,-8.620886251E-1,1.238850845E0
6.704787083E0,-5.484376918E-1,-4.934552997E-1,-9.435988113E-1,1.197773247E0
6.714821083E0,-3.439300818E-1,-3.832797235E-1,-8.791329664E-1,1.018855250E0
6.724856083E0,-1.395518415E-1,-2.482745308E-1,-6.628272101E-1,7.214255815E-1
6.734890083E0,1.708674089E-1,-1.686284369E-1,-3.299466848E-1,4.080392579E-1
6.744924083E0,3.944253206E-1,-1.539162576E-1,9.945236742E-2,4.349164532E-1
6.754958083E0,3.886288295E-1,-1.529812878E-1,3.614225391E-1,5.523240836E-1
6.764992083E0,2.474227376E-1,-2.105254912E-1,3.988499817E-1,5.144125790E-1
6.775026083E0,1.877183535E-1,-2.390511328E-1,3.166278970E-1,4.389041461E-1
6.785060083E0,8.277172297E-2,-2.193851924E-1,1.556426480E-1,2.814349919E-1
6.795095083E0,1.776300061E-1,-1.066245621E-1,2.307399005E-1,3.101001741E-1
6.805129083E0,3.294785421E-1,3.243450522E-3,5.217692721E-1,6.170978877E-1
6.815163083E0,3.721847780E-1,5.531582952E-2,8.532727781E-1,9.325533678E-1
6.825197083E0,3.097490864E-1,2.482318461E-2,9.908478221E-1,1.038431555E0
6.835231083E0,1.046064688E-1,-7.565186083E-2,8.896810511E-1,8.989983815E-1
6.845265083E0,-3.447335623E-2,-5.181685567E-2,8.523723069E-1,8.546414151E-1
6.855299083E0,-1.204636060E-2,5.808039308E-3,9.276894146E-1,9.277858040E-1
6.865334083E0,2.178904979E-1,1.286036611E-1,1.266244078E0,1.291274268E0
6.875368083E0,5.213803592E-1,3.872219163E-1,1.767758010E0,1.883280827E0
6.885402083E0,8.339600095E-1,4.196078897E-1,1.982753113E0,2.191545114E0
6.895436083E0,8.405932371E-1,3.945478928E-1,1.717408221E0,1.952371898E0
6.905470083E0,5.346443293E-1,3.125114572E-1,1.159624778E0,1.314624508E0
6.915504250E0,9.911611598E-2,2.604174435E-1,3.580916727E-1,4.537299807E-1
6.925539250E0,-6.202803109E-2,2.823597050E-1,-4.019036901E-1,4.950768180E-1
6.935573250E0,-6.228786673E-2,4.437375945E-1,-8.105892733E-1,9.261953363E-1
6.945607250E0,4.120247819E-2,6.045629221E-1,-7.742049739E-1,9.831517241E-1
6.955641250E0,3.477643935E-1,5.719225949E-1,-3.631816739E-1,7.615355909E-1
6.965675250E0,6.421918014E-1,3.288193417E-1,2.255466959E-1,7.559125487E-1
6.975709250E0,8.474254163E-1,8.183704555E-2,7.659261936E-1,1.145194338E0
6.985743250E0,8.201094174E-1,-1.464920479E-1,1.046253114E0,1.337417270E0
6.995778250E0,7.898361162E-1,-4.372729129E-1,1.360297126E0,1.632622725E0
7.005812250E0,8.097140913E-1,-7.510309964E-1,1.596443655E0,1.941215292E0
7.015846250E0,6.389965904E-1,-1.014415902E0,1.497516075E0,1.918309323E0
7.025880250E0,3.432387216E-1,-1.241391950E0,9.675107074E-1,1.610882914E0
7.035914250E0,-6.449345475E-2,-1.428344391E0,3.499570262E-1,1.472004424E0
7.045948250E0,-1.773021053E-1,-1.475128548E0,1.491531157E-1,1.493213622E0
7.055982250E0,3.388675259E-2,-1.566307690E0,1.002493429E-1,1.569878347E0
7.066017250E0,2.353659617E-2,-1.621812385E0,1.627864838E-2,1.622064850E0
7.076051250E0,3.575420709E-2,-1.480341926E0,-2.420221031E-2,1.480971413E0
7.086085250E0,1.119902230E-1,-1.479596406E0,-2.493015942E-1,1.504625740E0
7.096119250E0,1.575309150E-1,-1.441812283E0,-4.476172221E-1,1.517893219E0
7.106153250E0,1.893362050E-1,-1.252939616E0,-6.456317183E-1,1.422162507E0
7.116187250E0,2.304452008E-1,-1.060919393E0,-8.976423275E-1,1.408693259E0
7.126222250E0,4.308793845E-1,-7.788269055E-1,-1.120843413E0,1.431264598E0
7.136256250E0,5.829685334E-1,-5.431677425E-1,-1.344538003E0,1.562903052E0
7.146290250E0,5.986357458E-1,-3.056947732E-1,-1.493384725E0,1.637684947E0
7.156324250E0,7.087801125E-1,-7.347201884E-2,-1.486547868E0,1.648512041E0
7.166358250E0,8.124293920E-1,6.749441028E-2,-1.385240471E0,1.607323295E0
7.176392250E0,8.153466410E-1,1.234043169E-1,-1.278692508E0,1.521536493E0
7.186426250E0,7.886313705E-1,7.399417520E-2,-1.188552416E0,1.428310688E0
7.196461250E0,7.058700264E-1,-5.548305988E-2,-9.731825066E-1,1.203501165E0
7.206495250E0,5.837609774E-1,-1.639687908E-1,-3.857042715E-1,7.186309401E-1
7.216529250E0,7.509894081E-1,-3.481332797E-1,1.943708038E-1,8.502716512E-1
7.226563250E0,6.670031454E-1,-5.277310932E-1,5.234930313E-1,9.987183068E-1
7.236597250E0,4.256949873E-1,-5.339425904E-1,6.780010271E-1,9.622870179E-1
7.246631250E0,3.147875590E-1,-5.805940157E-1,6.024678648E-1,8.939508635E-1
7.256665250E0,2.798435750E-1,-5.603737593E-1,3.104020742E-1,6.990569535E-1
7.266700250E0,2.533224320E-1,-4.456075341E-1,-8.300853521E-2,5.192578800E-1
7.276734250E0,2.948711568E-1,-3.224803752E-1,-5.094205374E-1,6.711571167E-1
7.286768250E0,3.840019277E-1,-2.237004375E-1,-8.049306303E-1,9.194632597E-1
7.296802250E0,4.860843728E-1,-1.094809270E-1,-1.058637809E0,1.170033376E0
7.306836250E0,5.638613676E-1,1.299719095E-2,-1.372773623E0,1.484121285E0
7.316870250E0,6.130331256E-1,1.275002915E-1,-1.634001490E0,1.749864797E0
7.326905250E0,6.812926441E-1,2.684018165E-1,-1.701782999E0,1.852637195E0
7.336939250E0,7.473596759E-1,3.492945367E-1,-1.790274176E0,1.971201355E0
7.346973250E0,7.997383759E-1,4.582872212E-1,-1.883843075E0,2.097253771E0
7.357007250E0,8.098641454E-1,5.328012139E-1,-1.944955834E0,2.173156751E0
7.367041250E0,7.262293734E-1,5.435010338E-1,-1.850437640E0,2.060806137E0
7.377075250E0,5.585429595E-1,5.190625960E-1,-1.709778189E0,1.872094462E0
7.387109250E0,4.444567289E-1,4.338885444E-1,-1.550836542E0,1.670597209E0
7.397144250E0,2.987813178E-1,3.397857946E-1,-1.251691528E0,1.330960684E0
7.407178250E0,2.900421423E-1,3.949887729E-1,-9.083936030E-1,1.032143165E0
7.417212250E0,2.823187014E-1,4.511173654E-1,-6.203407565E-1,8.173330904E-1
7.427246250E0,2.782518532E-1,4.973483759E-1,-4.240810096E-1,7.103690615E-1
7.437280250E0,2.755284577E-1,5.407411480E-1,-2.121697283E-1,6.429097244E-1
7.447314250E0,2.286099791E-1,5.188363087E-1,2.686035454E-2,5.676047185E-1
7.457348250E0,1.838460715E-1,5.123429757E-1,2.132903472E-1,5.846259274E-1
7.467383250E0,2.056920731E-1,5.105057806E-1,4.024629763E-1,6.818370980E-1
7.477417250E0,2.555241828E-1,5.399523586E-1,5.776060885E-1,8.309452154E-1
7.487451250E0,2.614018040E-1,6.276500684E-1,6.957028878E-1,9.727682250E-1
7.497485250E0,2.047490817E-1,7.966942424E-1,6.792763048E-1,1.066799044E0
7.507519250E0,6.744844568E-2,9.689385974E-1,3.583986515E-1,1.035297490E0
7.517553250E0,-2.595662351E-1,1.110122543E0,-1.528558651E-1,1.150265885E0
7.527588250E0,-5.901600605E-1,1.174874024E0,-7.043827870E-1,1.491567290E0
7.537622250E0,-9.197690687E-1,1.252036806E0,-1.120965035E0,1.915759357E0
7.547656250E0,-1.177553438E0,1.458173377E0,-1.193918990E0,2.222238568E0
7.557690250E0,-1.021552867E0,1.566950884E0,-8.218173891E-1,2.043107720E0
7.567724250E0,-7.197599410E-1,1.459517067E0,-1.177518135E-1,1.631597356E0
7.577758250E0,-4.937561390E-1,1.296735261E0,5.494964764E-1,1.492402037E0
7.587792250E0,-2.646079602E-1,1.054121420E0,1.120793712E0,1.561207188E0
7.597827250E0,-3.650900726E-2,8.037734663E-1,1.653366592E0,1.838751147E0
7.607861250E0,8.009400884E-2,5.071284288E-1,2.050787806E0,2.114077794E0
7.617895250E0,1.448073098E-1,1.681051111E-1,2.228645196E0,2.239662451E0
7.627929250E0,1.601077464E-1,-1.958407938E-1,2.198207515E0,2.212714258E0
7.637963250E0,9.660557739E-2,-4.736689067E-1,2.099522595E0,2.154458168E0
7.647997250E0,-7.440595622E-2,-7.501363724E-1,1.912226337E0,2.055444085E0
7.658031250E0,-2.541191152E-1,-1.045910175E0,1.581271300E0,1.912831289E0
7.668066250E0,-5.235602012E-1,-1.290291045E0,1.180474195E0,1.825509679E0
7.678100250E0,-8.361207750E-1,-1.502843181E0,5.717328528E-1,1.812322828E0
7.688134250E0,-1.220546114E0,-1.672924651E0,9.358585596E-2,2.072961171E0
7.698168250E0,-1.443738794E0,-1.826196545E0,-2.936541867E-1,2.346403271E0
7.708202250E0,-1.491431316E0,-1.851576385E0,-3.952232462E-1,2.410166777E0
7.718236250E0,-1.427334723E0,-1.727110214E0,-4.666572180E-1,2.288659665E0
7.728270250E0,-1.341578581E0,-1.375789032E0,-6.394248989E-1,2.025214248E0
7.738305250E0,-1.067046763E0,-9.558466816E-1,-8.009872681E-1,1.641283728E0
7.748339250E0,-8.296742197E-1,-6.626783985E-1,-9.939053312E-1,1.454424208E0
7.758373250E0,-7.499635141E-1,-4.108587009E-1,-1.279001825E0,1.538536907E0
7.768407250E0,-6.376370396E-1,-1.735669953E-1,-1.372312862E0,1.523137908E0
7.778441250E0,-4.742105050E-1,-3.023419797E-2,-1.375744008E0,1.455493486E0
7.788475250E0,-2.671242730E-1,2.819936693E-2,-1.170301502E0,1.200731521E0
7.798509250E0,-1.264518400E-1,-2.292108536E-3,-8.634460562E-1,8.726593915E-1
7.808544250E0,-1.138066606E-1,-7.276801407E-2,-6.120029193E-1,6.267333668E-1
7.818578250E0,-1.584151967E-1,-1.101533568E-1,-5.015381983E-1,5.373729626E-1
7.828612250E0,-2.014153648E-1,-1.774571478E-1,-5.600621027E-1,6.210706460E-1
7.838646250E0,-3.048921332E-1,-2.495848918E-1,-6.831199721E-1,7.886093629E-1
7.848680250E0,-3.751175221E-1,-2.649496204E-1,-7.040033028E-1,8.405546425E-1
7.858714250E0,-3.793888400E-1,-3.389917427E-1,-5.810655937E-1,7.723266911E-1
7.868748250E0,-4.133257873E-1,-3.769939667E-1,-5.319247162E-1,7.719498437E-1
7.878783250E0,-4.639708975E-1,-3.750018203E-1,-6.017968968E-1,8.473811798E-1
7.888817250E0,-4.691415538E-1,-3.616964811E-1,-6.949374872E-1,9.131572992E-1
7.898851250E0,-4.530131423E-1,-3.023916811E-1,-7.895200011E-1,9.591681125E-1
7.908885250E0,-4.343844249E-1,-2.143232578E-1,-8.974189639E-1,1.019796590E0
7.918919375E0,-3.773545206E-1,-1.237305915E-1,-9.684924549E-1,1.046748933E0
7.928953375E0,-2.785612075E-1,-9.483599067E-3,-9.145437044E-1,9.560734659E-1
7.938988375E0,-1.880158306E-1,8.640956819E-2,-8.564349523E-1,8.810774050E-1
7.949022375E0,-1.918522071E-1,1.462727773E-1,-9.142574832E-1,9.455526111E-1
7.959056375E0,-2.445653130E-1,2.685509205E-1,-1.044907962E0,1.106238870E0
7.969090375E0,-2.203885381E-1,4.167614651E-1,-1.139386980E0,1.233070930E0
7.979124375E0,-1.694498611E-1,5.246104342E-1,-1.040105059E0,1.177177938E0
7.989158375E0,-1.208009903E-1,6.147113496E-1,-9.372496122E-1,1.127341899E0
7.999192375E0,-4.004884081E-2,6.252129489E-1,-8.488712865E-1,1.055024930E0
8.009227375E0,4.085146252E-2,5.557281464E-1,-7.014816910E-1,8.958678349E-1
8.019261375E0,-6.567846609E-2,4.934506220E-1,-5.639545941E-1,7.522313218E-1
8.029295375E0,-1.626218846E-1,4.210387033E-1,-4.604033285E-1,6.447407944E-1
8.039329375E0,-1.870791615E-1,4.120848620E-1,-3.251899749E-1,5.572800606E-1
8.049363375E0,-1.886497784E-1,4.348012948E-1,-2.246529490E-1,5.245091537E-1
8.059397375E0,-2.056306774E-1,5.050152451E-1,-1.649128237E-1,5.696671069E-1
8.069431375E0,-2.326619899E-1,5.812629372E-1,-1.496995381E-1,6.437454119E-1
8.079466375E0,-2.349822564E-1,6.685554349E-1,-1.805240124E-1,7.312810332E-1
8.089500375E0,-1.594315524E-1,7.793549091E-1,-1.851903829E-1,8.167667795E-1
8.099534375E0,2.303817585E-2,7.966679299E-1,-8.404846251E-2,8.014204216E-1
8.109568375E0,1.260062548E-1,7.595509744E-1,9.166943103E-2,7.753699398E-1
8.119602375E0,2.512696939E-1,7.169171709E-1,3.679418921E-1,8.440899981E-1
8.129636375E0,3.705722987E-1,6.361209297E-1,6.289966822E-1,9.683028927E-1
8.139670375E0,5.198664785E-1,5.747853917E-1,8.443940735E-1,1.146141681E0
8.149705375E0,5.689117905E-1,5.102040642E-1,1.051098994E0,1.299529880E0
8.159739375E0,5.459139239E-1,5.040112782E-1,1.224150850E0,1.431989764E0
8.169773375E0,2.190010303E-1,7.228830850E-1,1.078465425E0,1.316665895E0
8.179807375E0,6.534091730E-2,7.834941530E-1,5.320445842E-1,9.493176301E-1
8.189841375E0,1.609994285E-3,7.214627963E-1,-9.964064777E-2,7.283127194E-1
8.199875375E0,-1.771185575E-1,9.111645985E-1,-3.849836022E-1,1.004890184E0
8.209909375E0,-3.661723054E-1,1.155563010E0,-3.852233380E-1,1.271929655E0
8.219944375E0,-2.892821870E-1,1.313747150E0,-9.201763272E-2,1.348363083E0
8.229978375E0,1.309114109E-1,1.375201972E0,5.303427520E-1,1.479723520E0
8.240012375E0,6.097464423E-1,1.253131405E0,1.332668448E0,1.928246414E0
8.250046375E0,8.109390830E-1,1.044936029E0,1.933394135E0,2.342546986E0
8.260080375E0,1.037739422E0,7.719459021E-1,2.583091130E0,2.888799641E0
8.270114375E0,1.298660749E0,4.292370844E-1,3.200262403E0,3.480293617E0
8.280148375E0,1.457977934E0,1.336995095E-1,3.605653080E0,3.891569008E0
8.290183375E0,1.568212567E0,-1.400530940E-1,3.717367643E0,4.037044429E0
8.300217375E0,1.390344798E0,-4.830016476E-1,3.529064788E0,3.823695532E0
8.310251375E0,1.167926217E0,-8.147732484E-1,3.043270510E0,3.359970608E0
8.320285375E0,8.882503105E-1,-1.120206066E0,2.351438479E0,2.751928990E0
8.330319375E0,6.981079207E-1,-1.317127426E0,1.632876779E0,2.210987539E0
8.340353375E0,5.820100652E-1,-1.418076096E0,9.374539724E-1,1.796801458E0
8.350387375E0,3.900720685E-1,-1.435103772E0,1.632671249E-1,1.496106684E0
8.360422375E0,2.606990966E-1,-1.367849098E0,-5.181334734E-1,1.485744753E0
8.370456375E0,2.177640884E-1,-1.308558916E0,-1.099002893E0,1.722659279E0
8.380490375E0,1.603758960E-1,-1.137411498E0,-1.553087720E0,1.931710851E0
8.390524375E0,1.134913860E-1,-9.579008085E-1,-1.954894639E0,2.179923692E0
8.400558375E0,8.910166282E-2,-8.576573128E-1,-2.189034695E0,2.352740545E0
8.410592375E0,2.560368192E-1,-7.441704583E-1,-2.216911004E0,2.352453809E0
8.420626375E0,4.414791440E-1,-6.788073581E-1,-1.943077416E0,2.105049432E0
8.430661375E0,6.470602662E-1,-7.036819983E-1,-1.473614704E0,1.756529430E0
8.440695375E0,7.424274033E-1,-8.338801950E-1,-1.165136071E0,1.613721380E0
8.450729375E0,6.698657960E-1,-9.486312175E-1,-1.110253228E0,1.606637359E0
8.460763375E0,5.472399627E-1,-1.009797771E0,-1.145543806E0,1.622169451E0
8.470797375E0,4.324128534E-1,-1.061089547E0,-1.170168770E0,1.637738334E0
8.480831375E0,3.764306240E-1,-1.094405227E0,-1.118337589E0,1.609379315E0
8.490866375E0,3.916881658E-1,-1.018859201E0,-9.866884053E-1,1.471410106E0
8.500900375E0,4.479344335E-1,-9.428559226E-1,-8.752784818E-1,1.362253636E0
8.510934375E0,4.614795817E-1,-9.126071066E-1,-7.883929503E-1,1.291270142E0
8.520968375E0,5.156325462E-1,-8.849018294E-1,-6.244490102E-1,1.199526880E0
8.531002375E0,5.532410333E-1,-8.203702033E-1,-5.128566536E-1,1.114497581E0
8.541036375E0,5.334486834E-1,-6.751499248E-1,-5.583289880E-1,1.025732020E0
8.551070375E0,5.641107513E-1,-5.560398030E-1,-6.481357884E-1,1.023465291E0
8.561105375E0,4.377541753E-1,-4.476879734E-1,-9.008261365E-1,1.097060148E0
8.571139375E0,3.376118729E-1,-2.547865748E-1,-1.119176079E0,1.196433480E0
8.581173375E0,2.296004426E-1,-1.125553930E-1,-1.358733289E0,1.382584981E0
8.591207375E0,3.363622499E-1,5.274188519E-2,-1.475112468E0,1.513894998E0
8.601241375E0,4.280137738E-1,1.859490591E-1,-1.493712461E0,1.564912061E0
8.611275375E0,6.073533596E-1,3.172471172E-1,-1.542738733E0,1.688065945E0
8.621309375E0,6.852530363E-1,3.772442275E-1,-1.549297847E0,1.735571592E0
8.631344375E0,8.320188070E-1,3.244292521E-1,-1.474428052E0,1.723788767E0
8.641378375E0,7.881899788E-1,1.747025245E-1,-1.253799449E0,1.491233541E0
8.651412375E0,8.173139367E-1,7.744929492E-2,-9.137932143E-1,1.228421142E0
8.661446375E0,7.583231322E-1,-4.093869567E-2,-5.986601579E-1,9.670180631E-1
8.671480375E0,6.767009718E-1,-1.478117645E-1,-4.218210608E-1,8.109904625E-1
8.681514375E0,4.843590056E-1,-1.968517774E-1,-4.645425725E-1,6.993955035E-1
8.691548375E0,2.481942960E-1,-1.942661387E-1,-6.261140049E-1,7.009696771E-1
8.701583375E0,5.323971164E-2,-1.146826100E-1,-8.372321114E-1,8.467255614E-1
8.711617375E0,-1.389200407E-1,-4.135677159E-2,-9.680752560E-1,9.788661102E-1
8.721651375E0,-2.654894646E-1,3.782680750E-2,-9.780158150E-1,1.014115604E0
8.731685375E0,-3.164162278E-1,7.986302555E-2,-8.474504131E-1,9.081131729E-1
8.741719375E0,-2.931101216E-1,1.053948927E-1,-6.662019306E-1,7.354227622E-1
8.751753375E0,-2.904996870E-1,1.676250547E-1,-4.332757562E-1,5.479198007E-1
8.761787375E0,-1.927783329E-1,2.869567859E-1,-2.350118762E-1,4.180170626E-1
8.771822375E0,-7.615688668E-2,3.823850995E-1,-2.437733442E-2,3.906564861E-1
8.781856375E0,8.504901247E-2,5.059420288E-1,1.855192888E-1,5.455530015E-1
8.791890375E0,2.019978023E-1,6.003307074E-1,4.441580093E-1,7.736125695E-1
8.801924375E0,2.478468252E-1,6.840207356E-1,7.326394567E-1,1.032508106E0
8.811958375E0,-2.919868349E-2,8.768537217E-1,9.450182229E-1,1.289489998E0
8.821992375E0,-5.214531570E-1,1.130563239E0,7.231231132E-1,1.439789453E0
8.832026375E0,-9.811967003E-1,1.288783633E0,1.109509170E-1,1.623582558E0
8.842061375E0,-1.258040873E0,1.433910356E0,-3.537594706E-1,1.940080284E0
8.852095375E0,-1.498803632E0,1.763304479E0,-5.123257264E-1,2.370260041E0
8.862129375E0,-1.390897506E0,2.188291222E0,-2.838934296E-1,2.608411360E0
8.872163375E0,-9.731154829E-1,2.279632332E0,1.803813404E-1,2.485199135E0
8.882197375E0,-5.418155739E-1,2.207260174E0,8.646979451E-1,2.431720405E0
8.892231375E0,1.371405046E-3,2.154075655E0,1.669152320E0,2.725089590E0
8.902265375E0,5.377132405E-1,1.877606435E0,2.482987967E0,3.159077507E0
8.912300375E0,1.041776559E0,1.507216898E0,3.243951629E0,3.725617177E0
8.922334333E0,1.404390395E0,1.055701337E0,3.832237072E0,4.215786839E0
8.932368333E0,1.417003278E0,4.504461050E-1,4.015359587E0,4.281811836E0
8.942402333E0,1.075411571E0,-9.191238284E-2,3.641224324E0,3.797824708E0
8.952436333E0,5.609390388E-1,-4.965660185E-1,2.885317335E0,2.980987510E0
8.962470333E0,1.200596182E-1,-9.393142641E-1,2.081416399E0,2.286705015E0
8.972504333E0,-2.871388719E-1,-1.224535596E0,1.463856286E0,1.929977042E0
8.982539333E0,-5.955932202E-1,-1.340232114E0,8.886972570E-1,1.714857492E0
8.992573333E0,-9.963218392E-1,-1.331427376E0,2.725033459E-1,1.685115468E0
9.002607333E0,-1.108559875E0,-1.341509145E0,-3.002308425E-1,1.765981410E0
9.012641333E0,-1.167212125E0,-1.191843229E0,-7.027347493E-1,1.810168654E0
9.022675333E0,-1.182237715E0,-8.708673424E-1,-7.875132367E-1,1.666215185E0
9.032709333E0,-1.020560448E0,-6.679198426E-1,-8.561592561E-1,1.490191000E0
9.042743333E0,-9.594014964E-1,-6.147733301E-1,-1.041195857E0,1.543530463E0
9.052777333E0,-9.798386845E-1,-5.942133504E-1,-1.287900411E0,1.723908588E0
9.062812333E0,-9.790677291E-1,-5.816184479E-1,-1.355165902E0,1.770120973E0
9.072846333E0,-9.872229139E-1,-5.735253167E-1,-1.354602816E0,1.771578155E0
9.082880333E0,-9.091171228E-1,-5.999494690E-1,-1.292400135E0,1.690186800E0
9.092914333E0,-7.383152758E-1,-5.868136990E-1,-1.016975228E0,1.386974541E0
9.102948333E0,-4.994123334E-1,-5.758630335E-1,-4.719509947E-1,8.965314571E-1
9.112982333E0,-2.154946013E-1,-5.358844507E-1,2.081100065E-1,6.139379793E-1
9.123017333E0,-2.411285754E-2,-5.103952682E-1,7.150098091E-1,8.788195417E-1
9.133051333E0,3.036254436E-2,-6.044407153E-1,9.613915962E-1,1.136021243E0
9.143085333E0,2.748191357E-3,-8.068637198E-1,9.942815995E-1,1.280481360E0
9.153119333E0,-6.756187253E-2,-9.520068151E-1,9.519869345E-1,1.348021033E0
9.163153333E0,-2.601396277E-1,-1.068752908E0,7.562087059E-1,1.334824711E0
9.173187333E0,-4.131333774E-1,-1.089776571E0,3.710321456E-1,1.223093216E0
9.183221333E0,-4.721747969E-1,-9.872023755E-1,2.616044283E-2,1.094624108E0
9.193256333E0,-4.453239806E-1,-8.770519423E-1,-2.693356168E-1,1.019840787E0
9.203290333E0,-4.151276068E-1,-7.201003951E-1,-4.294639564E-1,9.355825986E-1
9.213324333E0,-3.316486631E-1,-5.767143881E-1,-4.265532124E-1,7.902771439E-1
9.223358333E0,-2.405903758E-1,-4.878396338E-1,-3.849982202E-1,6.664044319E-1
9.233392333E0,-2.228763456E-1,-4.349924988E-1,-4.182796946E-1,6.433119324E-1
9.243426333E0,-2.163903582E-1,-4.365811872E-1,-4.638648802E-1,6.727544480E-1
9.253460333E0,-2.365709997E-1,-4.934652400E-1,-4.262047184E-1,6.936312010E-1
9.263494333E0,-3.198800453E-1,-4.216175777E-1,-4.382961756E-1,6.871594886E-1
9.273529333E0,-3.533384711E-1,-3.124868989E-1,-5.588774568E-1,7.313276617E-1
9.283563333E0,-4.649159903E-1,-2.898096424E-1,-7.265931433E-1,9.099857707E-1
9.293597333E0,-4.583699593E-1,-1.891813999E-1,-7.654163164E-1,9.120058986E-1
9.303631333E0,-4.307228253E-1,-7.865557551E-2,-6.191382766E-1,7.583146163E-1
9.313665333E0,-2.809818817E-1,-3.245497048E-2,-3.371095240E-1,4.400533765E-1
9.323699333E0,-1.301471067E-1,-6.569697618E-2,-1.346949980E-1,1.984870387E-1
9.333733333E0,-1.719141336E-1,-9.364140451E-2,-6.749762625E-2,2.070727203E-1
9.343768333E0,-8.765422113E-2,-1.414868313E-1,-2.602975756E-2,1.684616698E-1
9.353802333E0,-1.616218646E-1,-1.460418123E-1,-1.405565393E-1,2.592411595E-1
9.363836333E0,-2.421940843E-1,-5.322720408E-2,-3.886498064E-1,4.610203702E-1
9.373870333E0,-3.521582471E-1,1.379925352E-1,-5.312300670E-1,6.521217332E-1
9.383904333E0,-3.796893138E-1,3.218161315E-1,-5.831539267E-1,7.666799200E-1
9.393938333E0,-2.959239662E-1,5.050409728E-1,-4.965326893E-1,7.675819758E-1
9.403972333E0,-1.737374051E-1,6.158807927E-1,-3.470854586E-1,7.279849946E-1
9.414007333E0,-1.101210144E-1,6.653944302E-1,-9.070142448E-2,6.805168138E-1
9.424041333E0,-1.786273219E-2,6.489199001E-1,1.865545383E-1,6.754396418E-1
9.434075333E0,1.888749510E-1,5.751292080E-1,4.657722420E-1,7.638004545E-1
9.444109333E0,4.765689795E-1,4.788062704E-1,8.272699177E-1,1.068058497E0
9.454143333E0,6.675118531E-1,3.898367912E-1,1.264486697E0,1.482049731E0
9.464177333E0,6.821728693E-1,3.897555149E-1,1.599025493E0,1.781614917E0
9.474211333E0,5.115900736E-1,5.577448511E-1,1.424558904E0,1.613124853E0
9.484246333E0,2.057103274E-1,7.448007882E-1,6.854565194E-1,1.032906381E0
9.494280333E0,-5.869542880E-2,9.461479050E-1,-1.414295286E-1,9.584588270E-1
9.504314333E0,-2.765498019E-1,1.286306167E0,-6.761419049E-1,1.479267124E0
9.514348333E0,-3.994429259E-1,1.668377856E0,-9.539703101E-1,1.962931143E0
9.524382333E0,-3.077236474E-1,1.982775040E0,-9.947879684E-1,2.239574470E0
9.534416333E0,-5.640146103E-2,2.168737548E0,-9.149395609E-1,2.354510156E0
9.544450333E0,2.160171779E-1,2.290107619E0,-5.857737717E-1,2.373686424E0
9.554485333E0,6.107018407E-1,2.326052792E0,1.816694820E-1,2.411738404E0
9.564519333E0,1.152812553E0,2.150197197E0,9.552333087E-1,2.620075465E0
9.574553333E0,1.596106855E0,1.753759484E0,1.716164226E0,2.927191328E0
9.584587333E0,1.999924485E0,1.199249897E0,2.629458965E0,3.514534494E0
9.594621333E0,2.361505776E0,6.720158172E-1,3.507245025E0,4.281247769E0
9.604655333E0,2.629758050E0,1.244462907E-1,3.920600780E0,4.722523134E0
9.614689333E0,2.473193004E0,-4.049758172E-1,3.760278897E0,4.518892169E0
9.624724333E0,2.067484092E0,-7.682498771E-1,2.964772517E0,3.695209659E0
9.634758333E0,1.697147765E0,-1.097981969E0,1.857954528E0,2.745518160E0
9.644792333E0,1.375438053E0,-1.443584574E0,9.509835523E-1,2.209102980E0
9.654826333E0,1.074437278E0,-1.620335963E0,2.130754620E-1,1.955838759E0
9.664860333E0,6.158524337E-1,-1.654131700E0,-4.893169329E-1,1.831626862E0
9.674894333E0,2.837230198E-1,-1.644279141E0,-1.123396015E0,2.011509695E0
9.684928333E0,1.274129487E-1,-1.571757295E0,-1.653079201E0,2.284584404E0
9.694963333E0,4.109569341E-2,-1.438057786E0,-2.041337244E0,2.497349954E0
9.704997333E0,-7.316679418E-2,-1.281547703E0,-2.164274953E0,2.516307606E0
9.715031333E0,-1.985546328E-1,-1.217713065E0,-2.167304980E0,2.493884506E0
9.725065333E0,-2.166061935E-1,-1.148832280E0,-2.085563244E0,2.390880151E0
9.735099333E0,-8.240561418E-2,-9.850008988E-1,-1.924368957E0,2.163380073E0
9.745133333E0,2.020732679E-1,-8.748674226E-1,-1.561401291E0,1.801166457E0
9.755167333E0,4.447240929E-1,-8.049528497E-1,-1.083139105E0,1.420886670E0
9.765202333E0,5.723752425E-1,-7.644614661E-1,-7.710869461E-1,1.227432210E0
9.775236333E0,6.742728424E-1,-7.191648406E-1,-4.675840017E-1,1.091089700E0
9.785270333E0,8.121349847E-1,-7.240080893E-1,-8.007177114E-3,1.088032657E0
9.795304333E0,1.021859261E0,-7.801226485E-1,5.948951358E-1,1.416576125E0
9.805338333E0,1.254241791E0,-8.430907291E-1,1.158007146E0,1.903918327E0
9.815372333E0,1.345346673E0,-9.196459848E-1,1.492055653E0,2.209510461E0
9.825406333E0,1.288715220E0,-9.474951035E-1,1.521073922E0,2.207305997E0
9.835441333E0,1.171001413E0,-9.291009325E-1,1.022813965E0,1.811248536E0
9.845475333E0,8.795902187E-1,-8.692277831E-1,2.645593187E-1,1.264605680E0
9.855509333E0,5.884056035E-1,-7.767932439E-1,-3.253519428E-1,1.027366918E0
9.865543333E0,5.750690547E-1,-6.541075498E-1,-5.936833003E-1,1.054049793E0
9.875577333E0,6.667419941E-1,-4.775368398E-1,-6.331569761E-1,1.036085941E0
9.885611333E0,7.625110542E-1,-2.492270422E-1,-5.924603552E-1,9.972695216E-1
9.895645333E0,7.693719578E-1,-2.266439259E-1,-3.899458417E-1,8.918287044E-1
9.905679333E0,7.617456537E-1,-1.738441533E-1,-5.784685528E-1,9.721646451E-1
9.915714333E0,6.587158135E-1,3.225733459E-2,-8.954045981E-1,1.112068547E0
9.925748333E0,5.759695259E-1,1.550564647E-1,-8.978683224E-1,1.077938276E0
9.935782333E0,7.137154549E-1,1.638810825E-1,-7.434687924E-1,1.043548085E0
9.945816333E0,8.451602780E-1,2.458146071E-1,-5.617703667E-1,1.044177505E0
9.955850333E0,8.186740722E-1,4.122456604E-1,-4.286620107E-1,1.011891714E0
9.965884333E0,1.006221322E0,3.900870520E-1,-3.465995550E-1,1.133481587E0
9.975918333E0,1.118391602E0,2.884560120E-1,-2.722861218E-1,1.186653437E0
9.985953333E0,1.111209175E0,2.689268965E-1,-1.343672615E-1,1.151156839E0
9.995987333E0,1.064894403E0,2.248190099E-1,-1.055989605E-1,1.093478311E0
1.000602133E1,1.034810332E0,1.592992043E-1,-1.553160810E-1,1.058457248E0
1.001605533E1,9.489168540E-1,5.025857270E-2,-2.698779461E-1,9.878275283E-1
1.002608933E1,7.573032316E-1,-2.683521152E-2,-3.649147886E-1,8.410654648E-1
1.003612333E1,6.247575970E-1,-7.749022543E-2,-4.738834995E-1,7.879672335E-1
1.004615733E1,5.453494117E-1,-1.106240577E-1,-6.789661101E-1,8.778602631E-1
1.005619233E1,3.831396827E-1,-8.737903655E-2,-7.655788690E-1,8.605475682E-1
1.006622633E1,2.856264713E-1,-3.097036242E-2,-9.015713641E-1,9.462412848E-1
1.007626033E1,1.834396534E-1,5.093509555E-2,-1.023774078E0,1.041325047E0
1.008629433E1,1.854970694E-1,7.841525495E-2,-1.085745209E0,1.104264811E0
1.009632833E1,2.283070202E-1,9.052191496E-2,-1.047115871E0,1.075532407E0
1.010636233E1,2.619271946E-1,6.236347854E-2,-9.233259299E-1,9.617826322E-1
1.011639633E1,3.602226904E-1,1.699551702E-2,-6.232055998E-1,7.200239259E-1
1.012643133E1,4.827926096E-1,-5.695714295E-2,-2.783654720E-1,5.601965334E-1
1.013646533E1,5.411999352E-1,-1.529117060E-1,-2.464016676E-2,5.629267248E-1
1.014649933E1,6.185393755E-1,-1.344380128E-1,2.912439644E-1,6.967693917E-1
1.015653333E1,6.611694514E-1,-1.570456874E-1,4.871762672E-1,8.361513659E-1
1.016656733E1,5.229887089E-1,-5.280503511E-2,5.068322673E-1,7.301948429E-1
1.017660133E1,1.917192377E-1,2.359848529E-1,3.103742999E-1,4.344851240E-1
1.018663533E1,-1.071784396E-1,5.744023991E-1,-7.985513180E-2,5.897475528E-1
1.019666933E1,-2.237901923E-1,9.867842996E-1,-5.585245773E-1,1.155757331E0
1.020670433E1,-3.755977978E-1,1.473283752E0,-8.988316512E-1,1.766221123E0
1.021673833E1,-4.820594419E-1,2.007082500E0,-9.838431501E-1,2.286637010E0
1.022677233E1,-5.286600696E-1,2.426015621E0,-9.879011178E-1,2.672261567E0
1.023680633E1,-3.742848786E-1,2.642638004E0,-7.409600446E-1,2.769954256E0
1.024684033E1,-1.092702810E-1,2.722384670E0,2.200014889E-2,2.724665538E0
1.025687433E1,4.024045041E-1,2.488708883E0,1.068057674E0,2.737946034E0
1.026690833E1,9.881016042E-1,2.044932697E0,1.955510351E0,2.997017725E0
1.027694333E1,1.389532620E0,1.500293210E0,2.625688388E0,3.328050500E0
1.028697733E1,1.629318309E0,8.492080861E-1,3.112602408E0,3.614433050E0
1.029701133E1,1.637088528E0,2.091478872E-1,3.145222270E0,3.551932546E0
1.030704533E1,1.458447319E0,-2.839501476E-1,2.636603678E0,3.026445972E0
1.031707933E1,1.148370131E0,-6.010119081E-1,1.760297548E0,2.186004741E0
1.032711333E1,8.772050663E-1,-8.269266862E-1,8.999774131E-1,1.504412117E0
1.033714733E1,6.183771884E-1,-8.956577826E-1,2.429263750E-1,1.115171034E0
1.034718233E1,2.226369021E-1,-9.091514021E-1,-3.457976094E-1,9.978474076E-1
1.035721633E1,3.984892085E-2,-8.231037766E-1,-8.511090159E-1,1.184683215E0
1.036725033E1,-9.473454148E-2,-7.331525499E-1,-1.239829866E0,1.443490697E0
1.037728433E1,-3.187312867E-1,-6.569826257E-1,-1.637504557E0,1.792940874E0
1.038731833E1,-5.762916344E-1,-5.747666806E-1,-1.862813564E0,2.032865750E0
1.039735233E1,-7.148521536E-1,-5.014659852E-1,-1.877807871E0,2.070904184E0
1.040738633E1,-7.211414187E-1,-4.258959854E-1,-1.704218657E0,1.898892721E0
1.041742133E1,-6.608478545E-1,-3.982807553E-1,-1.462662284E0,1.653701426E0
1.042745533E1,-6.425390529E-1,-4.168766552E-1,-1.086959091E0,1.329707729E0
1.043748933E1,-6.921377673E-1,-4.435206628E-1,-6.561017427E-1,1.051776955E0
1.044752333E1,-6.954739693E-1,-5.596487045E-1,-1.795226768E-1,9.105597761E-1
1.045755733E1,-5.848759317E-1,-6.785723001E-1,4.601939982E-1,1.007133923E0
1.046759133E1,-4.903943554E-1,-8.422042912E-1,1.058994489E0,1.439188667E0
1.047762533E1,-4.823682480E-1,-9.943418258E-1,1.404687141E0,1.787327826E0
1.048765933E1,-5.093300517E-1,-1.139573799E0,1.540811491E0,1.982963841E0
1.049769433E1,-5.427261315E-1,-1.262528465E0,1.610081701E0,2.116811957E0
1.050772833E1,-6.342697012E-1,-1.412374476E0,1.590652865E0,2.219746889E0
1.051776233E1,-6.826412313E-1,-1.420764645E0,1.435290883E0,2.131814051E0
1.052779633E1,-7.150693776E-1,-1.319580333E0,1.103183067E0,1.862694111E0
1.053783033E1,-6.358728616E-1,-1.172614076E0,6.208912718E-1,1.471347694E0
1.054786433E1,-5.899587701E-1,-1.039392284E0,1.999458316E-1,1.211761530E0
1.055789833E1,-5.613856199E-1,-9.206511211E-1,-1.322306889E-1,1.086387250E0
1.056793333E1,-5.407844174E-1,-8.186131150E-1,-4.421746337E-1,1.076147585E0
1.057796733E1,-5.106680408E-1,-7.633873326E-1,-7.253567496E-1,1.170335201E0
1.058800133E1,-4.417449365E-1,-6.971436417E-1,-9.066812459E-1,1.226058207E0
1.059803533E1,-4.367430089E-1,-6.465593791E-1,-1.010255316E0,1.276479255E0
1.060806933E1,-4.560065878E-1,-6.450964057E-1,-1.124370453E0,1.374154394E0
1.061810333E1,-4.529643546E-1,-6.246551245E-1,-1.119536268E0,1.359680913E0
1.062813733E1,-4.074393953E-1,-5.129879236E-1,-9.964620262E-1,1.192518361E0
1.063817233E1,-3.920669192E-1,-4.193389177E-1,-8.974321201E-1,1.065338447E0
1.064820633E1,-3.982373397E-1,-3.611357331E-1,-8.250742882E-1,9.847637166E-1
1.065824033E1,-4.070563296E-1,-3.035973769E-1,-6.978245500E-1,8.630326328E-1
1.066827433E1,-3.632684685E-1,-2.743466806E-1,-4.498888654E-1,6.400234937E-1
1.067830833E1,-2.596646145E-1,-2.771428192E-1,-9.923397392E-2,3.925318278E-1
1.068834233E1,-1.314943052E-1,-2.817556876E-1,2.266123509E-1,3.847469004E-1
1.069837633E1,-8.436896302E-2,-2.594187391E-1,4.092118326E-1,4.918033428E-1
1.070841033E1,-4.531654257E-2,-1.694856387E-1,4.997778940E-1,5.296762352E-1
1.071844533E1,-7.392561659E-3,-4.092641652E-2,4.952337304E-1,4.969769303E-1
1.072847933E1,-4.175620951E-2,1.119484520E-1,3.834036845E-1,4.015898682E-1
1.073851333E1,-8.743041895E-2,2.817159265E-1,3.092364317E-1,4.273582948E-1
1.074854733E1,-8.597354863E-2,4.501952595E-1,4.152139995E-1,6.184414993E-1
1.075858133E1,-1.675746225E-2,5.572045684E-1,6.467453206E-1,8.538367837E-1
1.076861533E1,-1.212054715E-2,6.862912095E-1,8.695084494E-1,1.107784941E0
1.077864933E1,-9.191373501E-2,9.390318435E-1,9.878040540E-1,1.366010903E0
1.078868433E1,-2.555407195E-1,1.183817341E0,9.274289212E-1,1.525401245E0
1.079871833E1,-3.965829066E-1,1.512464774E0,5.351634890E-1,1.652642628E0
1.080875233E1,-5.831656577E-1,1.817933845E0,-2.562688440E-2,1.909351300E0
1.081878633E1,-6.969034673E-1,1.982268671E0,-4.383429533E-1,2.146440792E0
1.082882033E1,-4.433076049E-1,2.210031170E0,-1.300069928E-1,2.257800084E0
1.083885433E1,5.742027897E-2,2.290391793E0,6.750116381E-1,2.388479091E0
1.084888833E1,5.839684804E-1,2.243124071E0,1.498473849E0,2.760081278E0
1.085892233E1,8.414279272E-1,2.124331453E0,2.284954175E0,3.231377518E0
1.086895733E1,1.203776884E0,1.724483644E0,3.010698303E0,3.672496004E0
1.087899133E1,1.555468999E0,1.271486984E0,3.818083302E0,4.314385594E0
1.088902533E1,1.939098094E0,7.946991724E-1,4.569343217E0,5.026981761E0
1.089905933E1,2.260656801E0,3.420510060E-1,4.980760619E0,5.480469360E0
1.090909333E1,2.353894602E0,4.682801127E-2,4.895598262E0,5.432301078E0
1.091912721E1,2.458110988E0,-2.257937407E-1,4.205947242E0,4.876810910E0
1.092916121E1,2.420041814E0,-4.282337022E-1,3.148337374E0,3.993997334E0
1.093919621E1,2.334117126E0,-6.101271325E-1,2.171978367E0,3.246205154E0
1.094923021E1,2.187920362E0,-7.673581767E-1,1.377501097E0,2.696913672E0
1.095926421E1,1.967380052E0,-8.930376452E-1,6.273737875E-1,2.249821854E0
1.096929821E1,1.837659427E0,-1.012559411E0,-1.113631457E-2,2.098187968E0
1.097933221E1,1.754786693E0,-1.147134833E0,-4.811866719E-1,2.150984723E0
1.098936621E1,1.774466813E0,-1.263210835E0,-6.644191146E-1,2.277254234E0
1.099940021E1,1.796549262E0,-1.339255629E0,-6.215034753E-1,2.325394904E0
1.100943521E1,1.695046276E0,-1.417741635E0,-6.342983526E-1,2.299023188E0
1.101946921E1,1.615834045E0,-1.427306510E0,-7.748543072E-1,2.290965459E0
1.102950321E1,1.509708251E0,-1.336792781E0,-9.377974963E-1,2.223892553E0
1.103953721E1,1.468521341E0,-1.196547899E0,-9.276432216E-1,2.109218753E0
1.104957121E1,1.448186625E0,-1.163846176E0,-7.557695800E-1,2.005734299E0
1.105960521E1,1.536591409E0,-1.162741052E0,-4.189304897E-1,1.971948952E0
1.106963921E1,1.679437572E0,-1.185114838E0,1.085269538E-1,2.058345412E0
1.107967321E1,1.745011757E0,-1.222510706E0,5.202884647E-1,2.193239281E0
1.108970821E1,1.740840938E0,-1.227252213E0,7.532269183E-1,2.259209144E0
1.109974221E1,1.793438689E0,-1.282718316E0,1.000983386E0,2.421519430E0
1.110977621E1,1.776563332E0,-1.367614040E0,1.308899224E0,2.596105278E0
1.111981021E1,1.734356522E0,-1.341198074E0,1.574057590E0,2.698974271E0
1.112984421E1,1.756045599E0,-1.267130224E0,1.770959653E0,2.797429756E0
1.113987821E1,1.779791873E0,-1.125888975E0,1.854082502E0,2.805870100E0
1.114991221E1,1.777351683E0,-1.021142539E0,1.800993292E0,2.728605491E0
1.115994721E1,1.796798938E0,-8.995110977E-1,1.703603237E0,2.634363420E0
1.116998121E1,1.752639450E0,-7.718231106E-1,1.471150103E0,2.414899290E0
1.118001521E1,1.658934164E0,-7.064886618E-1,1.114722840E0,2.119857495E0
1.119004921E1,1.563337451E0,-6.491268915E-1,8.415347850E-1,1.890388981E0
1.120008321E1,1.498417716E0,-5.896648014E-1,6.932204524E-1,1.753144268E0
1.121011721E1,1.535763297E0,-5.431513703E-1,6.912946719E-1,1.769596180E0
1.122015121E1,1.608280758E0,-5.236538297E-1,8.209908852E-1,1.880108073E0
1.123018621E1,1.650059114E0,-5.334262812E-1,9.284486756E-1,1.967042354E0
1.124022021E1,1.719562920E0,-5.528121400E-1,9.793945885E-1,2.054680427E0
1.125025421E1,1.781952126E0,-5.799964303E-1,1.011999832E0,2.129763579E0
1.126028821E1,1.710444918E0,-6.000816160E-1,9.789531237E-1,2.060113827E0
1.127032221E1,1.596441901E0,-6.073853731E-1,9.637152797E-1,1.961196287E0
1.128035621E1,1.480692466E0,-6.086191356E-1,1.023189064E0,1.899942971E0
1.129039021E1,1.375192470E0,-5.843198615E-1,1.010982417E0,1.804070253E0
1.130042421E1,1.212376165E0,-5.405709940E-1,8.620628974E-1,1.582790386E0
1.131045921E1,1.020301198E0,-4.995229554E-1,7.290825954E-1,1.349851528E0
1.132049321E1,8.892050877E-1,-4.348118198E-1,6.585970420E-1,1.188905829E0
1.133052721E1,7.915331975E-1,-3.753643477E-1,6.806550783E-1,1.109375740E0
1.134056121E1,7.210906941E-1,-3.915985572E-1,7.398672000E-1,1.104864106E0
1.135059521E1,6.299872005E-1,-3.945467234E-1,7.136231419E-1,1.030441157E0
1.136062921E1,5.697711119E-1,-3.383573198E-1,6.787240353E-1,9.485731980E-1
1.137066321E1,5.616981536E-1,-2.446393168E-1,6.735626981E-1,9.105162927E-1
1.138069721E1,5.443384282E-1,-2.047870338E-1,6.681978777E-1,8.858501326E-1
1.139073221E1,4.929305121E-1,-1.138786179E-1,6.325453573E-1,8.099768259E-1
1.140076621E1,4.836159707E-1,4.003062308E-2,5.825806072E-1,7.582130451E-1
1.141080021E1,5.179677779E-1,2.588252467E-1,5.953886408E-1,8.305231850E-1
1.142083421E1,6.453004736E-1,4.167690665E-1,7.847431183E-1,1.098148860E0
1.143086821E1,8.060414551E-1,4.081789219E-1,1.099106973E0,1.422796190E0
1.144090221E1,9.336622723E-1,3.473298723E-1,1.501310041E0,1.801747795E0
1.145093621E1,1.054703583E0,2.306013215E-1,1.877639764E0,2.165896512E0
1.146097121E1,1.209780148E0,-4.722445250E-2,2.296888050E0,2.596438497E0
1.147100521E1,1.278992178E0,-3.484958071E-1,2.662803882E0,2.974524303E0
1.148103921E1,1.194486755E0,-6.273302257E-1,2.787923187E0,3.097233849E0
1.149107321E1,9.829554697E-1,-8.433111691E-1,2.682713651E0,2.978980986E0
1.150110721E1,6.877139101E-1,-9.542860597E-1,2.253254080E0,2.541803741E0
1.151114121E1,3.758821917E-1,-8.642734373E-1,1.661479311E0,1.910175253E0
1.152117521E1,2.002867243E-1,-7.491791832E-1,1.200523713E0,1.429210064E0
1.153120921E1,5.563194461E-2,-5.837871802E-1,8.721847200E-1,1.051003602E0
1.154124421E1,-1.289236499E-1,-4.207422495E-1,5.346272993E-1,6.924389483E-1
1.155127821E1,-2.044071840E-1,-2.995832634E-1,2.095911062E-1,4.188804846E-1
1.156131221E1,-1.532887052E-1,-2.582381862E-1,9.052951634E-3,3.004435786E-1
1.157134621E1,-1.749655031E-2,-2.608144695E-1,9.617500305E-3,2.615775469E-1
1.158138021E1,2.008596052E-1,-2.990400571E-1,2.291149592E-1,4.269229454E-1
1.159141421E1,4.887696335E-1,-3.706345350E-1,5.913245335E-1,8.520155028E-1
1.160144821E1,7.751264951E-1,-3.579367214E-1,9.732523808E-1,1.294665971E0
1.161148321E1,9.880760226E-1,-3.099644101E-1,1.252464237E0,1.625127327E0
1.162151721E1,1.129253025E0,-3.162384725E-1,1.470813595E0,1.881093245E0
1.163155121E1,1.201683362E0,-3.486080736E-1,1.675784232E0,2.091368758E0
1.164158521E1,1.302961522E0,-4.366267955E-1,1.878844290E0,2.327747313E0
1.165161921E1,1.265429999E0,-5.935420901E-1,2.019440591E0,2.455961237E0
1.166165321E1,9.906789838E-1,-7.358311594E-1,1.946828697E0,2.305002022E0
1.167168721E1,6.952489977E-1,-7.950804108E-1,1.663526129E0,1.970493139E0
1.168172221E1,4.415883773E-1,-8.222728872E-1,1.275572433E0,1.580575221E0
1.169175621E1,2.982753874E-1,-7.982770836E-1,1.049843012E0,1.352177821E0
1.170179021E1,1.743848746E-1,-7.608320993E-1,8.983960336E-1,1.190122263E0
1.171182421E1,6.503799498E-2,-7.208950317E-1,7.246998149E-1,1.024260421E0
1.172185821E1,8.951670550E-2,-6.733928365E-1,5.235281146E-1,8.576437719E-1
1.173189221E1,1.625211664E-1,-5.760144764E-1,3.475807178E-1,6.921113797E-1
1.174192621E1,2.954394878E-1,-3.870792443E-1,2.666593462E-1,5.551774844E-1
1.175196021E1,4.356471676E-1,-2.133005798E-1,2.476254898E-1,5.446136018E-1
1.176199521E1,6.264891037E-1,-3.773091316E-2,2.838314492E-1,6.888196502E-1
1.177202921E1,7.750024610E-1,6.246346593E-2,3.235732198E-1,8.421580182E-1
1.178206321E1,8.502181926E-1,1.222828209E-1,4.021849412E-1,9.484602207E-1
1.179209721E1,9.635827672E-1,1.324306637E-1,5.278357583E-1,1.106634636E0
1.180213121E1,1.068176884E0,4.372255504E-2,8.447703418E-1,1.362552915E0
1.181216521E1,1.057324671E0,-1.453050631E-1,1.150205791E0,1.569083294E0
1.182219921E1,9.126016248E-1,-3.239866179E-1,1.351898478E0,1.662960778E0
1.183223321E1,7.407759304E-1,-5.489898151E-1,1.537548745E0,1.792817598E0
1.184226821E1,5.841532890E-1,-7.847442877E-1,1.692567202E0,1.954953298E0
1.185230221E1,3.578935982E-1,-9.275584370E-1,1.748056402E0,2.011008122E0
1.186233621E1,5.219802104E-2,-1.052498817E0,1.666019966E0,1.971319589E0
1.187237021E1,-2.843291934E-1,-1.142109736E0,1.501955866E0,1.908174301E0
1.188240421E1,-5.714404920E-1,-1.198547062E0,1.340423318E0,1.886741627E0
1.189243821E1,-7.465508598E-1,-1.232995933E0,1.231235921E0,1.895668497E0
1.190247221E1,-7.512842540E-1,-1.218825206E0,1.140685354E0,1.830608093E0
1.191250721E1,-7.368441164E-1,-1.243886957E0,1.061686547E0,1.793703526E0
1.192254096E1,-7.756308905E-1,-1.301960918E0,9.538200366E-1,1.790664171E0
1.193257496E1,-7.453649714E-1,-1.353973070E0,9.025598359E-1,1.789811798E0
1.194260896E1,-4.919142295E-1,-1.337581571E0,1.066421915E0,1.779988699E0
1.195264296E1,-1.924385549E-1,-1.263340643E0,1.325258564E0,1.841024834E0
1.196267696E1,-1.023800318E-1,-1.043295300E0,1.553577717E0,1.874179948E0
1.197271096E1,-9.020998428E-2,-6.885967666E-1,1.362977198E0,1.529709185E0
1.198274496E1,-3.198547561E-1,-5.553457385E-1,6.982797557E-1,9.477924728E-1
1.199277996E1,-4.972498869E-1,-3.276890749E-1,7.565975457E-2,6.003015728E-1
1.200281396E1,-5.436565697E-1,1.578806698E-2,-4.871642804E-1,7.301648889E-1
1.201284796E1,-2.188593267E-1,4.186080158E-1,-6.885093507E-1,8.349713778E-1
1.202288196E1,3.242382675E-1,7.857312977E-1,-2.942584965E-1,8.994955192E-1
1.203291596E1,9.508899969E-1,8.702311653E-1,5.526118729E-1,1.402452833E0
1.204294996E1,1.561297211E0,8.178564852E-1,1.367842374E0,2.231038093E0
1.205298396E1,2.098648582E0,6.578111762E-1,2.001576470E0,2.973777022E0
1.206301896E1,2.580032159E0,3.645206863E-1,2.544134348E0,3.641711253E0
1.207305296E1,2.925043902E0,-6.939826369E-2,2.880278789E0,4.105691641E0
1.208308696E1,2.963885202E0,-4.748716789E-1,3.005753020E0,4.247901814E0
1.209312096E1,2.855023495E0,-7.620845729E-1,2.954037906E0,4.178309706E0
1.210315496E1,2.584646197E0,-1.034487054E0,2.692842783E0,3.873236590E0
1.211318896E1,2.158083629E0,-1.268380943E0,2.350942050E0,3.434100128E0
1.212322296E1,1.714344134E0,-1.407337099E0,2.082333827E0,3.042316172E0
1.213325696E1,1.348402282E0,-1.473800645E0,1.821765525E0,2.703535960E0
1.214329196E1,1.064951706E0,-1.526765310E0,1.517720836E0,2.401793285E0
1.215332596E1,7.979878657E-1,-1.505202532E0,1.149823091E0,2.055361875E0
1.216335996E1,6.015017585E-1,-1.400282434E0,7.184082109E-1,1.684845873E0
1.217339396E1,4.433067278E-1,-1.200107684E0,3.705664149E-1,1.331952993E0
1.218342796E1,4.601597189E-1,-8.352525365E-1,1.634887344E-1,9.675341508E-1
1.219346196E1,6.736503332E-1,-4.077731252E-1,5.774710178E-2,7.895685029E-1
1.220349596E1,9.432956332E-1,5.026500463E-2,1.086804432E-1,9.508652171E-1
1.221352996E1,1.205612472E0,4.690402508E-1,9.615892321E-2,1.297207280E0
1.222356496E1,1.453608456E0,7.716395080E-1,4.073433548E-2,1.646227311E0
1.223359896E1,1.682405911E0,9.518822694E-1,2.284390211E-2,1.933155800E0
1.224363296E1,1.889506396E0,1.082085729E0,1.276681066E-1,2.181156365E0
1.225366696E1,2.066648671E0,1.098497694E0,3.864331269E-1,2.372143434E0
1.226370096E1,2.249254877E0,1.000451581E0,7.065965429E-1,2.561118807E0
1.227373496E1,2.260198818E0,7.673131531E-1,9.603484529E-1,2.572846152E0
1.228376896E1,2.026160065E0,4.362262613E-1,1.015599671E0,2.308042601E0
1.229380396E1,1.677100586E0,1.486227733E-1,9.171533167E-1,1.917270276E0
1.230383796E1,1.385940383E0,-1.222185016E-1,7.027218854E-1,1.558712981E0
1.231387196E1,1.126667459E0,-3.281083202E-1,4.261871767E-1,1.248467117E0
1.232390596E1,8.102122010E-1,-4.658874321E-1,1.281288671E-1,9.433514279E-1
1.233393996E1,5.705245256E-1,-5.952120548E-1,-1.128933620E-1,8.321781875E-1
1.234397396E1,4.186922522E-1,-6.924366331E-1,-3.567783880E-1,8.843429827E-1
1.235400796E1,2.790602674E-1,-7.667851496E-1,-6.216256821E-1,1.025793638E0
1.236404196E1,1.830341308E-1,-8.013971579E-1,-8.837733167E-1,1.206977288E0
1.237407696E1,1.462903738E-1,-7.286022466E-1,-1.112162637E0,1.337597786E0
1.238411096E1,1.162273713E-1,-6.097382927E-1,-1.324233547E0,1.462492418E0
1.239414496E1,1.260959182E-1,-4.625790775E-1,-1.496614142E0,1.571538569E0
1.240417896E1,1.783127051E-1,-3.098691005E-1,-1.523438244E0,1.564825346E0
1.241421296E1,2.751708640E-1,-1.329785478E-1,-1.413267638E0,1.445934893E0
1.242424696E1,3.748499024E-1,-2.270239949E-2,-1.297673154E0,1.350919488E0
1.243428096E1,4.048828465E-1,6.012107134E-2,-1.213740467E0,1.280902254E0
1.244431596E1,3.974872516E-1,1.778430641E-1,-1.185374454E0,1.262828915E0
1.245434996E1,4.178654194E-1,2.682076889E-1,-1.127110459E0,1.231635035E0
1.246438396E1,4.038545771E-1,2.853604960E-1,-1.039913270E0,1.151498477E0
1.247441796E1,3.439875672E-1,3.358260602E-1,-9.121755821E-1,1.031101780E0
1.248445196E1,3.111748568E-1,4.102921057E-1,-7.093929738E-1,8.765887261E-1
1.249448596E1,3.123684562E-1,4.339873624E-1,-5.490383470E-1,7.663955830E-1
1.250451996E1,2.964877109E-1,4.436194807E-1,-3.446518475E-1,6.352071334E-1
1.251455396E1,2.323611506E-1,4.262286919E-1,-1.704118377E-1,5.144927566E-1
1.252458896E1,1.403541891E-1,3.700287634E-1,-6.145072818E-2,4.004956631E-1
1.253462296E1,7.744465370E-2,3.547131515E-1,3.764495909E-2,3.650153930E-1
1.254465696E1,5.045215208E-2,2.668774474E-1,2.041391623E-1,3.397672573E-1
1.255469096E1,6.823594686E-2,1.792978513E-1,4.201139662E-1,4.618437057E-1
1.256472496E1,1.336747319E-1,8.819530785E-2,5.988958007E-1,6.199383247E-1
1.257475896E1,9.033553496E-2,4.667013645E-2,7.073748073E-1,7.146451767E-1
1.258479296E1,-1.301292727E-1,1.099621528E-1,6.248396042E-1,6.476494682E-1
1.259482696E1,-5.076338475E-1,2.547327805E-1,2.298639876E-1,6.127139344E-1
1.260486196E1,-9.480108279E-1,5.053672475E-1,-3.695416903E-1,1.136081707E0
1.261489596E1,-1.271694560E0,8.756427634E-1,-9.041289362E-1,1.789247450E0
1.262492996E1,-1.634183339E0,1.388491523E0,-1.401599519E0,2.561824566E0
1.263496396E1,-2.103454116E0,1.967925451E0,-1.869734328E0,3.434116518E0
1.264499796E1,-2.259188419E0,2.522004098E0,-1.888773447E0,3.877099705E0
1.265503196E1,-1.775828630E0,2.800568376E0,-1.074210699E0,3.485782433E0
1.266506596E1,-1.075889580E0,2.699904465E0,2.691017282E-1,2.918807676E0
1.267510096E1,-3.890268056E-1,2.310305656E0,1.733039875E0,2.914151898E0
1.268513496E1,3.772663739E-1,1.706885864E0,3.123610376E0,3.579487540E0
1.269516896E1,8.689271631E-1,9.952200776E-1,3.891432821E0,4.109592051E0
1.270520296E1,9.385595347E-1,3.396589100E-1,3.860156942E0,3.987113466E0
1.271523696E1,5.946143232E-1,-8.321289539E-2,3.279914344E0,3.334415793E0
1.272527096E1,1.674766268E-1,-3.811454898E-1,2.379135862E0,2.415286268E0
1.273530496E1,-2.461744667E-1,-5.436858058E-1,1.502600229E0,1.616788042E0
1.274533896E1,-6.000656824E-1,-5.252080196E-1,7.422987646E-1,1.089463053E0
1.275537396E1,-9.581288499E-1,-5.091135585E-1,2.701662138E-1,1.118122217E0
1.276540796E1,-1.323740480E0,-6.008084249E-1,-1.188013887E-1,1.458551814E0
1.277544196E1,-1.603261947E0,-7.202044755E-1,-4.648787874E-1,1.818036205E0
1.278547596E1,-1.759576586E0,-8.320424151E-1,-7.406416637E-1,2.082535574E0
1.279550996E1,-1.869829638E0,-8.663088530E-1,-9.882127744E-1,2.285458027E0
1.280554396E1,-1.984928862E0,-8.706334537E-1,-1.258985344E0,2.506589176E0
1.281557796E1,-1.979843246E0,-8.127623910E-1,-1.465989350E0,2.594125432E0
1.282561196E1,-1.897364030E0,-6.605786633E-1,-1.495007912E0,2.504276960E0
1.283564696E1,-1.639130230E0,-4.889687312E-1,-1.294514489E0,2.145135448E0
1.284568096E1,-1.354502390E0,-3.672618610E-1,-9.639915606E-1,1.702597347E0
1.285571496E1,-1.129216991E0,-3.241959482E-1,-7.622368929E-1,1.400442468E0
1.286574896E1,-9.835189220E-1,-2.975864393E-1,-7.327090386E-1,1.262033951E0
1.287578296E1,-8.712965280E-1,-2.586317039E-1,-7.428200439E-1,1.173809872E0
1.288581696E1,-8.043486862E-1,-1.819396234E-1,-7.154436725E-1,1.091759353E0
1.289585096E1,-7.221269669E-1,-1.010334545E-1,-6.874442804E-1,1.002125119E0
1.290588496E1,-6.290058184E-1,-6.799668610E-2,-7.779047996E-1,1.002700227E0
1.291591996E1,-6.162947025E-1,-9.191998422E-2,-9.111540735E-1,1.103843372E0
1.292595458E1,-6.550446392E-1,-1.601540673E-1,-9.865919262E-1,1.195029888E0
1.293598858E1,-7.142696978E-1,-2.857966983E-1,-1.088481998E0,1.332911855E0
1.294602258E1,-7.873912492E-1,-4.492427480E-1,-1.043784712E0,1.382494322E0
1.295605658E1,-8.583245531E-1,-6.270881510E-1,-8.507166678E-1,1.361498967E0
1.296609058E1,-9.398435833E-1,-8.075092524E-1,-7.462649310E-1,1.446474508E0
1.297612458E1,-1.028549353E0,-8.989000636E-1,-7.595044890E-1,1.562940231E0
1.298615858E1,-1.157271201E0,-8.763122696E-1,-9.396802998E-1,1.729219157E0
1.299619358E1,-1.232563239E0,-7.864774024E-1,-1.134132380E0,1.850409440E0
1.300622758E1,-1.257073743E0,-6.446607882E-1,-1.229723538E0,1.872976751E0
1.301626158E1,-1.258643429E0,-4.852920020E-1,-1.268853690E0,1.851939873E0
1.302629558E1,-1.258171412E0,-3.105947399E-1,-1.317482352E0,1.848032506E0
1.303632958E1,-1.210014475E0,-1.932440454E-1,-1.339314685E0,1.815280176E0
1.304636358E1,-1.203592478E0,-1.523690844E-1,-1.341804430E0,1.808947296E0
1.305639758E1,-1.227676867E0,-8.971850753E-2,-1.274274936E0,1.771726986E0
1.306643258E1,-1.188216786E0,1.449758649E-2,-1.096875091E0,1.617159323E0
1.307646658E1,-1.119952443E0,1.630320668E-1,-8.581005317E-1,1.420284990E0
1.308650058E1,-1.053828620E0,3.549476248E-1,-6.976476717E-1,1.312728019E0
1.309653458E1,-1.042462583E0,4.893727738E-1,-6.641226608E-1,1.329388152E0
1.310656858E1,-1.120571517E0,5.839333606E-1,-8.061848581E-1,1.498863810E0
1.311660258E1,-1.103727955E0,5.045620859E-1,-1.080661347E0,1.625000690E0
1.312663658E1,-9.757582781E-1,5.175095755E-1,-1.011714488E0,1.497827288E0
1.313667058E1,-7.043551590E-1,4.697886944E-1,-1.026928359E0,1.330939315E0
1.314670558E1,-3.196144355E-1,1.536682187E0,-5.005362779E-1,1.647447146E0
1.315673958E1,-1.153608322E-1,1.353709946E0,-9.445773429E-1,1.654709973E0
1.316677358E1,-2.805162971E-1,1.630771489E0,-1.302225797E0,2.105682090E0
1.317680758E1,-4.720751019E-1,2.171336635E0,-1.535008129E0,2.700705027E0
1.318684158E1,-4.338184509E-1,2.076660274E0,-1.577059843E0,2.643451170E0
1.319687558E1,-6.305328188E-1,2.098020152E0,-1.413831602E0,2.607331968E0
1.320690958E1,-8.246759467E-1,2.174345613E0,-1.056758514E0,2.554331188E0
1.321694358E1,-8.592778686E-1,2.034871393E0,-5.915592992E-1,2.286701215E0
1.322697858E1,-9.133988196E-1,1.892467718E0,2.793828875E-2,2.101549908E0
1.323701258E1,-8.711916436E-1,1.832757121E0,7.090096888E-1,2.149573977E0
1.324704658E1,-5.002140232E-1,1.582540730E0,1.205685343E0,2.051420575E0
1.325708058E1,-1.368654661E-1,1.369224363E0,1.471403872E0,2.014581065E0
1.326711458E1,-4.400037088E-2,1.283513537E0,1.825676728E0,2.232137663E0
1.327714858E1,-4.672060523E-2,1.149708193E0,2.084817432E0,2.381276017E0
1.328718258E1,-3.821039215E-1,1.081245484E0,1.883768815E0,2.205375286E0
1.329721658E1,-7.601396428E-1,1.076424454E0,1.120083275E0,1.729476344E0
1.330725158E1,-9.047836782E-1,1.085611600E0,3.042195207E-1,1.445591770E0
1.331728558E1,-8.658069427E-1,1.156512013E0,-1.126758456E-1,1.449081621E0
1.332731958E1,-5.234069310E-1,1.141123311E0,1.362073803E-1,1.262802311E0
1.333735358E1,-1.586019239E-1,1.107015333E0,6.512231183E-1,1.294113236E0
1.334738758E1,2.534717553E-1,1.040525474E0,1.521422709E0,1.860555898E0
1.335742158E1,6.218255107E-1,6.770660573E-1,2.272085038E0,2.451011186E0
1.336745558E1,6.422334628E-1,2.974537075E-1,2.592720617E0,2.687590506E0
1.337748958E1,5.148876840E-1,1.610732496E-2,2.552569541E0,2.604031497E0
1.338752458E1,3.794720167E-1,-3.165284944E-1,2.228743137E0,2.282867773E0
1.339755858E1,3.490430333E-1,-5.962820953E-1,1.860883983E0,1.985011983E0
1.340759258E1,1.630640255E-1,-8.169747251E-1,1.584642804E0,1.790287797E0
1.341762658E1,1.142645889E-1,-9.808628243E-1,1.249064374E0,1.592265708E0
1.342766058E1,1.609488501E-1,-1.107456213E0,9.531057993E-1,1.469957299E0
1.343769458E1,1.765635288E-1,-1.406353013E0,6.468494010E-1,1.558017209E0
1.344772858E1,2.829978007E-1,-1.653089726E0,2.702746797E-1,1.698776560E0
1.345776358E1,1.552499710E-2,-1.998512821E0,-9.466349781E-2,2.000813759E0
1.346779758E1,4.441764280E-3,-2.135789657E0,-5.976439118E-1,2.217835755E0
1.347783158E1,-1.531600116E-1,-2.200499039E0,-1.102670851E0,2.466077252E0
1.348786558E1,-2.386748279E-1,-2.232748187E0,-1.506366128E0,2.703935845E0
1.349789958E1,-2.317774523E-1,-2.071011863E0,-1.792809529E0,2.748995622E0
1.350793358E1,-1.655068460E-1,-1.852790852E0,-1.900199784E0,2.659132504E0
1.351796758E1,-6.611819498E-2,-1.660519783E0,-1.837259770E0,2.477341524E0
1.352800158E1,1.192013200E-1,-1.437774196E0,-1.751923750E0,2.269502240E0
1.353803658E1,2.516188275E-1,-1.177759625E0,-1.790078002E0,2.157500642E0
1.354807058E1,3.659156127E-1,-9.142244464E-1,-1.812078736E0,2.062360278E0
1.355810458E1,4.452866681E-1,-7.578494346E-1,-1.575867888E0,1.804432205E0
1.356813858E1,4.928145911E-1,-8.003060675E-1,-1.272934754E0,1.582314416E0
1.357817258E1,4.475334607E-1,-9.525476825E-1,-1.003191002E0,1.453968869E0
1.358820658E1,2.767801273E-1,-1.032291425E0,-6.990039334E-1,1.277043196E0
1.359824058E1,1.927049138E-1,-1.095624956E0,-4.810995483E-1,1.212017328E0
1.360827458E1,1.648197434E-1,-1.115287389E0,-3.180935016E-1,1.171415803E0
1.361830958E1,1.564987352E-1,-1.109353049E0,-2.426822537E-1,1.146320513E0
1.362834358E1,1.219793504E-1,-1.053129732E0,-2.352706155E-1,1.085961996E0
1.363837758E1,1.994521804E-3,-9.466437489E-1,-3.213179487E-1,9.996917473E-1
1.364841158E1,-4.590076164E-2,-8.565925348E-1,-4.485311419E-1,9.680071466E-1
1.365844558E1,-6.483040055E-2,-7.773756266E-1,-6.449759531E-1,1.012180728E0
1.366847958E1,-6.765234448E-2,-7.049034816E-1,-9.030539256E-1,1.147594071E0
1.367851358E1,-3.054957303E-2,-6.600038821E-1,-1.142036061E0,1.319388027E0
1.368854758E1,-4.005041225E-2,-5.828311604E-1,-1.232294267E0,1.363761474E0
1.369858258E1,-3.533136204E-2,-5.297969145E-1,-1.259246423E0,1.366614294E0
1.370861658E1,1.055926748E-2,-4.397123712E-1,-1.118799519E0,1.202152582E0
1.371865058E1,-3.898594491E-2,-2.547748804E-1,-1.013212837E0,1.045480941E0
1.372868458E1,4.170838111E-2,-2.521775472E-1,-9.257300127E-1,9.603692835E-1
1.373871858E1,1.460458414E-1,-3.444325769E-1,-8.833330214E-1,9.592916212E-1
1.374875258E1,1.181379125E-1,-2.428097230E-1,-8.842197517E-1,9.245310688E-1
1.375878658E1,1.030553852E-1,-1.894456941E-1,-8.442671889E-1,8.713765946E-1
1.376882058E1,7.989257226E-2,-1.297731042E-1,-8.499851811E-1,8.635384703E-1
1.377885558E1,7.693510540E-3,-1.946771979E-2,-9.398177093E-1,9.400508013E-1
1.378888958E1,-8.300095210E-2,7.552380681E-2,-9.968818563E-1,1.003178169E0
1.379892358E1,-7.540657014E-2,1.766356140E-1,-9.810341477E-1,9.996570862E-1
1.380895758E1,-1.797222130E-2,2.694601625E-1,-7.965141481E-1,8.410508713E-1
1.381899158E1,1.174890908E-1,3.040207154E-1,-4.794766536E-1,5.797673182E-1
1.382902558E1,7.069451831E-2,4.551408345E-1,-1.579672086E-1,4.869338077E-1
1.383905958E1,-2.756457858E-2,4.977360463E-1,-9.983038992E-2,5.083965820E-1
1.384909358E1,-9.240829982E-3,3.561632609E-1,-8.339942157E-2,3.659140950E-1
1.385912858E1,-5.229570609E-2,3.632828307E-1,-5.661274195E-3,3.670712547E-1
1.386916258E1,-1.925436403E-1,4.048641354E-1,9.651238739E-2,4.585876824E-1
1.387919658E1,-2.648360017E-1,3.921867871E-1,2.206101841E-1,5.221277977E-1
1.388923058E1,-3.044786985E-1,4.268490815E-1,3.791945663E-1,6.470671799E-1
1.389926458E1,-3.025229876E-1,4.174806726E-1,5.257325149E-1,7.363456710E-1
1.390929858E1,-2.881377408E-1,3.833493054E-1,6.867642492E-1,8.376306952E-1
1.391933258E1,-5.226260719E-1,4.240447569E-1,6.445099300E-1,9.318503189E-1
1.392936658E1,-8.837774098E-1,4.797236985E-1,3.838930964E-1,1.076369475E0
1.393940158E1,-1.341991833E0,5.248671269E-1,-2.280145133E-1,1.458909935E0
1.394943558E1,-1.752603928E0,9.035655570E-1,-7.995865676E-1,2.127766416E0
1.395946958E1,-1.918149859E0,1.401995668E0,-1.028002492E0,2.588760293E0
1.396950358E1,-1.902303173E0,2.050482874E0,-9.517243946E-1,2.954490938E0
1.397953758E1,-1.467900805E0,2.123470743E0,-7.284338468E-1,2.682252158E0
1.398957158E1,-9.820581414E-1,1.973355761E0,-6.894685864E-2,2.205294724E0
1.399960558E1,-4.298242179E-1,1.755727072E0,7.683697450E-1,1.964107552E0
1.400964058E1,-8.972459229E-2,1.526771742E0,1.033225810E0,1.845708002E0
1.401967458E1,4.526382992E-1,8.529807097E-1,1.939828118E0,2.166885011E0
1.402970858E1,2.905323035E-1,5.548107183E-1,2.617463110E0,2.691344847E0
1.403974258E1,-3.231297450E-1,1.386203508E0,1.836528575E0,2.323533991E0
1.404977658E1,3.485872429E-1,1.591904461E-1,2.553215951E0,2.581814547E0
1.405981058E1,1.046438909E-1,-2.932711941E-1,2.886458711E0,2.903205509E0
1.406984458E1,-6.206906392E-1,-4.517324924E-1,2.865271325E0,2.966327507E0
1.407987858E1,-1.459978266E0,-6.250568283E-1,2.833060768E0,3.247840189E0
1.408991358E1,-1.885255616E0,-7.105600780E-1,2.684688548E0,3.356581142E0
1.409994758E1,-1.859330378E0,-7.964919287E-1,2.443864832E0,3.172378313E0
1.410998158E1,-1.783667699E0,-8.648885643E-1,1.948032639E0,2.779268582E0
1.412001558E1,-1.927499264E0,-9.245658320E-1,1.275161959E0,2.489199352E0
1.413004958E1,-1.915971479E0,-8.641833901E-1,5.526033944E-1,2.173276363E0
1.414008358E1,-1.664227210E0,-7.228111643E-1,-2.736116856E-2,1.814623052E0
1.415011758E1,-1.457603858E0,-5.410492963E-1,-4.129011333E-1,1.608673582E0
1.416015158E1,-1.197156448E0,-4.997100663E-1,-5.322451437E-1,1.402204908E0
1.417018658E1,-9.037244551E-1,-5.527250165E-1,-5.840845111E-1,1.209701430E0
1.418022058E1,-7.098121461E-1,-5.769050074E-1,-3.843602890E-1,9.921620341E-1
1.419025458E1,-5.010592017E-1,-6.479486775E-1,-1.307504663E-1,8.294537339E-1
1.420028858E1,-2.823920839E-1,-5.322498214E-1,2.232759297E-2,6.029375448E-1
1.421032258E1,7.843448681E-2,-2.973215604E-1,2.293956256E-1,3.836331999E-1
1.422035658E1,2.340798301E-1,-3.515310967E-1,4.922320622E-1,6.485829799E-1
1.423039058E1,1.971306165E-1,-6.005610877E-1,2.738654548E-1,6.888660156E-1
1.424042458E1,-2.041798735E-1,-8.893018591E-1,-1.259314835E-1,9.210895483E-1
1.425045958E1,-7.312865572E-1,-1.094946095E0,-4.615657550E-1,1.395252639E0
1.426049358E1,-8.179148843E-1,-1.006556659E0,-5.735618618E-1,1.418137608E0
1.427052758E1,-5.850882588E-1,-6.787933248E-1,-4.532352269E-1,1.004246394E0
1.428056158E1,-7.830373758E-2,-4.800107968E-1,-1.454752171E-1,5.076464115E-1
1.429059558E1,3.286664370E-1,-4.658055711E-1,2.105933189E-2,5.704734457E-1
1.430062958E1,1.904274051E-1,-5.681493866E-1,-9.553005517E-2,6.067802844E-1
1.431066358E1,-1.282222399E-1,-4.732952696E-1,-2.745384693E-1,5.619792934E-1
1.432069758E1,-1.715233386E-1,-2.487890857E-1,-5.905719969E-1,6.633939616E-1
1.433073258E1,-1.016445799E-1,-5.162214339E-2,-8.898614377E-1,8.971342400E-1
1.434076658E1,-3.109055194E-1,-8.991263509E-2,-1.133544735E0,1.178842733E0
1.435080058E1,-7.363577011E-1,-2.536089456E-1,-1.125291975E0,1.368510939E0
1.436083458E1,-9.618875863E-1,-2.572856748E-1,-9.506353506E-1,1.376637649E0
1.437086858E1,-1.062920748E0,-2.655156308E-1,-6.077233422E-1,1.252847448E0
1.438090258E1,-9.932397719E-1,-2.298534626E-1,-2.924388430E-1,1.060602817E0
1.439093658E1,-8.739646125E-1,-1.857262802E-1,-9.181356490E-2,8.981860196E-1
1.440097058E1,-8.803686292E-1,-1.843948692E-1,-9.651706517E-2,9.046358024E-1
1.441100558E1,-7.860680974E-1,-1.288977760E-1,-3.772123602E-1,8.813664703E-1
1.442103958E1,-6.917161831E-1,-6.422990978E-2,-6.271787828E-1,9.359219972E-1
1.443107358E1,-7.281976924E-1,-1.037553334E-1,-7.452624258E-1,1.047116580E0
1.444110758E1,-7.530036277E-1,-1.325183719E-1,-7.365041739E-1,1.061609147E0
1.445114158E1,-7.843686041E-1,-7.121616304E-2,-7.145133805E-1,1.063407363E0
1.446117558E1,-9.948400086E-1,1.205777729E-1,-6.672164226E-1,1.203920013E0
1.447120958E1,-9.238526179E-1,1.547120637E-1,-5.332900411E-1,1.077885778E0
1.448124358E1,-8.061304059E-1,3.007603079E-1,-3.550131136E-1,9.307724238E-1
1.449127858E1,-7.184728957E-1,4.145301676E-1,-2.719463986E-1,8.729223364E-1
1.450131258E1,-9.839263268E-1,8.577292335E-1,-2.068803370E-2,1.305464840E0
1.451134658E1,-1.532922720E0,1.256381872E0,2.293026549E-1,1.995226098E0
1.452138058E1,-1.354931429E0,9.998580891E-1,1.523030108E-1,1.690784310E0
1.453141458E1,-7.326454501E-1,1.405835534E0,2.808113623E-1,1.609968300E0
1.454144858E1,-6.033389172E-1,1.360207956E0,7.635516393E-1,1.672481581E0
1.455148258E1,-5.008586787E-1,1.518861043E0,1.057435037E0,1.917281185E0
1.456151658E1,-1.739957789E-1,1.512430276E0,1.387461536E0,2.059798384E0
1.457155158E1,-6.442231972E-2,1.103325155E0,1.307414908E0,1.711960973E0
1.458158558E1,3.578594286E-1,1.453110273E0,7.464181280E-1,1.672343523E0
1.459161958E1,6.547625841E-1,1.340989328E0,2.885826042E-1,1.519949453E0
1.460165358E1,1.091107982E0,1.259703090E0,-1.361921775E-1,1.672099523E0
1.461168758E1,1.496424692E0,1.155503368E0,-6.264104587E-1,1.991699013E0
1.462172158E1,1.559379617E0,8.800872320E-1,-5.465702373E-1,1.872153132E0
1.463175558E1,1.494225408E0,6.529164720E-1,-1.103732121E-1,1.634378088E0
1.464178958E1,1.392926636E0,1.425457621E-1,6.224285048E-1,1.532312355E0
1.465182458E1,1.755639071E0,-1.644342291E-1,1.275145879E0,2.176075407E0
1.466185858E1,2.242808029E0,-4.039700961E-1,1.463130062E0,2.708159758E0
1.467189258E1,2.509482871E0,-5.188251990E-1,1.359301053E0,2.900755629E0
1.468192658E1,2.457378040E0,-4.526224387E-1,1.447229436E0,2.887567651E0
1.469196058E1,2.071987764E0,-3.531823504E-1,1.450015342E0,2.553510438E0
1.470199458E1,1.061508354E0,-2.473325443E-1,1.374065858E0,1.753861555E0
1.471202858E1,2.832028917E-1,-3.690768367E-1,1.191471931E0,1.279072692E0
1.472206258E1,-5.086401533E-2,-5.319750023E-1,1.048881145E0,1.177172973E0
1.473209758E1,-2.550602611E-1,-8.020520461E-1,8.803059179E-1,1.217900542E0
1.474213158E1,-2.251595737E-1,-9.265766895E-1,6.503284943E-1,1.154195974E0
1.475216558E1,2.428408960E-2,-9.944371355E-1,2.763171923E-1,1.032398239E0
1.476219958E1,3.315652672E-1,-1.327751817E0,-2.210159808E-1,1.386257002E0
1.477223358E1,7.513273041E-1,-1.346838883E0,-8.752460298E-1,1.773280380E0
1.478226758E1,7.757629645E-1,-1.316586558E0,-1.465218687E0,2.117090962E0
1.479230158E1,4.692463651E-1,-1.321552014E0,-1.901149664E0,2.362427125E0
1.480233558E1,-7.887417367E-1,-1.036765130E0,-2.788143919E0,3.077457063E0
1.481237058E1,-1.084164121E0,-5.501750457E-1,-3.251707376E0,3.471556608E0
1.482240458E1,9.493062420E-2,-7.285671633E-1,-3.114216532E0,3.199713509E0
1.483243858E1,6.991869512E-1,-6.222367162E-1,-2.489112926E0,2.659271344E0
1.484247258E1,1.042436490E0,-5.231071150E-1,-1.511549100E0,1.909213339E0
1.485250658E1,1.421338403E0,-5.059344274E-1,-4.884123686E-1,1.585786601E0
1.486254058E1,1.455706875E0,-5.310160589E-1,4.167874852E-1,1.604609725E0
1.487257458E1,1.330307927E0,-5.600129861E-1,9.798264053E-1,1.744532462E0
1.488260858E1,1.156483216E0,-6.192733473E-1,1.168714275E0,1.756942220E0
1.489264258E1,9.045144870E-1,-7.160681552E-1,1.206218024E0,1.669090166E0
1.490267758E1,6.386191526E-1,-8.230944210E-1,1.137557386E0,1.542516015E0
1.491271158E1,7.162505883E-1,-8.332311541E-1,1.097567402E0,1.553043226E0
1.492274583E1,7.683675523E-1,-9.218404448E-1,9.657968885E-1,1.540435695E0
1.493277983E1,4.568376964E-1,-7.839379567E-1,8.294155535E-1,1.229304503E0
1.494281383E1,-1.056482599E-1,-7.305558014E-1,6.019141334E-1,9.524568010E-1
1.495284783E1,-4.384562431E-1,-6.599074030E-1,2.180046648E-1,8.217345627E-1
1.496288183E1,-8.017474061E-1,-7.872042114E-1,-1.168726847E-1,1.129667472E0
1.497291583E1,-1.014326147E0,-1.101647589E0,-2.503684187E-1,1.518278396E0
1.498295083E1,-8.057159114E-1,-4.868163711E-1,-8.368558431E-1,1.259561833E0
1.499298483E1,-1.029445585E0,-4.581603366E-1,-1.395009707E0,1.793243204E0
1.500301883E1,-1.134246401E0,-6.292603916E-1,-1.701799664E0,2.139767659E0
1.501305283E1,-7.572020748E-1,-5.337560642E-1,-1.729978273E0,1.962415691E0
1.502308683E1,1.588855869E-1,-1.335334486E-1,-1.648138304E0,1.661154924E0
1.503312083E1,8.617841314E-1,1.131383604E-1,-1.450077322E0,1.690620128E0
1.504315483E1,1.112198451E0,3.965786308E-1,-8.136909288E-1,1.433998930E0
1.505318883E1,1.010353987E0,1.540144908E-1,-5.560240155E-1,1.163485431E0
1.506322383E1,8.291010464E-1,3.512200248E-1,-8.689436084E-1,1.251330111E0
1.507325783E1,9.788675351E-1,4.514260983E-1,-8.191101283E-1,1.353849540E0
1.508329183E1,8.862216921E-1,1.771922690E-1,-4.807256189E-1,1.023661618E0
1.509332583E1,8.107961185E-1,1.514078021E-2,3.226698250E-2,8.115791688E-1
1.510335983E1,9.342397580E-1,2.302458107E-2,2.835539988E-1,9.765945560E-1
1.511339383E1,8.716093540E-1,7.048058331E-2,2.758704650E-1,9.169377799E-1
1.512342783E1,6.393836030E-1,9.024592638E-3,8.107018322E-2,6.445659079E-1
1.513346183E1,4.380196754E-1,-2.051969236E-1,-3.413522637E-1,5.920205921E-1
1.514349683E1,3.656035906E-1,-8.068631351E-2,-5.735223931E-1,6.849118206E-1
1.515353083E1,1.822142963E-1,3.196105617E-1,-3.355070946E-1,4.979136185E-1
1.516356483E1,1.782361431E-1,7.314457476E-2,-5.869844377E-1,6.177936400E-1
1.517359883E1,7.882032081E-2,-3.409219086E-2,-6.428262243E-1,6.485371809E-1
1.518363283E1,-8.806856945E-2,9.197670221E-3,-4.943911466E-1,5.022581765E-1
1.519366683E1,-1.648922123E-2,3.416235745E-2,-3.898908779E-1,3.917318697E-1
1.520370083E1,1.676908359E-3,9.471202970E-2,-2.089999527E-1,2.294649446E-1
1.521373483E1,-2.271584809E-1,2.503485382E-1,9.815691680E-2,3.520087304E-1
1.522376983E1,-5.424571596E-1,4.931950986E-1,1.726714942E-1,7.532042354E-1
1.523380383E1,-8.219178151E-1,6.809866154E-1,-1.485224935E-1,1.077659778E0
1.524383783E1,-1.232184047E0,8.551710767E-1,-7.603704616E-1,1.681593986E0
1.525387183E1,-1.675363232E0,1.146676412E0,-1.339236917E0,2.432131632E0
1.526390583E1,-1.828729852E0,1.436442200E0,-1.594455309E0,2.819557908E0
1.527393983E1,-1.608427816E0,1.590966568E0,-1.461577334E0,2.693403602E0
1.528397383E1,-1.045707350E0,1.658244631E0,-8.553035161E-1,2.138883639E0
1.529400783E1,-5.844937431E-1,1.701570745E0,7.255079001E-2,1.800621991E0
1.530404283E1,-7.367842555E-2,1.478730433E0,9.599634138E-1,1.764540155E0
1.531407683E1,2.699248700E-1,1.080068439E0,1.787693800E0,2.106004841E0
1.532411083E1,3.877044578E-1,7.588189030E-1,2.433558822E0,2.578435459E0
1.533414483E1,4.777451834E-1,4.005506444E-1,2.850108325E0,2.917498714E0
1.534417883E1,5.083333572E-1,7.134421706E-2,2.972145856E0,3.016147176E0
1.535421283E1,4.598679063E-1,-1.861168742E-1,2.912813574E0,2.954759025E0
1.536424683E1,2.117945198E-1,-3.997051370E-1,2.664831989E0,2.702952209E0
1.537428083E1,-1.658343815E-1,-6.374219352E-1,2.148178738E0,2.246882208E0
1.538431583E1,-6.504631265E-1,-8.351788616E-1,1.426452524E0,1.776342538E0
1.539434983E1,-9.583441005E-1,-8.941743439E-1,7.453407785E-1,1.507814328E0
1.540438383E1,-1.092280788E0,-8.336498147E-1,2.184683490E-1,1.391322304E0
1.541441783E1,-1.186056751E0,-7.131346071E-1,-2.624774176E-1,1.408611366E0
1.542445183E1,-1.199688877E0,-5.956172669E-1,-6.062162223E-1,1.470207957E0
1.543448583E1,-1.147384875E0,-4.660833138E-1,-8.697856075E-1,1.513358090E0
1.544451983E1,-1.017042471E0,-4.293937898E-1,-1.088030593E0,1.550020963E0
1.545455383E1,-8.738541001E-1,-4.055125916E-1,-1.286350021E0,1.607096085E0
1.546458883E1,-7.680812580E-1,-4.133618939E-1,-1.429347188E0,1.674470143E0
1.547462283E1,-6.491015292E-1,-4.790471756E-1,-1.390216160E0,1.607333183E0
1.548465683E1,-5.115943860E-1,-5.880018532E-1,-1.172744468E0,1.408120941E0
1.549469083E1,-2.429917907E-1,-6.398228019E-1,-7.701025674E-1,1.030279667E0
1.550472483E1,4.404705724E-2,-5.868382573E-1,-3.266950482E-1,6.730891011E-1
1.551475883E1,2.689580511E-1,-5.538067514E-1,4.151347697E-2,6.170605480E-1
1.552479283E1,4.185263375E-1,-6.346854383E-1,3.530244756E-1,8.382220357E-1
1.553482683E1,4.179424199E-1,-7.113798577E-1,5.728458703E-1,1.004434945E0
1.554486083E1,2.768123784E-1,-8.140283132E-1,5.116044724E-1,1.000503035E0
1.555489583E1,1.898249226E-1,-9.043520075E-1,1.960147485E-1,9.446204721E-1
1.556492983E1,1.179452285E-1,-8.571339869E-1,-1.006343821E-1,8.710436426E-1
1.557496383E1,1.146280847E-2,-7.861394334E-1,-2.511928761E-1,8.253753484E-1
1.558499783E1,-1.417537658E-1,-7.853436273E-1,-3.919505596E-1,8.890916625E-1
1.559503183E1,-3.325170112E-1,-7.792853272E-1,-4.087355769E-1,9.407007791E-1
1.560506583E1,-7.298096967E-1,-8.163291925E-1,-3.611386567E-1,1.153012001E0
1.561509983E1,-6.671053255E-1,-6.623684961E-1,-7.128252894E-1,1.179780248E0
1.562513383E1,-7.613810798E-1,-4.795424348E-1,-9.774123824E-1,1.328531919E0
1.563516883E1,-8.278213102E-1,-3.652287841E-1,-1.042256835E0,1.380209946E0
1.564520283E1,-8.202944818E-1,-1.954823595E-1,-9.766329485E-1,1.290313259E0
1.565523683E1,-7.901691151E-1,-1.505365670E-2,-9.811475837E-1,1.259858891E0
1.566527083E1,-7.823488297E-1,9.489504755E-2,-1.049048960E0,1.312089358E0
1.567530483E1,-7.903591496E-1,1.285627306E-1,-1.061038676E0,1.329285159E0
1.568533883E1,-7.662270328E-1,1.254976201E-1,-8.863133472E-1,1.178305931E0
1.569537283E1,-7.234319193E-1,1.413728106E-1,-6.843206978E-1,1.005800592E0
1.570540683E1,-6.438250749E-1,1.670993900E-1,-3.905761716E-1,7.713512034E-1
1.571544183E1,-5.342517253E-1,1.454471505E-1,-9.775813669E-2,5.622601114E-1
1.572547583E1,-4.535280627E-1,8.822746754E-2,7.094455987E-2,4.674450987E-1
1.573550983E1,-4.689999781E-1,9.305609822E-2,1.741353446E-1,5.088649478E-1
1.574554383E1,-5.663450455E-1,2.561618400E-1,3.540357515E-1,7.153369222E-1
1.575557783E1,-4.832985765E-1,2.604045796E-1,4.979073697E-1,7.411476290E-1
1.576561183E1,-5.221842051E-1,3.204987538E-1,5.067322800E-1,7.950933271E-1
1.577564583E1,-5.772369465E-1,4.245417702E-1,4.962219098E-1,8.715930190E-1
1.578567983E1,-6.324697090E-1,4.608377767E-1,5.017940140E-1,9.296163841E-1
1.579571483E1,-5.910109035E-1,4.829560393E-1,5.513094056E-1,9.415319881E-1
1.580574883E1,-4.633698769E-1,5.032979178E-1,7.294489235E-1,1.000058083E0
1.581578283E1,-3.347672025E-1,6.004277712E-1,1.039902745E0,1.246587465E0
1.582581683E1,-2.481546080E-1,8.124074650E-1,1.357365040E0,1.601257772E0
1.583585083E1,-3.034661800E-1,1.021739540E0,1.193626337E0,1.600245994E0
1.584588483E1,-4.129175786E-1,1.067986922E0,7.687495217E-1,1.379156561E0
1.585591883E1,-3.985935448E-1,1.038887084E0,3.100196663E-1,1.155108385E0
1.586595283E1,-3.933442800E-1,1.183692795E0,-6.534205019E-2,1.249046812E0
1.587598683E1,-3.200819204E-1,1.336481125E0,-1.720204067E-1,1.385000091E0
1.588602183E1,-1.065501106E-1,1.416050035E0,-8.441391349E-2,1.422559783E0
1.589605583E1,1.592771677E-1,1.390880696E0,3.228890955E-1,1.436723945E0
1.590608983E1,4.623501224E-1,1.323316119E0,9.200286850E-1,1.676718810E0
1.591612383E1,7.331563506E-1,1.209317048E0,1.590513116E0,2.128308702E0
1.592615708E1,8.804460318E-1,9.650794351E-1,2.165251438E0,2.528809467E0
1.593619108E1,9.980257910E-1,7.140754241E-1,2.599456317E0,2.874566460E0
1.594622508E1,1.151507747E0,5.064729559E-1,2.979120707E0,3.233828247E0
1.595625908E1,1.330756993E0,2.917684597E-1,3.178629752E0,3.458284272E0
1.596629408E1,1.400287111E0,1.280189395E-1,3.024604443E0,3.335479708E0
1.597632808E1,1.442632793E0,-2.005419552E-2,2.513877053E0,2.898477080E0
1.598636208E1,1.499796051E0,-2.105594051E-1,1.915308697E0,2.441747501E0
1.599639608E1,1.482720134E0,-3.626782286E-1,1.413910832E0,2.080658149E0
1.600643008E1,1.399919906E0,-4.984763038E-1,9.163607267E-1,1.745844022E0
1.601646408E1,1.351187311E0,-6.651640499E-1,4.388735881E-1,1.568681098E0
1.602649808E1,1.351627021E0,-7.317398626E-1,1.644959173E-1,1.545767686E0
1.603653208E1,1.303593899E0,-7.712974459E-1,1.310548139E-1,1.520339491E0
1.604656708E1,1.372876534E0,-7.756694090E-1,-1.583314902E-1,1.584778177E0
1.605660108E1,1.312021198E0,-8.129413158E-1,-4.624978012E-1,1.611265783E0
1.606663508E1,1.234122253E0,-7.917790729E-1,-6.179746807E-1,1.591183377E0
1.607666908E1,1.221044151E0,-7.296430510E-1,-7.842855737E-1,1.624324986E0
1.608670308E1,1.249105158E0,-6.320997995E-1,-1.129600495E0,1.798836049E0
1.609673708E1,1.189869721E0,-6.282780594E-1,-1.313116820E0,1.880106129E0
1.610677108E1,1.097127691E0,-6.153861183E-1,-1.414018128E0,1.892574044E0
1.611680508E1,1.094555281E0,-6.456665093E-1,-1.374567549E0,1.871996915E0
1.612684008E1,1.328944941E0,-6.486199379E-1,-1.085592304E0,1.834478981E0
1.613687408E1,1.543250511E0,-6.709194642E-1,-4.257041967E-1,1.735793516E0
1.614690808E1,1.739277685E0,-7.289045477E-1,1.645836255E-1,1.893007257E0
1.615694208E1,1.802373966E0,-8.084687805E-1,4.857700118E-1,2.034243394E0
1.616697608E1,1.651149912E0,-9.063342136E-1,5.325167468E-1,1.957373706E0
1.617701008E1,1.336645139E0,-1.015519271E0,4.087990192E-1,1.727719959E0
1.618704408E1,1.094502730E0,-1.001643829E0,2.248953161E-1,1.500601375E0
1.619707808E1,1.060390951E0,-9.096104085E-1,1.541796747E-1,1.405557340E0
1.620711308E1,1.060906090E0,-7.949418318E-1,1.846270037E-1,1.338484732E0
1.621714708E1,1.058968469E0,-6.717696494E-1,1.939933661E-1,1.268984676E0
1.622718108E1,9.927339877E-1,-6.010054761E-1,5.237584949E-2,1.161667587E0
1.623721508E1,9.456238483E-1,-6.099289119E-1,-7.064722896E-2,1.127478945E0
1.624724908E1,8.496029194E-1,-6.081595445E-1,-1.749580479E-1,1.059383533E0
1.625728308E1,7.588119594E-1,-6.618276286E-1,-3.189837402E-1,1.056201698E0
1.626731708E1,7.433589379E-1,-6.686045516E-1,-4.359417942E-1,1.090715272E0
