"Time (s)","Linear Acceleration x (m/s^2)","Linear Acceleration y (m/s^2)","Linear Acceleration z (m/s^2)","Absolute acceleration (m/s^2)"
1.973583334E-3,-4.030976915E-1,-2.113009782E-1,-1.101870952E0,1.192164187E0
1.200758333E-2,-1.217430645E0,-2.177700453E-1,-1.526850679E0,1.964900548E0
2.204158333E-2,-1.790472981E0,-2.698783846E-1,-1.290811447E0,2.223695580E0
3.207658333E-2,-1.802315932E0,-2.494305253E-1,-8.721192312E-1,2.017709161E0
4.211058332E-2,-1.597013758E0,-2.156656323E-1,-3.145053577E-1,1.641912979E0
5.214420833E-2,-1.499171129E0,-2.903550415E-1,5.559088254E-1,1.625070690E0
6.217820833E-2,-1.366870859E0,-3.600803107E-1,1.254588531E0,1.889969882E0
7.221220832E-2,-1.044612678E0,-4.349638474E-1,1.314027817E0,1.734092932E0
8.224720832E-2,-6.481778884E-1,-3.504055077E-1,9.427266991E-1,1.196516704E0
9.228120833E-2,2.100901076E0,2.135080098E-1,-1.290073528E0,2.474603142E0
1.023152083E-1,-8.305326641E-1,-2.395966780E-1,-2.445705535E0,2.593967355E0
1.123492083E-1,-2.646485472E0,1.355112400E0,-1.613580090E0,3.382876835E0
1.223832083E-1,-1.913491382E0,1.771128345E0,-1.182094751E0,2.862812059E0
1.324182083E-1,-1.093023530E0,1.247433147E0,-9.854102039E-1,1.929202727E0
1.424522083E-1,-7.656811953E-1,1.029536802E-1,-1.320529336E0,1.529923161E0
1.524862083E-1,-8.954496217E-1,-1.108162118E0,-1.842148919E0,2.328812132E0
1.625202083E-1,-2.079914834E0,-1.018410427E0,-1.180024837E0,2.599166045E0
1.725542083E-1,-2.089437025E0,-1.056562852E0,-1.595480618E0,2.833307351E0
1.825882083E-1,-1.995282819E0,-1.089431147E0,-1.723815308E0,2.852990180E0
1.926232083E-1,-2.370774052E0,-1.012671093E0,-1.313025604E0,2.893113994E0
2.026572083E-1,-1.768557032E0,-8.048706964E-1,-9.294207752E-1,2.153934491E0
2.126912083E-1,-7.495037037E-1,-6.452814701E-1,-6.821829557E-1,1.201464757E0
2.227252083E-1,-3.178786165E-1,-6.159685741E-1,-6.352011627E-1,9.401832886E-1
2.327592083E-1,-3.621940792E-2,-5.028870779E-1,-9.880642551E-1,1.109269233E0
2.427942083E-1,-3.590035459E-1,-2.281822187E-1,-4.655406922E-1,6.306177979E-1
2.528282083E-1,-4.407347569E-1,2.786782797E-1,7.142677975E-1,8.843569393E-1
2.628622083E-1,-6.527211750E-1,4.143660070E-1,8.151416230E-1,1.123476740E0
2.728962083E-1,-2.016341859E0,2.686327998E-1,2.539545161E-1,2.049949016E0
2.829302083E-1,-3.109291714E0,1.103823484E-1,-1.380372080E0,3.403719481E0
2.929642083E-1,-2.852165961E0,-3.266403037E-1,-1.703618440E0,3.338242104E0
3.029992083E-1,-3.075742730E0,-7.771276315E-1,1.665253104E0,3.582902259E0
3.130332083E-1,-3.138590650E0,-1.483998482E0,-4.827227354E-1,3.505142508E0
3.230672083E-1,-2.865835581E0,-2.260323364E0,3.186878711E-1,3.663828223E0
3.331012083E-1,-2.009139843E0,-2.658460862E0,-8.669742662E-1,3.443210921E0
3.431352083E-1,-9.533772562E-1,-2.291688852E0,-3.354279817E0,4.172763962E0
3.531702083E-1,-3.586975904E-1,-1.539216663E0,-3.285205489E0,3.645603791E0
3.632042083E-1,5.437156266E-1,-1.276150723E0,-3.394744889E0,3.667216957E0
3.732382083E-1,1.821215595E0,-1.061655850E0,-4.230755224E0,4.726862506E0
3.832722083E-1,2.747786729E0,-9.460297912E-1,-4.970818014E0,5.757980201E0
3.933062083E-1,2.877808925E0,-6.292801259E-1,-4.534311086E0,5.407194717E0
4.033402083E-1,-1.167526706E-1,-3.847580458E-1,-4.418389451E0,4.436646851E0
4.133752083E-1,-2.364648070E0,1.097314802E-1,-5.450897223E0,5.942716721E0
4.234092083E-1,1.377984661E0,6.472423339E-1,-5.453645414E0,5.662156185E0
4.334432083E-1,5.721757793E0,6.607951565E-1,-4.449997745E0,7.278574202E0
4.434772083E-1,7.010990492E0,4.009203346E-1,-4.551373846E0,8.368376705E0
4.535112083E-1,6.867749496E0,-7.148118809E-2,-5.458511467E0,8.773051928E0
4.635462083E-1,6.323353254E0,-7.020990108E-1,-6.426014573E0,9.042754154E0
4.735802083E-1,5.208251806E0,-1.221971300E0,-7.347968454E0,9.089100128E0
4.836142083E-1,3.784093730E0,-1.907223459E0,-8.268062335E0,9.290733096E0
4.936482083E-1,2.789966497E0,-3.035484357E0,-8.851037337E0,9.764166133E0
5.036822083E-1,2.101011588E0,-4.194183814E0,-9.084778613E0,1.022441343E1
5.137172083E-1,1.344687984E0,-5.168142246E0,-9.189481781E0,1.062847381E1
5.237512083E-1,5.962759557E-1,-6.054201239E0,-9.330214321E0,1.113830314E1
5.337852083E-1,-1.784286627E-1,-7.217904743E0,-9.519905598E0,1.194816255E1
5.438192083E-1,-8.683945549E-1,-8.556743465E0,-9.536409949E0,1.284192675E1
5.538532083E-1,-1.779639845E0,-9.656678404E0,-9.486201078E0,1.365307902E1
5.638872083E-1,-2.182531714E0,-1.046715804E1,-9.111365903E0,1.404784079E1
5.739222083E-1,-2.206750882E0,-1.110664229E1,-8.416716099E0,1.410915881E1
5.839562083E-1,-2.160043323E0,-1.187534065E1,-7.195339168E0,1.405213181E1
5.939902083E-1,-2.026582380E0,-1.257150430E1,-5.281418601E0,1.378561347E1
6.040242083E-1,-9.189033884E-1,-1.266890137E1,-3.141485606E0,1.308489118E1
6.140582083E-1,9.510373467E-1,-1.211359247E1,-9.560106960E-1,1.218841872E1
6.240932083E-1,3.263577223E0,-1.199123714E1,1.870161467E0,1.256734691E1
6.341272083E-1,5.851849571E0,-1.149230358E1,6.087513996E0,1.426096111E1
6.441612083E-1,7.468457934E0,-1.051841357E1,1.031868554E1,1.651938737E1
6.541952083E-1,9.130351228E0,-8.974985445E0,1.335705550E1,1.850201635E1
6.642292083E-1,1.042830446E1,-7.273147482E0,1.469363427E1,1.943067411E1
6.742632083E-1,1.189949550E1,-4.911823701E0,1.407753889E1,1.907619213E1
6.842982083E-1,1.270746376E1,-2.376577413E0,1.190369146E1,1.757343523E1
6.943322083E-1,1.445043688E1,-4.181364378E-1,1.017159415E1,1.767629180E1
7.043662083E-1,1.597538604E1,2.347175274E0,1.014052556E1,1.906705142E1
7.144002083E-1,1.602954646E1,4.048146679E0,1.170527672E1,2.025703222E1
7.244342083E-1,1.698407869E1,4.732089062E0,1.370052212E1,2.232836542E1
7.344692083E-1,1.726169163E1,6.049983058E0,1.533332434E1,2.386795191E1
7.445032083E-1,1.645557460E1,6.889884716E0,1.521020069E1,2.344369109E1
7.545372083E-1,1.574138749E1,7.204999938E0,1.346295208E1,2.193067220E1
7.645712083E-1,1.460524893E1,7.398480796E0,1.062872714E1,1.951975038E1
7.746052083E-1,1.321980849E1,7.091997233E0,7.348769522E0,1.670521400E1
7.846392083E-1,1.207513182E1,6.959512775E0,4.186253820E0,1.455226263E1
7.946742083E-1,1.167011390E1,7.111069681E0,2.228344649E0,1.384645769E1
8.047082083E-1,1.211177749E1,7.594958936E0,2.139910775E0,1.445537178E1
8.147422083E-1,1.166387843E1,7.895862501E0,1.823566468E0,1.420267930E1
8.247762083E-1,1.109188626E1,7.617039776E0,7.291893071E-1,1.347519769E1
8.348102083E-1,1.081572928E1,7.406752852E0,-5.030967736E-1,1.311842574E1
8.448452083E-1,1.003035700E1,7.005189469E0,-2.264544761E0,1.244222263E1
8.548792083E-1,9.140438259E0,6.530985543E0,-4.240405469E0,1.200759852E1
8.649132083E-1,8.668190811E0,6.139898617E0,-7.444609480E0,1.297143389E1
8.749472083E-1,7.723883024E0,5.762166147E0,-1.656859543E1,1.916714069E1
8.849812083E-1,5.769407923E0,3.202083226E0,-1.753962499E1,1.873973985E1
8.950152083E-1,4.051635421E0,-2.937389714E-1,-1.158576431E1,1.227729477E1
9.050502083E-1,1.074929029E0,-2.190504978E0,-9.531283695E0,9.838656074E0
9.150842083E-1,-2.490229744E-1,-2.619064955E0,-9.053177336E0,9.427700333E0
9.251182083E-1,-2.364383045E-1,-1.948993337E0,-7.982196640E0,8.220093752E0
9.351522083E-1,-2.579499185E-1,-1.103143891E0,-6.498965020E0,6.596969830E0
9.451862083E-1,1.069683784E-1,-2.918965137E-1,-4.616525862E0,4.626981396E0
9.552212083E-1,8.649373886E-1,1.047382504E-1,-2.924861469E0,3.051868510E0
9.652552083E-1,5.960137081E-1,-2.689380062E-1,-7.083948541E-1,9.640452586E-1
9.752892083E-1,6.639513373E-3,-4.998907453E-1,9.391961503E-1,1.063966282E0
9.853232083E-1,-1.210674772E-1,-1.216917844E0,8.395362067E-1,1.483363548E0
9.953572083E-1,-6.613002098E-1,-8.273652273E-1,1.407541752E0,1.761540510E0
1.005391208E0,-7.144212869E-1,-5.968960530E-1,2.437841615E0,2.609550615E0
1.015426208E0,1.580686578E-1,-6.189096504E-1,2.909279809E0,2.978580847E0
1.025460208E0,-1.094332722E-1,-6.651359832E-1,3.190647241E0,3.261075181E0
1.035494208E0,2.376653427E-1,-5.248431534E-1,3.446008013E0,3.493839775E0
1.045528625E0,-2.793156445E-2,-1.927756834E-1,3.684329413E0,3.689475012E0
1.055562625E0,-6.057212555E-1,2.897529244E-2,3.406588424E0,3.460141976E0
1.065597625E0,-6.951740071E-1,4.205159622E-1,2.362557544E0,2.498355204E0
1.075631625E0,-7.468549150E-1,8.594904149E-1,6.977809882E-1,1.335445373E0
1.085665625E0,-6.309885362E-1,1.148099039E0,-9.379512781E-1,1.611220201E0
1.095699625E0,-2.891021293E-1,1.621919389E0,-1.426188523E0,2.179040212E0
1.105733625E0,-5.986472940E-1,1.959917690E0,-1.552058610E0,2.570708436E0
1.115767625E0,-1.343449836E0,2.021853152E0,-1.666892079E0,2.944703182E0
1.125802625E0,-1.781157782E0,2.084066942E0,-1.880874444E0,3.324687464E0
1.135836625E0,-1.847984440E0,2.428883096E0,-1.968946960E0,3.631979036E0
1.145870625E0,-1.445890131E0,2.785933380E0,-1.598627590E0,3.522447052E0
1.155904625E0,-9.101547843E-1,3.101314650E0,-7.089772367E-1,3.308954973E0
1.165938625E0,-1.544378293E-1,3.046525655E0,8.055007339E-1,3.154996203E0
1.175972625E0,-1.085459572E-1,2.958772981E0,2.465634601E0,3.852982450E0
1.186007625E0,-1.333077461E-2,2.938156868E0,3.140579288E0,4.300718749E0
1.196041625E0,-3.066581020E-1,3.064171382E0,2.851743207E0,4.197097184E0
1.206075625E0,-3.247271678E-1,2.938671423E0,1.884584502E0,3.506122675E0
1.216109625E0,2.392856061E-2,2.450475109E0,5.941776824E-1,2.521596311E0
1.226143625E0,9.093560547E-2,1.964917644E0,-9.712324601E-1,2.193732692E0
1.236178625E0,-5.654327703E-1,1.847842353E0,-1.679023297E0,2.559952111E0
1.246212625E0,-1.064359894E-1,1.783700151E0,-1.027592018E0,2.061276353E0
1.256246625E0,6.112489209E-1,1.236390826E0,7.735024309E-1,1.581326509E0
1.266280625E0,5.414930999E-1,8.721502215E-1,2.343693842E0,2.558664028E0
1.276314625E0,7.470952356E-1,8.774799585E-2,9.889571249E-1,1.242532574E0
1.286348625E0,2.452029884E-3,-5.938145703E-1,-4.451461887E-1,7.421434401E-1
1.296383625E0,-5.486588627E-1,-8.754515594E-1,-1.596397462E0,1.901559054E0
1.306417625E0,-9.725589010E-1,-1.655446154E0,-1.215527961E0,2.272417437E0
1.316451625E0,-9.370739034E-1,-2.158641161E0,-1.767449570E-1,2.359889392E0
1.326485625E0,-6.265674564E-1,-3.560796458E0,-7.170884943E-1,3.685929204E0
1.336519625E0,-1.223719033E0,-4.419907973E0,-4.226589668E-1,4.605617805E0
1.346553625E0,-7.961881658E-1,-5.060063481E0,-8.797656351E-1,5.197321003E0
1.356588625E0,-2.892141035E-1,-5.714518356E0,-1.972897924E0,6.052412003E0
1.366622625E0,-7.497796923E-1,-6.077055082E0,-2.485668916E0,6.608427802E0
1.376656625E0,-1.639611017E0,-5.930173025E0,-2.951364559E0,6.823915969E0
1.386690625E0,-2.521009487E0,-5.689085891E0,-3.191757043E0,6.993461241E0
1.396724625E0,-2.092799466E0,-5.830090327E0,-3.113483875E0,6.932787655E0
1.406758625E0,-6.328754327E-1,-4.935298517E0,-2.190209109E0,5.436425177E0
1.416793625E0,8.628660125E-1,-3.433109640E0,-6.460424852E-1,3.598353852E0
1.426827625E0,1.759667510E0,-2.475126970E0,1.856181652E0,3.559226544E0
1.436861625E0,2.356926675E0,-2.232318417E0,2.779825378E0,4.273848149E0
1.446895625E0,2.871531939E0,-2.533136027E0,2.470417623E0,4.556910910E0
1.456929625E0,1.848876433E0,-1.672414189E0,1.796360835E0,3.072820453E0
1.466964625E0,1.628229704E0,-7.895097685E-1,1.641309925E0,2.443021882E0
1.476998625E0,3.279721093E0,-9.275847495E-2,1.863017632E0,3.773063647E0
1.487032625E0,4.310908272E0,1.201681169E0,2.239592061E0,5.004372124E0
1.497066625E0,4.295777432E0,2.178566133E0,1.949090400E0,5.196037676E0
1.507100625E0,4.174540385E0,2.758715760E0,5.916195256E-1,5.038582513E0
1.517134625E0,3.414894394E0,2.814409320E0,-1.156740639E0,4.573888110E0
1.527169625E0,2.143113002E0,2.547736525E0,-2.586955554E0,4.216187114E0
1.537203625E0,6.917767748E-1,2.594719487E0,-3.869427702E0,4.709946398E0
1.547237625E0,-8.893799195E-1,2.428022971E0,-4.780339116E0,5.434881255E0
1.557271625E0,-1.585011179E0,1.967140755E0,-4.587556124E0,5.237134176E0
1.567305625E0,-1.597571875E0,2.067367879E0,-3.270380751E0,4.185885342E0
1.577339625E0,-2.274456084E0,2.653315020E0,-1.506199190E0,3.805504838E0
1.587374625E0,-3.198385739E0,3.568942798E0,1.069113681E-1,4.793584679E0
1.597408625E0,-4.548848726E0,4.040820703E0,4.969174361E-1,6.104685383E0
1.607442625E0,-5.265893658E0,4.577710290E0,-1.750896102E-1,6.979665027E0
1.617476625E0,-5.006271436E0,5.097931804E0,-9.510291606E-1,7.208059297E0
1.627510625E0,-5.215571351E0,5.304618014E0,-1.324211912E0,7.556103095E0
1.637544625E0,-6.214917809E0,4.161383858E0,-1.699141519E0,7.670032652E0
1.647579625E0,-5.878239809E0,4.255229915E0,-2.047124526E0,7.539986983E0
1.657613625E0,-5.553954399E0,4.931898946E0,-1.927260405E0,7.673615142E0
1.667647625E0,-5.565478676E0,5.245696206E0,-1.748309879E0,7.845283233E0
1.677681625E0,-4.407400779E0,6.066106755E0,-1.228585963E0,7.598174534E0
1.687715625E0,-2.977289359E0,7.175373850E0,-7.939969218E-1,7.809012289E0
1.697749625E0,-2.384921682E0,7.360166915E0,-2.549450344E-1,7.741117840E0
1.707784625E0,-2.493097511E0,6.612515025E0,3.737523873E0,7.994371448E0
1.717818625E0,-1.933399397E0,5.747925838E0,4.816285459E0,7.744242396E0
1.727852625E0,1.185493737E-1,3.658014019E0,3.965562944E0,5.396370075E0
1.737886625E0,3.193109796E0,1.616159881E0,3.182021429E0,4.788860335E0
1.747920625E0,5.623514045E0,-1.266795178E0,3.842397779E0,6.927676445E0
1.757954625E0,7.620934022E0,-5.120194493E0,4.314271590E0,1.014435638E1
1.767989625E0,9.891744075E0,-9.664873277E0,4.302805785E0,1.448345656E1
1.778023625E0,1.067439623E1,-1.402665876E1,5.890485048E0,1.858460935E1
1.788057625E0,1.036714025E1,-1.676624535E1,6.008476013E0,2.060791994E1
1.798091625E0,7.035593237E0,-1.665893842E1,5.439781081E0,1.888414731E1
1.808125625E0,1.444375848E0,-1.346038867E1,4.411133056E0,1.423820141E1
1.818159625E0,-1.774102239E0,-8.527875761E0,2.687079767E0,9.115508841E0
1.828194625E0,-2.708994547E0,-3.481111187E0,1.303365565E0,4.599516099E0
1.838228625E0,-3.151860614E0,-7.945518225E-1,2.637754995E-1,3.261152471E0
1.848262625E0,-3.112483124E0,9.046180558E-1,-4.767136250E-1,3.276147266E0
1.858296625E0,-2.802942345E0,1.767147269E0,-7.447581766E-1,3.396168429E0
1.868330625E0,-2.261071223E0,1.526295778E0,-4.801410435E-1,2.769938140E0
1.878365625E0,-1.232324819E0,6.068164390E-1,2.225485361E-1,1.391538178E0
1.888399625E0,-3.557884544E-2,-5.810407430E-1,9.482645240E-1,1.112690346E0
1.898433625E0,9.896485582E-1,-1.905470172E0,1.562076060E0,2.655240566E0
1.908467625E0,1.627641328E0,-3.029921901E0,2.101831952E0,4.030799000E0
1.918501625E0,1.814650780E0,-3.501792789E0,2.525839287E0,4.683521570E0
1.928535625E0,1.234805646E0,-2.980508836E0,2.387808745E0,4.013702593E0
1.938569625E0,2.807474814E-1,-2.149593179E0,2.201821679E0,3.089917263E0
1.948604625E0,-2.807072818E-1,-1.461309239E0,1.997111682E0,2.490517284E0
1.958638625E0,-5.262565716E-1,-8.258975762E-1,1.670177483E0,1.936116115E0
1.968672625E0,-4.752682664E-1,-1.337620747E-1,1.032842379E0,1.144786267E0
1.978706625E0,-1.507406348E-1,3.025969183E-1,2.436026055E-1,4.166891688E-1
1.988740625E0,4.521732263E-1,7.490698403E-1,-3.742083532E-1,9.516292050E-1
1.998774625E0,1.470081816E0,1.095676412E0,-9.910001421E-1,2.084161373E0
2.008809625E0,2.724163978E0,1.291804304E0,-2.001856844E0,3.619013479E0
2.018843625E0,3.344902638E0,1.172672548E0,-3.106774780E0,4.713341075E0
2.028877625E0,3.101369906E0,5.608222407E-1,-3.539897047E0,4.739608421E0
2.038911625E0,2.678735206E0,-2.053957289E-1,-3.641767530E0,4.525514385E0
2.048945708E0,2.523663830E0,-9.218427837E-1,-3.555665233E0,4.456616261E0
2.058980708E0,2.749286540E0,-1.501488966E0,-3.715037820E0,4.859480590E0
2.069014708E0,2.859942173E0,-1.987804815E0,-3.808586254E0,5.161004405E0
2.079048708E0,2.660690113E0,-2.395100808E0,-3.762641757E0,5.193578030E0
2.089082708E0,2.404656327E0,-2.470659698E0,-4.039790716E0,5.310973585E0
2.099116708E0,2.471912464E0,-1.930842994E0,-4.305628236E0,5.327001070E0
2.109150708E0,2.553540471E0,-1.328585045E0,-4.457143627E0,5.305830422E0
2.119185708E0,2.634816476E0,-7.483582342E-1,-4.688809726E0,5.430214964E0
2.129219708E0,2.743018910E0,-3.117033720E-1,-4.866766226E0,5.595241302E0
2.139253708E0,2.576409809E0,-8.991848230E-2,-4.806402496E0,5.454124841E0
2.149287708E0,2.085176159E0,1.461803913E-3,-4.531761115E0,4.988468758E0
2.159321708E0,1.349956764E0,8.047932208E-2,-4.091891454E0,4.309574904E0
2.169355708E0,5.024851549E-1,1.083442283E-1,-3.590959319E0,3.627563733E0
2.179389708E0,-1.574259026E-1,1.642553043E-1,-3.121167701E0,3.129448920E0
2.189424708E0,-6.194462787E-1,2.129152483E-1,-2.832922774E0,2.907661954E0
2.199458708E0,-9.045120750E-1,2.552444118E-1,-2.729870276E0,2.887123746E0
2.209492708E0,-1.038773356E0,3.659561777E-1,-2.633525119E0,2.854545246E0
2.219526708E0,-1.050202470E0,4.518359882E-1,-2.321758012E0,2.587980150E0
2.229560708E0,-8.937059820E-1,4.026117879E-1,-2.051987363E0,2.274084161E0
2.239594708E0,-8.326378079E-1,3.259314018E-1,-1.854345042E0,2.058667659E0
2.249629708E0,-9.174620497E-1,3.963523436E-1,-1.834908897E0,2.089431131E0
2.259663708E0,-1.001126058E0,4.053348362E-1,-1.583182755E0,1.916511765E0
2.269697708E0,-9.735125819E-1,2.303072065E-1,-6.734156406E-1,1.205925695E0
2.279731708E0,-1.110520738E0,2.253534454E-1,-1.398899567E-1,1.141757280E0
2.289765708E0,-1.133201503E0,2.002893555E-1,3.545377350E-1,1.204142217E0
2.299799708E0,-9.583728249E-1,2.399171054E-1,7.156489098E-1,1.219914772E0
2.309834708E0,-5.884012181E-1,3.909027386E-1,8.784465033E-1,1.127248510E0
2.319868708E0,-1.808654898E-1,5.416193998E-1,9.515361142E-1,1.109722883E0
2.329902708E0,1.753983432E-1,6.618896091E-1,1.020808078E0,1.229191428E0
2.339936708E0,5.137183870E-1,8.063509190E-1,1.072312692E0,1.436649886E0
2.349970708E0,8.535763948E-1,9.853236651E-1,1.060701292E0,1.680637563E0
2.360004708E0,1.233123110E0,1.107866687E0,1.114338385E0,1.997426153E0
2.370039708E0,1.703637736E0,1.202939490E0,1.164433236E0,2.388587389E0
2.380073708E0,2.300293176E0,1.262384623E0,1.138112580E0,2.860116060E0
2.390107708E0,2.966951774E0,1.267729563E0,1.181179954E0,3.435859013E0
2.400141708E0,3.739765111E0,1.273899545E0,1.204850945E0,4.130415104E0
2.410175708E0,4.660122409E0,1.252447865E0,1.313845384E0,5.001155488E0
2.420209708E0,5.607839999E0,1.242133377E0,1.463688178E0,5.927322150E0
2.430244708E0,6.495630353E0,1.323361727E0,1.504860470E0,6.797727928E0
2.440278708E0,7.132545919E0,1.524540444E0,1.480090495E0,7.442318371E0
2.450312708E0,7.208224677E0,1.783307803E0,1.440079168E0,7.563895672E0
2.460346708E0,6.684678437E0,2.189385236E0,1.415108634E0,7.175016791E0
2.470380708E0,5.286906213E0,2.666920906E0,1.282814795E0,6.058833074E0
2.480414708E0,3.861867253E0,2.822113026E0,1.032602935E0,4.893322944E0
2.490449708E0,3.629935105E0,2.405223507E0,9.105640894E-1,4.448669008E0
2.500483708E0,3.846570059E0,1.461182354E0,1.032962101E0,4.242424518E0
2.510517708E0,3.922565152E0,5.344062746E-2,1.362500065E0,4.152803836E0
2.520551708E0,4.039976073E0,-1.747972494E0,1.863950263E0,4.780285043E0
2.530585708E0,4.125272623E0,-3.676515194E0,2.335485520E0,5.999094165E0
2.540619708E0,3.943953974E0,-5.246132408E0,2.621224331E0,7.067354186E0
2.550654708E0,3.333981793E0,-5.954731915E0,2.638923853E0,7.316979286E0
2.560688708E0,2.515389728E0,-5.927906059E0,2.326554045E0,6.846905100E0
2.570722708E0,1.491211315E0,-5.523042508E0,1.611403171E0,5.943427455E0
2.580756708E0,4.324819967E-1,-4.891013460E0,9.244376318E-1,4.996362505E0
2.590790708E0,-5.526212284E-1,-4.004719409E0,2.109242713E-1,4.048167093E0
2.600824708E0,-1.824459045E0,-3.170140471E0,-4.008915371E-1,3.679559137E0
2.610859708E0,-2.714747622E0,-2.499887005E0,-9.851961958E-1,3.819672922E0
2.620893708E0,-3.298552051E0,-1.890194321E0,-1.729695852E0,4.176736519E0
2.630927708E0,-5.043397747E0,-1.991473358E0,-5.808226418E0,7.945899641E0
2.640961708E0,-1.359889868E1,-5.522351952E0,-2.740366847E1,3.108677310E1
2.650995708E0,-1.324651974E1,-5.374485224E0,-2.449393023E1,2.836032431E1
2.661029708E0,-7.067969270E0,-2.313052678E0,-1.030588599E1,1.270896094E1
2.671063708E0,-1.250406310E0,-2.559402305E-1,-3.836050918E0,4.042809418E0
2.681098708E0,1.481336391E0,9.712716365E-1,-6.378695396E-1,1.882711779E0
2.691132708E0,1.658815466E0,1.361825881E0,-2.370092851E-1,2.159261883E0
2.701166708E0,9.398364935E-1,1.413127597E0,2.513191760E-1,1.715629205E0
2.711200708E0,-1.592806394E-1,1.555178685E0,1.025192028E0,1.869483821E0
2.721234708E0,-1.434380618E0,1.578917795E0,1.605303210E0,2.669724247E0
2.731268708E0,-2.614978335E0,1.493818588E0,2.947463881E0,4.213923232E0
2.741303708E0,-3.291953761E0,1.332183421E0,4.416708376E0,5.667361389E0
2.751337708E0,-3.323454466E0,1.331553676E0,5.162831805E0,6.282771444E0
2.761371708E0,-3.082215890E0,1.454597220E0,5.754286439E0,6.687878609E0
2.771405708E0,-2.407707258E0,1.707726694E0,5.617560995E0,6.345894440E0
2.781439708E0,-1.486529742E0,1.982824742E0,4.790737805E0,5.393749470E0
2.791473708E0,-8.336667717E-1,1.922953346E0,4.059092667E0,4.568258217E0
2.801508708E0,-4.132952356E-1,1.679888685E0,3.515924340E0,3.918489876E0
2.811542708E0,-2.381281498E-1,1.346429577E0,2.963169503E0,3.263426286E0
2.821576708E0,-2.778712361E-1,1.047581894E0,2.392959557E0,2.626955594E0
2.831610708E0,-5.939775614E-1,8.065643424E-1,1.950238793E0,2.192438536E0
2.841644708E0,-9.317256014E-1,6.815912175E-1,1.632329041E0,1.999294196E0
2.851678708E0,-1.231161223E0,5.496183908E-1,1.544623291E0,2.050292526E0
2.861712708E0,-1.487263567E0,4.229039651E-1,1.657356732E0,2.266634513E0
2.871747708E0,-1.632233000E0,2.660974288E-1,1.997078938E0,2.592935921E0
2.881781708E0,-1.511769540E0,9.208019793E-2,2.495747469E0,2.919363173E0
2.891815708E0,-1.253018553E0,-5.154437542E-2,2.938614705E0,3.195022489E0
2.901849708E0,-6.498498997E-1,-6.065492213E-2,3.092585927E0,3.160707456E0
2.911883708E0,1.418651462E-1,1.098428696E-1,2.770208755E0,2.776012918E0
2.921917708E0,1.047489508E0,4.479148453E-1,2.209816284E0,2.486191865E0
2.931952708E0,1.957001391E0,8.150065523E-1,1.524193996E0,2.610987833E0
2.941986708E0,2.720234357E0,1.110714281E0,8.826717013E-1,3.067974984E0
2.952020708E0,3.261659629E0,1.289442614E0,1.317365992E-1,3.509763571E0
2.962054708E0,3.626657740E0,8.128419131E-1,-2.928840500E0,4.731962068E0
2.972088708E0,2.410622972E0,-1.924552560E-1,-5.882773156E0,6.360437260E0
2.982122708E0,1.075833155E0,8.945889115E-2,-3.784810891E0,3.935760835E0
2.992157708E0,1.809295022E0,1.357259790E0,-7.694099647E-1,2.389078130E0
3.002191708E0,2.418810682E0,2.073759470E0,7.394574563E-1,3.270767614E0
3.012225708E0,2.226297977E0,2.232386829E0,1.253594504E0,3.392853198E0
3.022259708E0,1.790715495E0,2.036568255E0,1.788798923E0,3.248703407E0
3.032293708E0,1.339897214E0,1.627240355E0,2.423139961E0,3.211672927E0
3.042327708E0,9.336873423E-1,1.137452429E0,3.075095150E0,3.409073227E0
3.052361708E0,6.130853851E-1,5.767839700E-1,3.686708645E0,3.781583540E0
3.062396708E0,2.992433940E-1,-4.825063884E-2,4.297952011E0,4.308626953E0
3.072430708E0,4.749883309E-2,-6.520212632E-1,4.689390355E0,4.734740728E0
3.082464708E0,-1.237102725E-1,-1.098533362E0,4.667699524E0,4.796821721E0
3.092498708E0,-1.304826638E-1,-1.251516988E0,4.099188779E0,4.287967950E0
3.102532708E0,-1.000711490E-1,-1.100524338E0,3.366205798E0,3.542952093E0
3.112566708E0,-4.680345297E-2,-8.243083030E-1,2.723329288E0,2.845733149E0
3.122601708E0,2.519989148E-2,-6.285610646E-1,2.314536701E0,2.398500404E0
3.132635708E0,3.232457757E-2,-6.017252684E-1,2.445031351E0,2.518193100E0
3.142669708E0,5.444532529E-2,-7.595498049E-1,3.228983926E0,3.317561966E0
3.152703708E0,1.088498662E-1,-1.107167945E0,4.213414721E0,4.357812842E0
3.162737708E0,6.047950566E-2,-1.606654063E0,4.996598972E0,5.248904299E0
3.172771708E0,-2.007593255E-1,-2.072445601E0,5.526690586E0,5.905899077E0
3.182805708E0,-6.000273831E-1,-2.197011175E0,5.677571554E0,6.117328642E0
3.192840708E0,-9.993777403E-1,-1.813486453E0,5.306997830E0,5.696640673E0
3.202874708E0,-1.280592122E0,-1.184649984E0,4.628626674E0,4.946463045E0
3.212908708E0,-1.498886370E0,-5.120400900E-1,3.872624375E0,4.184024971E0
3.222942708E0,-1.727819189E0,9.175041497E-2,3.136356137E0,3.581969724E0
3.232976708E0,-1.853631827E0,6.575813806E-1,2.406309920E0,3.107843570E0
3.243010708E0,-1.811039539E0,1.091203292E0,1.646667729E0,2.679944672E0
3.253045708E0,-1.658067314E0,1.295258839E0,8.885107309E-1,2.283929508E0
3.263079708E0,-1.497011607E0,1.218472618E0,3.037476504E-1,1.953965687E0
3.273113708E0,-9.138009618E-1,1.010329283E0,-6.075043640E-1,1.491596128E0
3.283147708E0,2.569255448E0,9.584872842E-1,-5.315789704E0,5.981420534E0
3.293181708E0,4.284547269E0,2.111412030E-1,-7.242727343E0,8.417780306E0
3.303215708E0,2.977797190E0,-9.055132645E-1,-4.677341290E0,5.618251678E0
3.313250708E0,1.792772984E0,-2.096840184E0,-2.640954883E0,3.819085810E0
3.323284708E0,3.891450655E-1,-3.467637448E0,-1.355868445E0,3.743570835E0
3.333318708E0,-9.870540024E-1,-4.628829573E0,-1.372786194E0,4.927969232E0
3.343352708E0,-2.207731314E0,-5.465569056E0,-1.781213623E0,6.157860394E0
3.353386708E0,-2.894018284E0,-5.649308453E0,-1.887858650E0,6.622238149E0
3.363420708E0,-2.499698432E0,-4.688688689E0,-2.188245614E0,5.746365176E0
3.373454708E0,-1.364914526E0,-2.935450777E0,-3.005098132E0,4.417066641E0
3.383489708E0,-1.537232995E-2,-1.270052662E0,-4.054606976E0,4.248894892E0
3.393523708E0,1.382358086E0,1.386550248E-2,-5.332295224E0,5.508582258E0
3.403557708E0,2.427614104E0,6.889557856E-1,-5.922212040E0,6.437434719E0
3.413591708E0,2.663394158E0,8.377913976E-1,-5.602438341E0,6.259622851E0
3.423625708E0,3.009063714E0,1.001833279E0,-5.474987751E0,6.327213069E0
3.433659708E0,3.173009993E0,1.132510947E0,-5.716274859E0,6.635237127E0
3.443694708E0,2.442424078E0,8.543682539E-1,-5.438122226E0,6.022337904E0
3.453728708E0,1.386884124E0,4.760311818E-1,-4.806214800E0,5.024913329E0
3.463762708E0,4.601279247E-1,1.915138543E-1,-4.183341907E0,4.212925916E0
3.473796708E0,-3.045978355E-1,1.646342039E-2,-3.627020853E0,3.639825703E0
3.483830708E0,-8.523272833E-1,-9.693104804E-2,-3.091632246E0,3.208433788E0
3.493864708E0,-1.270823763E0,-2.290442079E-1,-2.687249336E0,2.981402905E0
3.503898708E0,-1.534802161E0,-3.377509636E-1,-2.463349509E0,2.921948697E0
3.513933708E0,-1.670754018E0,-4.238681710E-1,-2.372355139E0,2.932431094E0
3.523967708E0,-1.667923966E0,-4.329611760E-1,-2.215066792E0,2.806411700E0
3.534001708E0,-1.578434377E0,-4.179472804E-1,-2.054802212E0,2.624566086E0
3.544035708E0,-1.489850083E0,-3.913465422E-1,-1.869334964E0,2.422234215E0
3.554069708E0,-1.431331880E0,-3.546195960E-1,-1.647139599E0,2.210776983E0
3.564103708E0,-1.256609182E0,-2.666166615E-1,-1.465790545E0,1.949023602E0
3.574137708E0,-9.987861483E-1,-6.161678910E-2,-1.297117084E0,1.638256124E0
3.584172708E0,-7.773132075E-1,1.685886759E-1,-1.213827006E0,1.451211206E0
3.594206708E0,-5.967367163E-1,4.700389552E-1,-1.235970996E0,1.450743131E0
3.604240708E0,-4.802514097E-1,8.227851033E-1,-1.309561713E0,1.619434662E0
3.614274708E0,-3.321624872E-1,1.232472607E0,-1.342925926E0,1.852773782E0
3.624308708E0,-1.891692670E-1,1.455708776E0,-1.183053110E0,1.885334907E0
3.634342708E0,-5.781609893E-2,1.499156511E0,-8.567951408E-1,1.727689457E0
3.644377708E0,2.812697840E-1,1.504511976E0,-3.950700492E-1,1.580743281E0
3.654411708E0,8.254980652E-1,1.480074708E0,1.281227276E-1,1.699553950E0
3.664445708E0,1.483605695E0,1.374848215E0,6.810015258E-1,2.134257846E0
3.674479708E0,2.170736126E0,1.111093765E0,1.282752230E0,2.755372564E0
3.684513708E0,2.835086244E0,7.141736573E-1,1.968064030E0,3.524348741E0
3.694547708E0,3.446652668E0,1.850971198E-1,2.624922695E0,4.336345779E0
3.704581708E0,4.141353636E0,-3.555300075E-1,3.153277102E0,5.217314252E0
3.714616708E0,5.147957658E0,-6.877021426E-1,3.673547732E0,6.361552894E0
3.724650708E0,6.056768752E0,-7.449580783E-1,4.004736658E0,7.299131863E0
3.734684708E0,6.618269269E0,-3.867219794E-1,3.972868456E0,7.728824346E0
3.744718708E0,6.805320529E0,5.203215015E-1,3.537032204E0,7.687243900E0
3.754752708E0,6.567746987E0,1.738312894E0,2.992606725E0,7.423794664E0
3.764786708E0,6.181497463E0,2.869233398E0,2.275853276E0,7.184909138E0
3.774821708E0,5.724429971E0,3.175804085E0,1.391967693E0,6.692712763E0
3.784855708E0,5.528510824E0,2.678963832E0,8.716473609E-1,6.204921294E0
3.794889708E0,5.396746159E0,1.688839602E0,9.760024725E-1,5.738434380E0
3.804923708E0,5.088633562E0,2.294938588E-1,1.586267161E0,5.335082236E0
3.814957708E0,4.580723945E0,-1.492763166E0,2.224197804E0,5.306451696E0
3.824991708E0,3.918251953E0,-3.080196261E0,2.545291804E0,5.596321805E0
3.835025708E0,3.395854982E0,-4.021489223E0,2.615047333E0,5.877302033E0
3.845060708E0,2.939166975E0,-4.438884526E0,2.453197573E0,5.861789546E0
3.855094708E0,2.335566504E0,-4.626167920E0,2.147173455E0,5.609514629E0
3.865128708E0,1.544187381E0,-4.721864036E0,1.713883081E0,5.255274480E0
3.875162708E0,6.597074282E-1,-4.583924711E0,1.158622858E0,4.773885898E0
3.885196708E0,-2.508645549E-1,-4.114113797E0,6.525475127E-1,4.173090415E0
3.895230708E0,-1.359121836E0,-3.548048358E0,1.146551281E-1,3.801184699E0
3.905265708E0,-2.338872228E0,-3.039268675E0,-6.206912971E-1,3.884936945E0
3.915299708E0,-3.022217025E0,-2.662883404E0,-1.474080727E0,4.289249090E0
3.925333708E0,-3.752066483E0,-2.572813479E0,-2.499384437E0,5.190789405E0
3.935367708E0,-9.997184576E0,-4.711522651E0,-1.774875767E1,2.090838454E1
3.945401708E0,-1.782019428E1,-8.052787151E0,-3.445492172E1,3.961752561E1
3.955435708E0,-1.140416850E1,-5.052220611E0,-1.734599912E1,2.136501060E1
3.965469708E0,-3.374938615E0,-1.913356896E0,-7.016678663E0,8.017788020E0
3.975504708E0,8.854092215E-1,1.702943087E-2,-1.387527902E0,1.646047742E0
3.985538708E0,1.757374379E0,1.064741718E0,-2.297996682E-1,2.067570439E0
3.995572708E0,1.523119571E0,1.848270954E0,-1.800248064E-1,2.401750961E0
4.005606708E0,6.955723487E-1,2.633445597E0,2.196494865E-1,2.732599952E0
4.015640708E0,-3.757094065E-1,3.648613451E0,5.115837148E-1,3.703411342E0
4.025674708E0,-2.053363797E0,3.626109856E0,1.963084688E0,4.606373526E0
4.035708708E0,-3.313120974E0,3.146065730E0,5.344214188E0,7.031011695E0
4.045743708E0,-3.651938470E0,2.674505914E0,7.745057546E0,8.970816734E0
4.055777958E0,-4.066824440E0,2.451361547E0,7.858611644E0,9.181830506E0
4.065811958E0,-4.031074564E0,2.251430041E0,7.623296882E0,8.912527965E0
4.075845958E0,-3.020466954E0,1.995686277E0,5.818359643E0,6.852685114E0
4.085879958E0,-1.620300733E0,1.673826876E0,3.701793000E0,4.373824675E0
4.095913958E0,-4.569704282E-1,1.163146264E0,2.122422922E0,2.463008377E0
4.105947958E0,-2.633951381E-2,4.871549249E-1,9.576485011E-1,1.074757806E0
4.115982958E0,-9.981577188E-2,-7.741362691E-2,4.755189657E-2,1.349712592E-1
4.126016958E0,-3.737907158E-1,-4.207211995E-1,-5.578059545E-1,7.923845719E-1
4.136050958E0,-7.280621101E-1,-5.391226387E-1,-7.013179690E-1,1.145676459E0
4.146084958E0,-1.095397938E0,-5.235883409E-1,-2.139621922E-1,1.232810291E0
4.156118958E0,-1.398614954E0,-4.951966006E-1,5.627149844E-1,1.586818079E0
4.166152958E0,-1.525976520E0,-5.030856639E-1,1.576231877E0,2.250823506E0
4.176186958E0,-1.260931005E0,-4.851592702E-1,2.445787104E0,2.794136911E0
4.186221958E0,-7.173478183E-1,-3.891585141E-1,2.889264790E0,3.002312986E0
4.196255958E0,1.331054324E-1,-4.458677351E-2,2.657915609E0,2.661619887E0
4.206289958E0,1.222784355E0,4.938587576E-1,1.925036709E0,2.333423319E0
4.216323958E0,2.449778121E0,9.393259585E-1,1.062833040E0,2.830787906E0
4.226357958E0,3.588586812E0,1.279269043E0,2.009512603E-2,3.809840995E0
4.236391958E0,5.112939268E0,1.417322974E0,-2.015223433E0,5.675568505E0
4.246426958E0,5.737866873E0,1.217472745E0,-3.354894944E0,6.757268399E0
4.256460958E0,3.689434325E0,1.364356556E0,-1.341023242E0,4.155928029E0
4.266494958E0,2.121548764E0,2.330162800E0,6.928545628E-1,3.226557806E0
4.276528958E0,1.917040203E0,3.146048189E0,1.377923850E0,3.933361982E0
4.286562958E0,1.695223446E0,3.428676281E0,1.654677830E0,4.167440737E0
4.296596958E0,1.512985176E0,3.390045481E0,1.975811006E0,4.205396728E0
4.306630958E0,1.481945671E0,2.998089659E0,2.430575865E0,4.134296024E0
4.316665958E0,1.422779888E0,2.228033577E0,3.022232228E0,4.015261370E0
4.326699958E0,1.281708502E0,1.274563204E0,3.593463097E0,4.022470022E0
4.336733958E0,1.032803787E0,2.149266905E-1,3.936655480E0,4.075553154E0
4.346767958E0,7.674429613E-1,-7.916305536E-1,3.929430075E0,4.081184675E0
4.356801958E0,4.107499427E-1,-1.613422215E0,3.728560676E0,4.083382357E0
4.366835958E0,1.017661107E-1,-2.102844690E0,3.345780889E0,3.953044636E0
4.376869958E0,2.343564034E-3,-2.186505482E0,2.786776548E0,3.542165333E0
4.386904958E0,1.366524996E-1,-2.132543283E0,2.305330698E0,3.143400132E0
4.396938958E0,4.773599616E-1,-2.283797888E0,2.182541947E0,3.194854406E0
4.406972958E0,9.123936832E-1,-2.666073060E0,2.621264385E0,3.848562689E0
4.417006958E0,1.173011832E0,-3.200950035E0,3.698821152E0,5.030240134E0
4.427040958E0,1.181678575E0,-3.763804184E0,4.647637142E0,6.096155936E0
4.437074958E0,9.088501243E-1,-4.078918236E0,5.124720238E0,6.612589511E0
4.447108958E0,5.704214685E-1,-3.687023225E0,4.931022449E0,6.183405478E0
4.457143958E0,3.718729752E-1,-2.507167373E0,3.984013833E0,4.721921640E0
4.467177958E0,8.156661183E-2,-1.282719485E0,2.880840999E0,3.154562925E0
4.477211958E0,-3.043076675E-1,-2.657857722E-1,1.946086686E0,1.987586129E0
4.487245958E0,-6.796468721E-1,5.110302758E-1,1.158014748E0,1.436687151E0
4.497279958E0,-9.870847003E-1,1.035924885E0,4.978883663E-1,1.515047655E0
4.507313958E0,-1.230921048E0,1.308385254E0,-6.595366895E-2,1.797606321E0
4.517347958E0,-5.494033594E-1,1.552819333E0,-1.690387653E0,2.360191168E0
4.527382958E0,1.257793390E0,1.661543630E0,-5.216882297E0,5.617707036E0
4.537416958E0,1.527397978E0,1.079578443E0,-5.959247720E0,6.245884051E0
4.547450958E0,4.985322909E-1,1.520024639E-1,-3.942507958E0,3.976808795E0
4.557484958E0,-2.700149171E-1,-7.685878462E-1,-2.271247132E0,2.412923303E0
4.567518958E0,-9.722910985E-1,-1.612505956E0,-1.077714350E0,2.169560707E0
4.577552958E0,-1.242269178E0,-2.242784933E0,-7.683036715E-1,2.676491640E0
4.587586958E0,-1.350980758E0,-2.789051115E0,-1.066333330E0,3.277349829E0
4.597621958E0,-1.315624545E0,-3.093915583E0,-1.533055744E0,3.695056359E0
4.607655958E0,-1.111983273E0,-3.083223365E0,-2.201862902E0,3.948540662E0
4.617689958E0,-6.234618540E-1,-2.706664431E0,-2.946226903E0,4.049072732E0
4.627723958E0,4.924203426E-2,-2.163740517E0,-3.986681918E0,4.536279370E0
4.637757958E0,8.840558834E-1,-1.445760908E0,-5.123247909E0,5.396243929E0
4.647791958E0,1.573533241E0,-7.495873189E-1,-5.970167395E0,6.219387971E0
4.657826958E0,2.265474907E0,-4.156908399E-1,-5.944976420E0,6.375572137E0
4.667860958E0,2.854746337E0,-2.017342025E-1,-5.481412087E0,6.183538777E0
4.677894958E0,3.470447620E0,1.563878757E-1,-5.245023776E0,6.291163507E0
4.687928958E0,3.726075609E0,5.144701928E-1,-5.536765924E0,6.693586178E0
4.697962958E0,3.287073967E0,6.357999176E-1,-5.519924773E0,6.455901664E0
4.707996958E0,2.517878303E0,5.802279800E-1,-5.091497528E0,5.709616689E0
4.718030958E0,1.792918579E0,5.770839322E-1,-4.639474429E0,5.007225367E0
4.728065958E0,1.185975694E0,5.313551974E-1,-4.134886615E0,4.334300868E0
4.738099958E0,5.656609578E-1,3.570836127E-1,-3.540252265E0,3.602897047E0
4.748133958E0,-1.400560176E-1,1.480047226E-1,-3.034370463E0,3.041204563E0
4.758167958E0,-6.893723997E-1,-3.797181845E-3,-2.645131842E0,2.733490659E0
4.768201958E0,-1.024623825E0,-1.618526834E-1,-2.212144938E0,2.443283754E0
4.778235958E0,-1.226747744E0,-2.962924504E-1,-1.921016749E0,2.298478756E0
4.788269958E0,-1.339130937E0,-3.569573128E-1,-1.745909012E0,2.229100372E0
4.798304958E0,-1.362998248E0,-3.350711846E-1,-1.555982677E0,2.095499705E0
4.808338958E0,-1.324012814E0,-3.342654383E-1,-1.450950311E0,1.992485915E0
4.818372958E0,-1.183299570E0,-2.464846981E-1,-1.330400605E0,1.797475549E0
4.828406958E0,-9.340690193E-1,-1.020865381E-2,-1.097231187E0,1.441008475E0
4.838440958E0,-7.301961976E-1,1.482432890E-1,-9.409292650E-1,1.200212665E0
4.848474958E0,-5.997895476E-1,3.384953141E-1,-6.400333017E-1,9.401963659E-1
4.858508958E0,-4.902520488E-1,5.770307225E-1,-5.685329640E-1,9.468586258E-1
4.868543958E0,-3.687166482E-1,9.149506706E-1,-5.809857792E-1,1.144828010E0
4.878577958E0,-2.210805926E-1,1.246636317E0,-6.078414559E-1,1.404439380E0
4.888611958E0,-8.667941719E-2,1.363185943E0,-4.909737414E-1,1.451497314E0
4.898645958E0,3.371358365E-2,1.332623132E0,-1.343964976E-1,1.339807238E0
4.908679958E0,2.627756256E-1,1.233965401E0,3.377994955E-1,1.306074324E0
4.918713958E0,6.151721102E-1,1.056279042E0,7.491932166E-1,1.433684978E0
4.928747958E0,1.293160420E0,9.111938345E-1,1.190313305E0,1.979743377E0
4.938781958E0,2.072031618E0,7.965726203E-1,1.637606884E0,2.758550212E0
4.948816958E0,2.843189900E0,6.008347374E-1,2.041316779E0,3.551296296E0
4.958850958E0,3.428012037E0,3.200988042E-1,2.298041705E0,4.139411245E0
4.968884958E0,4.062552757E0,2.653723741E-1,2.468873958E0,4.761312426E0
4.978918958E0,4.984212230E0,4.208650410E-1,2.675982336E0,5.672775371E0
4.988952958E0,5.808317635E0,7.334320468E-1,2.820089305E0,6.498259767E0
4.998986958E0,6.548492106E0,1.173168392E0,2.610933232E0,7.146750680E0
5.009021958E0,7.162287197E0,1.671541784E0,2.548079172E0,7.783644217E0
5.019055958E0,7.630877797E0,2.175287014E0,2.404943133E0,8.291316001E0
5.029089958E0,7.720453048E0,2.188673630E0,1.961058920E0,8.260837706E0
5.039123958E0,7.315311754E0,1.372043306E0,1.509389577E0,7.594375932E0
5.049157333E0,7.012006738E0,2.974689102E-1,1.553011560E0,7.188085361E0
5.059191333E0,6.792497585E0,-9.289132369E-1,1.900832014E0,7.114356302E0
5.069225333E0,6.154242421E0,-2.433563207E0,2.326753142E0,7.015034558E0
5.079260333E0,4.753354801E0,-3.976788429E0,2.702197158E0,6.760998266E0
5.089294333E0,3.069543219E0,-4.925652366E0,2.966381963E0,6.517942064E0
5.099328333E0,1.399051010E0,-5.077038533E0,2.847419191E0,5.986773759E0
5.109362333E0,-9.388815701E-2,-4.654605269E0,2.595108912E0,5.329986441E0
5.119396333E0,-1.173478879E0,-3.851646904E0,2.307984603E0,4.641015997E0
5.129430333E0,-1.773861626E0,-2.964775148E0,1.332609537E0,3.703015653E0
5.139464333E0,-2.177066907E0,-2.233790746E0,1.449176851E-1,3.122569863E0
5.149499333E0,-2.373359106E0,-1.811641656E0,-7.704159781E-1,3.083572557E0
5.159533333E0,-2.776628413E0,-1.777916670E0,-1.436031433E0,3.596225703E0
5.169567333E0,-3.081875582E0,-2.199355323E0,-2.169773675E0,4.363833033E0
5.179601333E0,-3.418288702E0,-3.086546338E0,-3.147239267E0,5.578223817E0
5.189635333E0,-5.863492547E0,-5.163989553E0,-1.579789966E1,1.762444231E1
5.199669333E0,-1.129366197E1,-9.843570035E0,-4.432805527E1,4.679122948E1
5.209703333E0,-9.014548876E0,-6.182124869E0,-2.188680413E1,2.446452440E1
5.219738333E0,-5.084242887E0,-2.007326329E0,-8.449304971E0,1.006328173E1
5.229772333E0,-5.876888810E-1,6.089664602E-1,-1.655014922E0,1.858841780E0
5.239806333E0,2.679998204E-2,2.128764812E0,5.459516019E-2,2.129633418E0
5.249840333E0,-1.716123003E0,2.951218379E0,2.739973095E-1,3.424885780E0
5.259874333E0,-3.284523412E0,2.915956745E0,1.079137416E0,4.522768548E0
5.269908333E0,-4.507890442E0,2.358605411E0,1.907121279E0,5.433342185E0
5.279942333E0,-5.613943323E0,1.569837070E0,3.085785030E0,6.595666555E0
5.289976333E0,-5.612397904E0,1.025847793E0,3.738517900E0,6.821135537E0
5.300011333E0,-4.843339357E0,7.536692601E-1,4.668473110E0,6.769091125E0
5.310045333E0,-3.696552433E0,5.041498572E-1,5.994690617E0,7.060806085E0
5.320079333E0,-2.442931324E0,4.127742487E-1,6.049327000E0,6.537021737E0
5.330113333E0,-1.036079690E0,6.481118149E-1,4.717288298E0,4.873019488E0
5.340147333E0,1.671813972E-1,6.920881391E-1,3.279621398E0,3.356017302E0
5.350181333E0,7.946386537E-1,2.449316776E-1,2.059210136E0,2.220763044E0
5.360215333E0,7.903383189E-1,-4.777590340E-1,1.234264486E0,1.541524302E0
5.370250333E0,1.294105768E-1,-9.943541050E-1,1.040785967E0,1.445241369E0
5.380284333E0,-7.042469855E-1,-1.164978197E0,1.335844071E0,1.907253889E0
5.390318333E0,-1.579176973E0,-1.030110998E0,1.930260027E0,2.698301754E0
5.400352333E0,-2.296223221E0,-6.708025199E-1,2.531051787E0,3.482648454E0
5.410386333E0,-2.629944284E0,-1.921441841E-1,2.931800360E0,3.943219456E0
5.420420333E0,-2.561794986E0,4.181039858E-1,3.065941919E0,4.017163719E0
5.430454333E0,-2.243276976E0,1.025176533E0,3.012150459E0,3.893113009E0
5.440489333E0,-1.889751686E0,1.529811124E0,2.867573082E0,3.759582276E0
5.450523333E0,-1.375218636E0,1.874224405E0,2.777966548E0,3.622297829E0
5.460557333E0,-6.805287784E-1,2.044097714E0,2.686540069E0,3.443682974E0
5.470591333E0,1.204003099E-1,2.049814537E0,2.566474512E0,3.286795901E0
5.480625333E0,9.391907416E-1,1.931348779E0,2.498829244E0,3.294895286E0
5.490659333E0,1.673681573E0,1.708265807E0,2.546422071E0,3.493371930E0
5.500693333E0,2.269986326E0,1.481891438E0,2.648535506E0,3.789931461E0
5.510728333E0,2.670080742E0,1.241370900E0,2.750402774E0,4.029273917E0
5.520762333E0,2.925128687E0,1.019311191E0,2.808261557E0,4.181113023E0
5.530796333E0,2.993686121E0,8.573509187E-1,2.881624818E0,4.242754857E0
5.540830333E0,2.769276416E0,8.478024155E-1,2.833186483E0,4.051494348E0
5.550864333E0,2.377505512E0,9.474997813E-1,2.518627331E0,3.590789876E0
5.560898333E0,1.913593562E0,1.080926811E0,1.879906291E0,2.892108358E0
5.570932333E0,1.232257576E0,1.086320867E0,7.192427547E-1,1.793282437E0
5.580966333E0,1.968011990E-1,7.983267850E-1,-1.145860287E0,1.410337606E0
5.591001333E0,-2.550211944E-1,5.861126179E-1,-1.853103385E0,1.960243854E0
5.601035333E0,2.123398823E-1,6.057580930E-1,-1.185606004E0,1.348218339E0
5.611069333E0,6.792328893E-1,5.339186168E-1,-2.133131513E-1,8.899038755E-1
5.621103333E0,3.869449045E-1,1.823401576E-1,3.959528325E-1,5.828832969E-1
5.631137333E0,-4.857034998E-1,-2.769744194E-1,8.562826324E-1,1.022664493E0
5.641171333E0,-1.523679003E0,-6.303345251E-1,1.355024984E0,2.134247414E0
5.651206333E0,-2.571311329E0,-7.365410113E-1,1.772837779E0,3.208907665E0
5.661240333E0,-3.365416424E0,-7.466777444E-1,2.055846525E0,4.013733959E0
5.671274333E0,-3.843048866E0,-9.569956595E-1,2.175268011E0,4.518479412E0
5.681308333E0,-3.958500677E0,-1.403632303E0,2.242530579E0,4.761182065E0
5.691342333E0,-3.502776875E0,-2.217660032E0,1.952787595E0,4.582667482E0
5.701376333E0,-2.354824309E0,-3.666604748E0,4.930873637E-1,4.385467256E0
5.711410333E0,-1.950559513E-1,-5.704576335E0,-3.941933177E0,6.936791416E0
5.721444333E0,2.096917806E0,-7.451193445E0,-8.202260109E0,1.127805032E1
5.731479333E0,7.979660118E-1,-7.813517332E0,-5.249384045E0,9.446895559E0
5.741513333E0,-1.337805081E0,-7.126955981E0,-1.176616641E0,7.346267808E0
5.751547333E0,-1.509370135E0,-5.534596606E0,-9.884316064E-2,5.737571592E0
5.761581333E0,-9.808676483E-1,-3.647048736E0,1.111905798E-1,3.778283892E0
5.771615333E0,-7.131017165E-1,-2.242908309E0,2.622397283E0,3.523651409E0
5.781649333E0,3.671032552E-1,-4.576627386E-1,2.246971978E0,2.322305546E0
5.791683333E0,2.044931820E0,1.736623634E0,-9.459293653E-1,2.844712667E0
5.801718333E0,3.184750032E0,3.217377203E0,-3.142392217E0,5.510787392E0
5.811752333E0,2.961931062E0,3.631553614E0,-3.600276858E0,5.909586341E0
5.821786333E0,1.914278710E0,3.856810580E0,-3.013649392E0,5.255619230E0
5.831820333E0,1.107712759E0,4.175916528E0,-2.559108775E0,5.021388665E0
5.841854333E0,5.997081251E-1,4.434709030E0,-2.283738831E0,5.024117541E0
5.851888333E0,2.364638861E-1,4.494219067E0,-2.251134172E0,5.032049806E0
5.861922333E0,-1.077086359E-2,4.342294956E0,-2.220166733E0,4.876964406E0
5.871957333E0,-3.357675880E-2,3.964423907E0,-1.993843527E0,4.437701694E0
5.881991333E0,2.453152549E-1,3.252044175E0,-1.606115242E0,3.635323516E0
5.892025333E0,5.527317408E-1,2.067952600E0,-1.078761879E0,2.397012208E0
5.902059333E0,9.890427867E-1,5.550025070E-1,-3.530171666E-1,1.187793979E0
5.912093333E0,1.647511482E0,-8.080080199E-1,3.582840461E-1,1.869635928E0
5.922127333E0,2.460258378E0,-1.674895747E0,9.234361500E-1,3.116228710E0
5.932161333E0,3.389459590E0,-1.801614851E0,8.670362467E-1,3.935226072E0
5.942195333E0,4.166240263E0,-1.328160537E0,3.876598728E-1,4.389971357E0
5.952230333E0,4.769161579E0,-5.200513601E-1,-2.907741407E-1,4.806236073E0
5.962264333E0,5.194448869E0,3.568327671E-1,-9.075486803E-1,5.285193779E0
5.972298333E0,5.330402480E0,1.031732431E0,-1.231822104E0,5.567319652E0
5.982332333E0,4.920478749E0,1.346993249E0,-1.257490796E0,5.254215930E0
5.992366333E0,4.214830625E0,1.528762718E0,-9.614407128E-1,4.585442278E0
6.002400333E0,3.373982595E0,1.655603444E0,-5.804551443E-1,3.802855439E0
6.012434333E0,2.338555016E0,1.678283039E0,-2.035880622E-1,2.885640591E0
6.022469333E0,1.371346610E0,1.619921980E0,9.596625745E-2,2.124605438E0
6.032503333E0,6.948240513E-1,1.569309066E0,2.492691422E-1,1.734256761E0
6.042537333E0,3.696317375E-1,1.503401005E0,3.101822188E-1,1.578941168E0
6.052571125E0,2.820603275E-1,1.349564855E0,3.554422992E-1,1.423805658E0
6.062605125E0,2.938790122E-1,1.096840593E0,3.726904160E-1,1.195124389E0
6.072639125E0,3.703348652E-1,7.408661968E-1,4.099895123E-1,9.241872289E-1
6.082673125E0,4.663853225E-1,3.071372813E-1,4.215930194E-1,6.997065475E-1
6.092708125E0,6.134691086E-1,-1.581367779E-1,3.992432070E-1,7.488302385E-1
6.102742125E0,7.797516426E-1,-6.430943191E-1,3.334608614E-1,1.064320945E0
6.112776125E0,9.445790970E-1,-1.060832269E0,1.700762075E-1,1.430566563E0
6.122810125E0,1.048587615E0,-1.310985510E0,-1.070911700E-1,1.682167504E0
6.132844125E0,1.118843665E0,-1.415298083E0,-4.335377115E-1,1.855487742E0
6.142878125E0,1.192889588E0,-1.376781304E0,-8.185920650E-1,1.997149293E0
6.152912125E0,1.208684087E0,-1.153303061E0,-1.287162492E0,2.108983749E0
6.162947125E0,1.289427557E0,-6.847528070E-1,-1.850358410E0,2.356976045E0
6.172981125E0,1.290354487E0,-2.994242191E-2,-2.633479511E0,2.932767564E0
6.183015125E0,1.375621363E0,7.096233541E-1,-3.506171769E0,3.832641375E0
6.193049125E0,1.583133638E0,1.430547037E0,-3.963704407E0,4.501525249E0
6.203083125E0,1.774412288E0,1.959148196E0,-3.789430776E0,4.620236598E0
6.213117125E0,2.001579540E0,2.251408991E0,-3.222831486E0,4.411553682E0
6.223151125E0,2.258054352E0,2.322096566E0,-2.561212603E0,4.129255613E0
6.233185125E0,2.452120223E0,2.164359738E0,-2.030481303E0,3.849701415E0
6.243220125E0,2.681544500E0,1.911559462E0,-1.569349119E0,3.647957941E0
6.253254125E0,2.958054358E0,1.695158688E0,-1.127515378E0,3.590952449E0
6.263288125E0,3.235145722E0,1.437833253E0,-7.364427781E-1,3.616058665E0
6.273322125E0,3.538341103E0,1.082379259E0,-2.918392110E-1,3.711680582E0
6.283356125E0,3.757576314E0,7.736889571E-1,1.252476516E-1,3.838445171E0
6.293390125E0,4.000031988E0,6.566598594E-1,4.385949683E-1,4.077232349E0
6.303424125E0,4.468341630E0,7.007642376E-1,5.817812929E-1,4.560221147E0
6.313459125E0,5.290811568E0,6.272086036E-1,7.393257478E-1,5.378910693E0
6.323493125E0,6.216393061E0,1.264536399E-1,1.085323624E0,6.311692371E0
6.333527125E0,6.699573049E0,-8.455915833E-1,1.712055680E0,6.966379175E0
6.343561125E0,5.988128872E0,-1.778570974E0,2.428238733E0,6.702040394E0
6.353595125E0,4.148547758E0,-2.037555265E0,2.811877768E0,5.410058829E0
6.363629125E0,2.432105350E0,-1.579061052E0,2.722021266E0,3.977181164E0
6.373663125E0,1.186661865E0,-6.935394180E-1,2.432336169E0,2.793818632E0
6.383697125E0,2.327193291E-1,6.682198048E-2,2.138049606E0,2.151715497E0
6.393732125E0,-6.869979917E-1,5.227492654E-1,1.965863431E0,2.147056605E0
6.403766125E0,-1.216220271E0,7.876942080E-1,1.842527672E0,2.344048237E0
6.413800125E0,-1.424282476E0,1.254235944E0,1.789367858E0,2.608356897E0
6.423834125E0,-1.523138866E0,1.277818349E0,1.825000059E0,2.698776937E0
6.433868125E0,-1.830444840E0,8.452249628E-1,1.713445563E0,2.645908019E0
6.443902125E0,-2.251449191E0,3.933667552E-1,1.656151328E0,2.822516268E0
6.453936125E0,-2.391708692E0,-1.135394794E-1,1.626174992E0,2.894409574E0
6.463971125E0,-2.339598159E0,-7.423993367E-1,1.517129683E0,2.885577723E0
6.474005125E0,-2.176337174E0,-1.441125820E0,1.383403861E0,2.954165426E0
6.484039125E0,-1.904523507E0,-1.956614597E0,1.000183779E0,2.907906131E0
6.494073125E0,-1.864701045E0,-2.245744793E0,4.336365294E-1,2.951020214E0
6.504107125E0,-2.240473529E0,-2.363890125E0,-3.900429055E-1,3.280218228E0
6.514141125E0,-2.608719184E0,-2.134610274E0,-1.324617709E0,3.621683155E0
6.524175125E0,-2.972672982E0,-1.516532682E0,-2.162457054E0,3.976540776E0
6.534209125E0,-3.321046582E0,-7.678832567E-1,-2.710647554E0,4.355066620E0
6.544244125E0,-3.503202553E0,1.739453101E-1,-2.982642193E0,4.604219754E0
6.554278125E0,-3.282814855E0,1.002741936E0,-3.176352846E0,4.676706337E0
6.564312125E0,-2.883277241E0,1.608148611E0,-3.183373305E0,4.586207061E0
6.574346125E0,-2.684277197E0,1.909063286E0,-2.608666851E0,4.201786458E0
6.584380125E0,-2.584848510E0,1.992304248E0,-1.639810407E0,3.652354885E0
6.594414125E0,-2.345984781E0,1.871049367E0,-9.220234627E-1,3.139203337E0
6.604448125E0,-1.962284204E0,1.537759244E0,-4.189129481E-1,2.527993443E0
6.614483125E0,-1.498645172E0,1.033358542E0,2.098273337E-2,1.820496499E0
6.624517125E0,-1.031981230E0,4.274484211E-1,4.972080427E-1,1.222666451E0
6.634551125E0,-5.810151614E-1,-2.373238653E-1,9.762932253E-1,1.160624701E0
6.644585125E0,-1.709478081E-1,-8.775834543E-1,1.387940423E0,1.650985915E0
6.654619125E0,2.520149215E-1,-1.431851551E0,1.724478382E0,2.255556710E0
6.664653125E0,6.341263714E-1,-1.875746436E0,1.994530575E0,2.810461378E0
6.674687125E0,9.296959598E-1,-2.063522750E0,2.185514379E0,3.146257112E0
6.684721125E0,1.227318579E0,-1.920964708E0,2.159498655E0,3.140039927E0
6.694756125E0,1.616041768E0,-1.417205445E0,1.998609885E0,2.935047485E0
6.704790125E0,2.135969167E0,-6.787845540E-1,1.800986275E0,2.875180745E0
6.714824125E0,2.528208579E0,9.574113965E-2,1.644203128E0,3.017351307E0
6.724858125E0,2.658557926E0,7.683691603E-1,1.523941104E0,3.159227422E0
6.734892125E0,2.747542608E0,1.321021087E0,1.432482758E0,3.368396346E0
6.744926125E0,2.883087791E0,1.778175117E0,1.305611627E0,3.630251187E0
6.754960125E0,3.221938616E0,2.137960728E0,1.031494742E0,4.001967756E0
6.764995125E0,3.669167291E0,2.373425179E0,7.463760281E-1,4.433171874E0
6.775029125E0,3.807229992E0,2.350761956E0,6.443226729E-1,4.520645274E0
6.785063125E0,3.455256554E0,2.159308913E0,8.265587501E-1,4.157476663E0
6.795097125E0,2.936538944E0,1.958018514E0,1.042065484E0,3.680081241E0
6.805131125E0,2.712148242E0,1.733510576E0,1.222175952E0,3.443039509E0
6.815165125E0,2.635851726E0,1.432797046E0,1.341700642E0,3.286454367E0
6.825199125E0,2.511172716E0,1.066069620E0,1.377522731E0,3.056151456E0
6.835233125E0,2.383365738E0,6.974816108E-1,1.309433659E0,2.807406160E0
6.845268125E0,2.253977673E0,3.634722805E-1,1.137500376E0,2.550771365E0
6.855302125E0,2.067645037E0,1.174506819E-1,7.077760725E-1,2.188583475E0
6.865336125E0,1.942897030E0,-1.068642980E-1,-1.405946924E-1,1.950906382E0
6.875370125E0,1.891455857E0,-3.272265601E-1,-1.143771515E0,2.234478857E0
6.885404125E0,1.973425489E0,-2.802342421E-1,-1.499694163E0,2.494398118E0
6.895438125E0,2.215151723E0,2.234969544E-1,-8.679947515E-1,2.389615645E0
6.905472125E0,2.505462033E0,9.408386332E-1,9.694376573E-2,2.678043208E0
6.915507125E0,2.611770553E0,1.572380024E0,9.293066083E-1,3.187057441E0
6.925541125E0,2.513355774E0,2.035646734E0,1.397197296E0,3.523205239E0
6.935575125E0,2.293464797E0,2.240083519E0,1.698861145E0,3.628234301E0
6.945609125E0,2.086763970E0,2.230143837E0,1.956719263E0,3.627240780E0
6.955643125E0,1.882966139E0,2.003209305E0,2.231346756E0,3.540807442E0
6.965677125E0,1.799185040E0,1.648963346E0,2.424330892E0,3.439989419E0
6.975711125E0,1.809820541E0,1.221666368E0,2.561017306E0,3.365520576E0
6.985745125E0,1.794117405E0,7.358247274E-1,2.674693025E0,3.303676448E0
6.995780125E0,1.696728373E0,2.069505036E-1,2.705879150E0,3.200546463E0
7.005814125E0,1.554960876E0,-3.285796058E-1,2.553979012E0,3.008101840E0
7.015848125E0,1.301369179E0,-8.505418360E-1,2.085914077E0,2.601541984E0
7.025882125E0,9.170497479E-1,-1.281643597E0,1.453586821E0,2.143946174E0
7.035916125E0,5.685516751E-1,-1.445275004E0,9.838242929E-1,1.838472486E0
7.045950125E0,3.498954112E-1,-1.376707045E0,9.707686298E-1,1.720505978E0
7.055984958E0,5.230320514E-1,-1.181897115E0,1.643557010E0,2.090866558E0
7.066018958E0,9.743820629E-1,-1.011015161E0,2.784479762E0,3.118477129E0
7.076053958E0,1.363611328E0,-1.155699835E0,3.825014006E0,4.222062306E0
7.086087958E0,1.558087967E0,-1.749296304E0,4.554715530E0,5.121826747E0
7.096121958E0,1.564439797E0,-2.512507051E0,5.037218994E0,5.842408643E0
7.106155958E0,1.225525676E0,-3.157271335E0,5.198401587E0,6.204325469E0
7.116189958E0,7.558490290E-1,-3.455131423E0,4.979777702E0,6.107980589E0
7.126223958E0,5.527934289E-1,-3.219408526E0,4.349757465E0,5.439720750E0
7.136257958E0,6.395321222E-1,-2.272118075E0,3.364545774E0,4.109950139E0
7.146292958E0,7.589324120E-1,-9.857937813E-1,2.274036546E0,2.592105322E0
7.156326958E0,7.162983893E-1,1.992140526E-1,1.333156252E0,1.526458389E0
7.166360958E0,6.616660262E-1,1.158411189E0,5.592532866E-1,1.446541617E0
7.176394958E0,8.378066734E-1,1.979213501E0,-4.028985938E-1,2.186671759E0
7.186428958E0,1.643940003E0,2.724856288E0,-2.309947514E0,3.932332392E0
7.196462958E0,2.246765717E0,3.121047834E0,-3.474637150E0,5.182856268E0
7.206496958E0,2.059992347E0,3.000299907E0,-2.923724478E0,4.668354402E0
7.216530958E0,1.568278348E0,2.476140878E0,-1.732815927E0,3.404911402E0
7.226565958E0,9.343856460E-1,1.635921716E0,-7.774846771E-1,2.038087049E0
7.236599958E0,7.773405433E-2,6.702867955E-1,1.668757340E-1,6.951075327E-1
7.246633958E0,-3.937085250E-1,-1.257619143E-1,6.176872900E-1,7.432092908E-1
7.256667958E0,-5.129850000E-1,-8.410535592E-1,5.054537863E-1,1.107252559E0
7.266701958E0,-4.044681327E-1,-1.505496063E0,1.894766843E-1,1.570354826E0
7.276735958E0,-2.081325182E-1,-2.082757165E0,-9.570810288E-2,2.095317779E0
7.286769958E0,9.777202383E-2,-2.496092162E0,-5.539383137E-1,2.558687770E0
7.296803958E0,3.651558401E-1,-2.790947952E0,-1.315843377E0,3.107116517E0
7.306838958E0,6.688279152E-1,-2.856646682E0,-2.483769155E0,3.844069492E0
7.316872958E0,1.155452644E0,-2.710228309E0,-3.822629220E0,4.826272107E0
7.326906958E0,1.649685477E0,-2.465437549E0,-4.660436405E0,5.524446756E0
7.336940958E0,1.787549958E0,-2.175360689E0,-4.750001423E0,5.521778925E0
7.346974958E0,1.381709045E0,-1.913921152E0,-4.452724009E0,5.039738601E0
7.357008958E0,1.186114273E0,-1.441197740E0,-4.111237844E0,4.515107375E0
7.367042958E0,9.157869686E-1,-7.805623591E-1,-4.120391952E0,4.292501976E0
7.377077958E0,5.725384529E-1,-2.506917697E-1,-4.203031236E0,4.249249135E0
7.387111958E0,2.159351890E-1,9.477868795E-2,-4.160698564E0,4.167376099E0
7.397145958E0,-1.815757804E-1,3.063952696E-1,-3.992175377E0,4.008030946E0
7.407179958E0,-5.062260573E-1,3.700650162E-1,-3.725317225E0,3.777724364E0
7.417213958E0,-7.952308305E-1,2.961252201E-1,-3.389164891E0,3.493783175E0
7.427247958E0,-9.758364116E-1,1.460388887E-1,-3.013302945E0,3.170737879E0
7.437281958E0,-1.213557741E0,-8.239662409E-2,-2.647064347E0,2.913153146E0
7.447315958E0,-1.323580267E0,-2.665704685E-1,-2.449613814E0,2.797057807E0
7.457350958E0,-1.286777014E0,-2.831590194E-1,-2.324272900E0,2.671744491E0
7.467384958E0,-1.092058155E0,-2.099805307E-1,-2.226505115E0,2.488776379E0
7.477418958E0,-1.002059127E0,-1.230324340E-1,-2.156894597E0,2.381481425E0
7.487452958E0,-1.066022843E0,-7.866902411E-2,-2.058256162E0,2.319269701E0
7.497486958E0,-1.037627594E0,-3.751573563E-3,-1.960533986E0,2.218192645E0
7.507520958E0,-1.014941567E0,1.079723454E-1,-1.739239678E0,2.016610787E0
7.517554958E0,-1.023601293E0,1.649961466E-1,-1.562384208E0,1.875107397E0
7.527588958E0,-1.064522155E0,2.538925356E-1,-1.470750738E0,1.833242093E0
7.537623958E0,-9.918702078E-1,4.861562204E-1,-1.481616034E0,1.848063974E0
7.547657958E0,-8.238123129E-1,7.515578306E-1,-1.484403986E0,1.856599336E0
7.557691958E0,-6.428000580E-1,8.989398247E-1,-1.383210903E0,1.770468052E0
7.567725958E0,-4.187249601E-1,9.721481341E-1,-1.193893847E0,1.595551662E0
7.577759958E0,-6.140848204E-2,1.082568124E0,-9.999767876E-1,1.475018075E0
7.587793958E0,4.239359987E-1,1.240482123E0,-8.401624435E-1,1.557045458E0
7.597827958E0,9.693155967E-1,1.400674782E0,-6.369091344E-1,1.818547722E0
7.607861958E0,1.576075756E0,1.477769151E0,-3.535934097E-1,2.189256666E0
7.617896958E0,2.371027382E0,1.428799889E0,4.181636274E-2,2.768571577E0
7.627930958E0,3.377496772E0,1.289540847E0,6.777153906E-1,3.678273806E0
7.637964958E0,4.389129399E0,8.882435131E-1,1.471877496E0,4.713794309E0
7.647998958E0,5.443857175E0,3.573040527E-1,2.065318429E0,5.833419867E0
7.658032958E0,6.469892664E0,-1.979475456E-1,2.615809225E0,6.981486390E0
7.668066958E0,7.421908250E0,-4.211322588E-1,3.073257078E0,8.044065111E0
7.678100958E0,7.979462482E0,-1.452500993E-1,3.165245767E0,8.585551808E0
7.688134958E0,8.281507423E0,8.012012762E-1,2.747082725E0,8.761949108E0
7.698169958E0,8.386874249E0,2.082733192E0,2.379762391E0,8.963297733E0
7.708203958E0,7.963584368E0,2.862814325E0,1.741512491E0,8.639863864E0
7.718237958E0,7.064863814E0,2.734842163E0,1.288876749E0,7.684586237E0
7.728271958E0,6.377966248E0,1.679729056E0,1.559159469E0,6.777235528E0
7.738305958E0,5.529388492E0,-3.126336640E-1,2.361114890E0,6.020526590E0
7.748339958E0,4.772101851E0,-2.275531095E0,3.002158152E0,6.079798633E0
7.758373958E0,4.189715079E0,-3.683889118E0,3.294754577E0,6.479209767E0
7.768407958E0,3.690899637E0,-4.525150253E0,3.349362894E0,6.731861313E0
7.778442958E0,3.109758614E0,-4.931293759E0,3.169052305E0,6.635597131E0
7.788476958E0,2.295614819E0,-5.006682495E0,2.833519190E0,6.193992897E0
7.798510958E0,1.249877721E0,-4.670987998E0,2.313811792E0,5.360414928E0
7.808544958E0,3.252630651E-1,-3.851434066E0,1.520493001E0,4.153461134E0
7.818578958E0,-5.267320964E-1,-2.781766069E0,5.656834696E-1,2.887155512E0
7.828612958E0,-1.297726656E0,-1.854923916E0,-1.504006192E-1,2.268800907E0
7.838646958E0,-2.130948163E0,-1.438370612E0,-6.833921599E-1,2.660239638E0
7.848681958E0,-2.909371318E0,-1.330301203E0,-1.269521442E0,3.441776786E0
7.858715958E0,-3.270962257E0,-1.452723772E0,-2.105277717E0,4.152324013E0
7.868749958E0,-3.835484616E0,-2.000585659E0,-3.906951624E0,5.829027038E0
7.878783958E0,-1.238064650E1,-5.798416545E0,-2.594690485E1,2.932821020E1
7.888817958E0,-1.744661216E1,-8.034196513E0,-3.242652494E1,3.768835509E1
7.898851958E0,-9.373304792E0,-4.620114298E0,-1.460906015E1,1.796187455E1
7.908885958E0,-2.427099695E0,-2.047842271E0,-6.321822453E0,7.074596103E0
7.918919958E0,1.430335953E0,-1.120823532E-1,-1.342780038E0,1.965065297E0
7.928954958E0,2.032010643E0,1.177284247E0,-5.995495194E-1,2.423741957E0
7.938988958E0,9.216976266E-1,2.207408693E0,1.081384063E-1,2.394550807E0
7.949022958E0,-6.885011646E-1,3.255020993E0,1.428588220E0,3.620781659E0
7.959056958E0,-2.384018287E0,3.561100513E0,3.337852065E0,5.431964328E0
7.969090958E0,-3.386711984E0,3.442070498E0,6.977597628E0,8.485548658E0
7.979124958E0,-3.571468796E0,3.388124671E0,9.861371298E0,1.102186110E1
7.989158958E0,-3.472574252E0,3.563083304E0,8.736332508E0,1.005374757E1
7.999192958E0,-2.717704267E0,3.754982489E0,6.085456361E0,7.649744381E0
8.009227958E0,-1.593206344E0,3.471473807E0,3.995781355E0,5.527721545E0
8.019261958E0,-8.308870053E-1,2.734325854E0,2.529310487E0,3.816323182E0
8.029295958E0,-4.899906052E-1,1.779454488E0,1.730888684E0,2.530321068E0
8.039329958E0,-3.334126950E-1,7.662010127E-1,1.454888996E0,1.677775315E0
8.049363958E0,-3.590253999E-1,-2.547900832E-1,1.391607358E0,1.459584963E0
8.059397333E0,-6.822404777E-1,-1.198326037E0,6.677786323E-1,1.532111504E0
8.069431333E0,-9.651873162E-1,-1.821740967E0,7.364509642E-2,2.062946996E0
8.079465333E0,-1.187412355E0,-2.031128005E0,-2.081722793E-1,2.361940891E0
8.089500333E0,-1.512065702E0,-1.974014742E0,9.117446423E-2,2.488250323E0
8.099534333E0,-1.732552948E0,-1.898375160E0,7.474791053E-1,2.676619693E0
8.109568333E0,-1.598944509E0,-1.597681510E0,1.605695412E0,2.772628267E0
8.119602333E0,-1.309664917E0,-1.220492247E0,2.266185490E0,2.887978565E0
8.129636333E0,-7.286501938E-1,-8.474930978E-1,2.418383251E0,2.664160882E0
8.139670333E0,2.357408778E-1,-2.158751088E-1,1.689746798E0,1.719715112E0
8.149704333E0,1.592970555E0,5.470532173E-1,1.210473043E-1,1.688631061E0
8.159738333E0,3.650526075E0,1.187800464E0,-2.518121547E0,4.591094280E0
8.169773333E0,6.067069207E0,1.569609028E0,-5.356504451E0,8.244097355E0
8.179807333E0,6.054436297E0,1.584032355E0,-3.732920360E0,7.286978235E0
8.189841333E0,4.397944661E0,1.771595246E0,-1.543100676E-1,4.743867468E0
8.199875333E0,3.227025694E0,2.175719708E0,1.703172151E0,4.248322781E0
8.209909333E0,2.799486348E0,2.621667550E0,2.342822607E0,4.494338920E0
8.219943333E0,2.432635547E0,2.905958591E0,2.586905268E0,4.588506282E0
8.229977333E0,2.104042346E0,3.085486237E0,2.718931305E0,4.619502891E0
8.240011333E0,1.906833596E0,3.090897835E0,2.750356581E0,4.555669557E0
8.250046333E0,1.841714763E0,2.767285439E0,2.825322563E0,4.362594361E0
8.260080333E0,1.765169302E0,2.120336051E0,3.050258517E0,4.112873041E0
8.270114333E0,1.541338033E0,1.274079055E0,3.326088637E0,3.880961992E0
8.280148333E0,1.217586034E0,3.357219797E-1,3.476738639E0,3.699045359E0
8.290182333E0,9.143210717E-1,-5.203250098E-1,3.446399192E0,3.603385703E0
8.300216333E0,5.846139765E-1,-1.176863247E0,3.206932907E0,3.465717714E0
8.310250333E0,2.915370561E-1,-1.480088156E0,2.734155115E0,3.122700594E0
8.320284333E0,1.160950050E-2,-1.391386480E0,2.001965017E0,2.438022774E0
8.330319333E0,-4.419047847E-2,-1.226504939E0,1.192071270E0,1.710935731E0
8.340353333E0,4.168977052E-2,-1.425596200E0,7.784427434E-1,1.624818656E0
8.350387333E0,3.485022390E-1,-1.911798613E0,1.433897930E0,2.415055076E0
8.360421333E0,7.634873199E-1,-2.498415261E0,2.859863235E0,3.873475110E0
8.370455333E0,1.004382080E0,-3.205429003E0,4.154822697E0,5.342855987E0
8.380489333E0,9.721838021E-1,-3.880506422E0,5.056945161E0,6.447958266E0
8.390523333E0,6.632023090E-1,-4.123456478E0,5.453413280E0,6.868948029E0
8.400557333E0,2.976267850E-1,-3.442365198E0,5.036206257E0,6.107522682E0
8.410592333E0,1.297327584E-1,-1.933688250E0,3.912698268E0,4.366370182E0
8.420626333E0,-3.574110568E-2,-4.242991108E-1,2.783876914E0,2.816252445E0
8.430660333E0,-2.627349874E-1,7.793864840E-1,1.801980302E0,1.980809424E0
8.440694333E0,-4.550564884E-1,1.707386971E0,9.115543154E-1,1.988260029E0
8.450728333E0,-6.574483564E-1,2.327122833E0,3.334012198E-1,2.441084880E0
8.460762333E0,-9.161046186E-1,2.595666152E0,-1.054437169E-1,2.754605021E0
8.470796333E0,-1.052615031E0,2.598910772E0,-4.752850771E-1,2.843981629E0
8.480830333E0,-1.657982384E-1,2.607632478E0,-2.018428730E0,3.301710275E0
8.490865333E0,1.528148030E0,2.536253178E0,-4.398734328E0,5.302516409E0
8.500899333E0,2.170038407E0,1.960816407E0,-4.759151731E0,5.585999719E0
8.510933333E0,1.131831062E0,9.046706808E-1,-3.505882332E0,3.793505176E0
8.520967333E0,-2.942035326E-1,-2.923800784E-1,-1.934647778E0,1.978611597E0
8.531001333E0,-1.291474814E0,-1.425109127E0,-8.729910511E-1,2.112097676E0
8.541035333E0,-1.853601860E0,-2.447250370E0,-5.958739597E-1,3.127289562E0
8.551069333E0,-2.365551465E0,-3.486331581E0,-8.896576622E-1,4.306022803E0
8.561103333E0,-2.485194999E0,-4.513358173E0,-1.226051779E0,5.296206109E0
8.571138333E0,-2.244946356E0,-5.211791711E0,-1.594016476E0,5.894357090E0
8.581172333E0,-1.534451475E0,-5.025089530E0,-2.170323313E0,5.684748842E0
8.591206333E0,-2.879471581E-1,-3.913017526E0,-2.980041936E0,4.926993978E0
8.601240333E0,8.422699262E-1,-2.583036751E0,-3.984156213E0,4.822343643E0
8.611274333E0,1.604622009E0,-1.770544501E0,-4.987075612E0,5.529969510E0
8.621308333E0,1.945965356E0,-1.556075647E0,-5.378244399E0,5.927365806E0
8.631342333E0,2.492618331E0,-1.332447715E0,-5.133333187E0,5.860006200E0
8.641376333E0,3.302678724E0,-8.696967298E-1,-5.265702454E0,6.276279272E0
8.651411333E0,3.352858652E0,-6.502086264E-1,-5.445827687E0,6.428177937E0
8.661445333E0,2.858629473E0,-5.245601481E-1,-5.144292038E0,5.908524891E0
8.671479333E0,2.194455795E0,-3.207495993E-1,-4.759379772E0,5.250734459E0
8.681513333E0,1.684589846E0,-4.724023998E-2,-4.353218139E0,4.668038427E0
8.691547333E0,1.257802599E0,1.719075555E-1,-3.953444005E0,4.152269149E0
8.701581333E0,7.954910316E-1,2.582200599E-1,-3.649361894E0,3.743971930E0
8.711615333E0,2.745758915E-1,2.616441894E-1,-3.455250122E0,3.476003885E0
8.721649333E0,-2.824781111E-1,2.372396654E-1,-3.310636784E0,3.331124804E0
8.731684333E0,-8.928321156E-1,4.039782822E-2,-3.054371449E0,3.182446562E0
8.741718333E0,-1.411935496E0,-1.361307818E-1,-2.746046013E0,3.090770477E0
8.751752333E0,-1.694833876E0,-1.574725342E-1,-2.548670325E0,3.064796876E0
8.761786333E0,-1.817601285E0,6.637174487E-3,-2.367273324E0,2.984577268E0
8.771820333E0,-1.831528183E0,2.284612405E-1,-2.303979553E0,2.952119883E0
8.781854333E0,-1.753851139E0,4.476049429E-1,-2.227437746E0,2.870160782E0
8.791888333E0,-1.570480409E0,6.966074520E-1,-2.110810937E0,2.721615966E0
8.801922333E0,-1.355267936E0,8.751866806E-1,-1.963388597E0,2.541180373E0
8.811957333E0,-1.142638909E0,1.019004212E0,-1.772116233E0,2.341877282E0
8.821991333E0,-9.906876084E-1,1.122636754E0,-1.467571607E0,2.096554707E0
8.832025333E0,-8.118572420E-1,1.101271028E0,-1.140893515E0,1.781445501E0
8.842059333E0,-6.164756007E-1,1.119537730E0,-7.624371600E-1,1.488192634E0
8.852093333E0,-3.293407671E-1,1.125565624E0,-4.657856905E-1,1.261871477E0
8.862127333E0,-4.929655954E-2,1.110002675E0,-1.829979694E-1,1.126065871E0
8.872161333E0,2.549307087E-1,9.877485055E-1,1.722586808E-1,1.034557794E0
8.882195333E0,5.358533143E-1,7.053133714E-1,6.357005149E-1,1.090284766E0
8.892229333E0,7.609079669E-1,3.608281696E-1,1.210419248E0,1.474548290E0
8.902264333E0,9.744848277E-1,1.709491968E-2,1.750232443E0,2.003303901E0
8.912298333E0,1.273553390E0,-3.427339607E-1,2.245303329E0,2.603995361E0
8.922332333E0,1.659689478E0,-7.250921631E-1,2.730996157E0,3.276990665E0
8.932366333E0,2.075136489E0,-1.128262945E0,3.174089096E0,3.956514920E0
8.942400333E0,2.658491560E0,-1.318395102E0,3.512475360E0,4.598176397E0
8.952434333E0,3.307505016E0,-1.359292867E0,3.721224467E0,5.160889270E0
8.962468333E0,3.935464109E0,-1.202098660E0,3.712072990E0,5.541877374E0
8.972502333E0,4.543366669E0,-6.106808639E-1,3.345735866E0,5.675302661E0
8.982537333E0,5.087725489E0,4.845160764E-1,2.624258451E0,5.745123054E0
8.992571333E0,5.639314392E0,1.792500796E0,1.951756731E0,6.230913275E0
9.002605333E0,6.514672396E0,2.978724850E0,1.480500385E0,7.314754920E0
9.012639333E0,7.034442505E0,3.571572876E0,1.064833227E0,7.960740164E0
9.022673333E0,6.646254044E0,3.400241856E0,7.417099500E-1,7.502297724E0
9.032707333E0,5.970079687E0,2.572859672E0,8.107192276E-1,6.551238358E0
9.042741333E0,5.381415929E0,1.276146045E0,1.332721219E0,5.688965809E0
9.052775875E0,4.891200279E0,-2.084684408E-1,1.872142650E0,5.241394601E0
9.062810875E0,4.662965033E0,-1.449295549E0,2.239264324E0,5.371964743E0
9.072844875E0,4.510671962E0,-2.423329411E0,2.426347743E0,5.666202463E0
9.082878875E0,4.286297633E0,-3.116498700E0,2.493641594E0,5.856889955E0
9.092912875E0,3.918344631E0,-3.328549730E0,2.400240364E0,5.673959971E0
9.102946875E0,3.121668516E0,-2.999138650E0,2.124129140E0,4.821988341E0
9.112980875E0,1.946508270E0,-2.240578194E0,1.556864291E0,3.351553596E0
9.123014875E0,6.170826879E-1,-1.393106731E0,8.176686434E-1,1.729196177E0
9.133048875E0,-5.658523080E-1,-7.834707642E-1,1.301397246E-1,9.751674834E-1
9.143083875E0,-1.388439191E0,-5.036493355E-1,-3.318060994E-1,1.513777172E0
9.153117875E0,-2.425018379E0,-6.394743079E-1,-6.772332877E-1,2.597746418E0
9.163151875E0,-2.998242856E0,-1.165590400E0,-1.184359085E0,3.427939271E0
9.173185875E0,-3.235102160E0,-1.977883844E0,-1.600329422E0,4.115697359E0
9.183219875E0,-3.848306390E0,-3.162636155E0,-2.342031186E0,5.504256498E0
9.193253875E0,-1.002424432E1,-6.714026197E0,-1.743852780E1,2.120532654E1
9.203287875E0,-1.795695597E1,-1.155312164E1,-3.606397957E1,4.191106668E1
9.213321875E0,-1.037623735E1,-7.787373846E0,-1.701098407E1,2.139352874E1
9.223356875E0,-2.644966073E0,-3.618678630E0,-5.612964499E0,7.183039122E0
9.233390875E0,1.248898167E0,-1.236289669E0,-1.081532582E0,2.063461050E0
9.243424875E0,2.323361026E0,5.379917872E-1,-4.388797277E-1,2.424882891E0
9.253458875E0,1.871991792E0,1.729356714E0,-3.457400143E-1,2.571879482E0
9.263492875E0,5.384007268E-1,2.699209816E0,1.749878687E-1,2.757939399E0
9.273526875E0,-1.340020152E0,3.148423913E0,6.556409821E-1,3.483976498E0
9.283560875E0,-3.307311473E0,2.902829161E0,2.814530357E0,5.223629719E0
9.293594875E0,-4.341796773E0,2.371143011E0,5.575195579E0,7.453611483E0
9.303628875E0,-4.424457399E0,1.873864802E0,7.141900295E0,8.607783245E0
9.313663875E0,-4.111152767E0,1.773824204E0,6.922467155E0,8.244305968E0
9.323697875E0,-3.331694362E0,1.749344251E0,5.195134748E0,6.414812365E0
9.333731875E0,-2.028662819E0,1.636305293E0,3.077186700E0,4.032622699E0
9.343765875E0,-8.984040005E-1,1.223785399E0,1.701679211E0,2.280458854E0
9.353799875E0,-2.852227210E-1,5.414124084E-1,6.565011075E-1,8.974815322E-1
9.363833875E0,-4.157458037E-2,-1.843381512E-1,-2.319689852E-1,2.991966073E-1
9.373867875E0,-1.629814153E-1,-7.782474464E-1,-1.055304896E0,1.321325264E0
9.383901875E0,-6.885723545E-1,-1.133037781E0,-1.648777112E0,2.115743951E0
9.393936875E0,-1.317669755E0,-1.306782532E0,-1.701422518E0,2.517691950E0
9.403970875E0,-1.743479055E0,-1.388960470E0,-1.166641145E0,2.515945541E0
9.414004875E0,-2.066667967E0,-1.386441489E0,-1.771981162E-1,2.494942016E0
9.424038875E0,-2.174932234E0,-1.309383373E0,9.112675095E-1,2.697262226E0
9.434072875E0,-1.942326926E0,-1.137845947E0,1.709953898E0,2.826883376E0
9.444106875E0,-1.303175531E0,-8.223383760E-1,2.047109615E0,2.562257724E0
9.454140875E0,-3.111967108E-1,-1.989608681E-1,1.839138188E0,1.875861960E0
9.464174875E0,8.546829803E-1,5.360633755E-1,1.312121332E0,1.655146317E0
9.474208875E0,1.883006923E0,1.112177255E0,8.554324472E-1,2.348279794E0
9.484243875E0,2.856472435E0,1.512622064E0,5.706148651E-1,3.282234240E0
9.494277875E0,3.778614596E0,1.737389619E0,4.325527480E-1,4.181333858E0
9.504311875E0,4.396615005E0,1.947008792E0,3.837122713E-1,4.823722820E0
9.514345875E0,4.694218985E0,2.181464598E0,4.217734060E-1,5.193493283E0
9.524379875E0,4.701951343E0,2.518334970E0,5.256629330E-1,5.359727510E0
9.534413875E0,4.107307638E0,2.863944592E0,7.540977149E-1,5.063676335E0
9.544447875E0,2.958370108E0,3.091907650E0,1.093380795E0,4.416710107E0
9.554481875E0,2.124204861E0,3.281127641E0,1.488073407E0,4.182392539E0
9.564516875E0,1.751608732E0,3.254198874E0,1.728550090E0,4.079930009E0
9.574550875E0,1.708842342E0,2.959642462E0,1.977561955E0,3.948465137E0
9.584584875E0,1.891280587E0,2.502462704E0,2.279445221E0,3.877516261E0
9.594618875E0,2.054643314E0,1.871993108E0,2.625447190E0,3.823465744E0
9.604652875E0,2.108124287E0,1.033620497E0,2.921515692E0,3.748041260E0
9.614686875E0,2.111324468E0,9.397644997E-2,3.100100183E0,3.751951990E0
9.624720875E0,1.918188597E0,-8.302578449E-1,3.140813177E0,3.772728852E0
9.634754875E0,1.443426114E0,-1.531988627E0,3.164540008E0,3.800629101E0
9.644789875E0,7.063195311E-1,-1.855912680E0,3.046798720E0,3.636795512E0
9.654823875E0,-8.135523498E-3,-1.900288369E0,2.803834046E0,3.387129674E0
9.664857875E0,-4.860027310E-1,-1.817114650E0,2.643873521E0,3.244714394E0
9.674891875E0,-7.327214639E-1,-1.845892891E0,2.595000154E0,3.267755668E0
9.684925875E0,-7.102412586E-1,-2.080940436E0,2.569527344E0,3.381896881E0
9.694959875E0,-4.630003694E-1,-2.449671117E0,2.501549953E0,3.531714894E0
9.704993875E0,-1.249694704E-1,-2.790098351E0,2.241600872E0,3.581206591E0
9.715027875E0,1.051279673E-1,-2.900369822E0,1.800177605E0,3.415235922E0
9.725061875E0,-3.466434091E-2,-2.710325373E0,1.287517126E0,3.000794160E0
9.735096875E0,-4.631753473E-1,-2.255133668E0,9.284074527E-1,2.482357682E0
9.745130875E0,-9.713581753E-1,-1.714950929E0,7.309981433E-1,2.102130271E0
9.755164875E0,-1.491348432E0,-1.195377286E0,6.101300561E-1,2.006316447E0
9.765198875E0,-1.906327373E0,-7.101162744E-1,3.891304475E-1,2.071176401E0
9.775232875E0,-2.119662306E0,-2.550005829E-1,1.299263012E-1,2.138895610E0
9.785266875E0,-1.992177363E0,1.652522546E-1,-3.723653108E-1,2.033404750E0
9.795300875E0,-1.241468548E0,6.067369169E-1,-1.652569324E0,2.154149301E0
9.805334875E0,1.075041296E-1,1.112449735E0,-2.785717910E0,3.001553901E0
9.815369875E0,1.067420327E0,1.245086221E0,-3.449070784E0,3.819124916E0
9.825403875E0,6.669187993E-1,7.855324924E-1,-3.070227928E0,3.238540028E0
9.835437875E0,-1.101944335E-2,3.415300190E-1,-2.403958755E0,2.428123118E0
9.845471875E0,-4.258463571E-1,-2.740426254E-1,-1.993236294E0,2.056559117E0
9.855505875E0,-1.744182037E-1,-1.104039100E0,-1.984924477E0,2.277992367E0
9.865539875E0,4.374611201E-1,-1.946881907E0,-2.169849688E0,2.947875347E0
9.875573875E0,9.945216277E-1,-2.845782555E0,-2.662403640E0,4.021932963E0
9.885607875E0,1.653121593E0,-3.598374174E0,-3.384334506E0,5.209110072E0
9.895641875E0,2.253993168E0,-3.897734073E0,-4.238615636E0,6.183743091E0
9.905676875E0,2.940785484E0,-3.841599049E0,-4.885855047E0,6.875876821E0
9.915710875E0,3.048137147E0,-3.630507547E0,-5.126403067E0,6.982244161E0
9.925744875E0,3.290540489E0,-3.047356544E0,-4.895920444E0,6.639583993E0
9.935778875E0,3.687629874E0,-2.160785335E0,-4.981243599E0,6.563565734E0
9.945812875E0,3.877277589E0,-1.534001824E0,-4.935651104E0,6.461199186E0
9.955846875E0,3.942788624E0,-1.008555822E0,-4.804468821E0,6.296482164E0
9.965880875E0,3.587908242E0,-7.212359244E-1,-4.781702687E0,6.021457249E0
9.975914875E0,3.060596687E0,-3.194538563E-1,-4.973712970E0,5.848685626E0
9.985949875E0,2.536948704E0,1.181769061E-1,-5.038974329E0,5.642812844E0
9.995983875E0,2.103774397E0,5.211418658E-1,-5.147291075E0,5.584985315E0
1.000601787E1,1.632726944E0,7.430261582E-1,-5.128419771E0,5.433099897E0
1.001605187E1,1.064975825E0,8.034495306E-1,-4.901142592E0,5.079458964E0
1.002608587E1,3.801872773E-1,6.865157425E-1,-4.530771766E0,4.598232163E0
1.003611988E1,-2.923092540E-1,4.332623076E-1,-3.999358681E0,4.033364698E0
1.004615387E1,-7.481239801E-1,9.999557376E-2,-3.456673919E0,3.538118594E0
1.005618758E1,-1.115287754E0,-2.769153625E-1,-3.039723004E0,3.249686882E0
1.006622158E1,-1.277091832E0,-5.213921267E-1,-2.571235315E0,2.917886966E0
1.007625658E1,-1.248543094E0,-6.723204571E-1,-2.104256208E0,2.537472925E0
1.008629058E1,-1.144004161E0,-7.756869507E-1,-1.690661595E0,2.183751908E0
1.009632458E1,-1.035702325E0,-8.170250112E-1,-1.291311969E0,1.845994522E0
1.010635858E1,-8.633156633E-1,-7.617050886E-1,-9.302762228E-1,1.480176485E0
1.011639258E1,-7.472129839E-1,-6.717977160E-1,-5.585734016E-1,1.149627618E0
1.012642658E1,-6.999343716E-1,-5.251513016E-1,-2.646198374E-1,9.141748588E-1
1.013646058E1,-5.968894748E-1,-3.067577970E-1,4.804715574E-2,6.728193817E-1
1.014649458E1,-6.231483702E-1,-1.190990120E-1,3.980503750E-1,7.489609916E-1
1.015652958E1,-9.440943629E-1,1.942333943E-1,8.802699575E-1,1.305341325E0
1.016656358E1,-1.220810628E0,5.768547213E-1,1.447296386E0,1.979345040E0
1.017659758E1,-1.468622644E0,1.073385072E0,1.675835395E0,2.473344346E0
1.018663158E1,-1.413470244E0,1.394562103E0,1.816739259E0,2.691327390E0
1.019666558E1,-8.195287158E-1,1.355026154E0,1.850789350E0,2.435804674E0
1.020669958E1,8.813347355E-2,1.091506178E0,1.812056808E0,2.117239505E0
1.021673358E1,1.294452362E0,6.240008211E-1,1.701394744E0,2.227044682E0
1.022676758E1,2.684884722E0,-2.270649254E-1,1.801196775E0,3.241060671E0
1.023680158E1,3.611318155E0,-1.358426895E0,2.363760901E0,4.524854477E0
1.024683658E1,3.022867820E0,-2.095499418E0,3.356366981E0,4.979362106E0
1.025687058E1,1.315528797E0,-2.283437700E0,4.284370683E0,5.029963807E0
1.026690458E1,4.903694317E-2,-2.053673115E0,4.697967635E0,5.127463095E0
1.027693858E1,-5.533610474E-1,-1.001881810E0,4.186800827E0,4.340423571E0
1.028697258E1,-6.196189177E-1,1.045195645E-1,3.213944303E0,3.274796165E0
1.029700658E1,-6.559258877E-1,4.762206316E-2,2.992483934E0,3.063897310E0
1.030704058E1,-9.299302138E-1,-1.119966331E0,3.194380689E0,3.510436265E0
1.031707458E1,-9.143446067E-1,-2.252062125E0,3.442886769E0,4.214413267E0
1.032710858E1,-3.869583531E-1,-2.711566152E0,3.292049655E0,4.282513129E0
1.033714358E1,4.597789921E-1,-2.527609239E0,2.624545257E0,3.672661568E0
1.034717758E1,1.033571088E0,-1.952618610E0,1.758132909E0,2.823476573E0
1.035721158E1,1.289943428E0,-1.203373938E0,1.063810841E0,2.060037958E0
1.036724558E1,1.439635511E0,-3.740966713E-1,4.344928542E-1,1.549607293E0
1.037727958E1,1.430347062E0,2.236986834E-1,-6.779671133E-2,1.449320604E0
1.038731358E1,1.272395641E0,4.488199943E-1,-4.116311181E-1,1.410627602E0
1.039734758E1,1.000822076E0,2.964398003E-1,-5.123435605E-1,1.162762790E0
1.040738158E1,6.648191372E-1,-1.413798273E-1,-4.951287729E-1,8.409073923E-1
1.041741658E1,2.765002102E-1,-7.739281082E-1,-3.293344814E-1,8.853690098E-1
1.042745058E1,-2.186433269E-1,-1.504970983E0,-3.124985933E-2,1.521091423E0
1.043748458E1,-7.520734819E-1,-2.143131421E0,1.620234221E-1,2.277032806E0
1.044751858E1,-8.752362357E-1,-2.248081341E0,-6.090225935E-2,2.413217203E0
1.045755258E1,-9.779411899E-1,-1.798918115E0,-4.744957030E-1,2.101813866E0
1.046758658E1,-1.007211109E0,-9.834063631E-1,-1.146910885E0,1.815755179E0
1.047762058E1,-9.129523847E-1,9.105751991E-2,-1.947682976E0,2.152961333E0
1.048765458E1,-8.416427393E-1,1.127794583E0,-2.588095177E0,2.945932750E0
1.049768858E1,-8.348711519E-1,1.947227477E0,-3.068239875E0,3.728645950E0
1.050772358E1,-8.580684451E-1,2.497629395E0,-3.374793019E0,4.285284352E0
1.051775758E1,-7.651224938E-1,2.793841739E0,-3.525675157E0,4.563041683E0
1.052779158E1,-7.923285650E-1,2.688574900E0,-3.554081515E0,4.526335710E0
1.053782558E1,-6.744849502E-1,2.156127443E0,-3.613389823E0,4.261502260E0
1.054785958E1,-7.951518200E-1,1.381408791E0,-2.827095439E0,3.245462261E0
1.055789358E1,-1.168642135E0,5.682166296E-1,-1.399829859E0,1.910004768E0
1.056792758E1,-1.390166458E0,-2.303843898E-1,-3.029389805E-1,1.441322925E0
1.057796158E1,-1.332418479E0,-9.254990476E-1,2.947201341E-1,1.648862471E0
1.058799558E1,-1.143583892E0,-1.346423146E0,7.331364700E-1,1.912623457E0
1.059803058E1,-8.351234592E-1,-1.455615220E0,1.018383238E0,1.962995486E0
1.060806458E1,-4.996682587E-1,-1.235667526E0,1.149015590E0,1.759766868E0
1.061809858E1,-1.698385913E-1,-8.137184107E-1,1.209316463E0,1.467456680E0
1.062813258E1,1.467779037E-1,-3.147293061E-1,1.211121207E0,1.259925738E0
1.063816658E1,4.835261428E-1,1.493811572E-1,1.208746068E0,1.310411888E0
1.064820058E1,8.612793705E-1,5.429946649E-1,1.261026900E0,1.620751123E0
1.065823458E1,1.240064339E0,7.991892493E-1,1.427697104E0,2.052993435E0
1.066826858E1,1.628596763E0,9.546713912E-1,1.670126466E0,2.520525202E0
1.067830358E1,2.131250171E0,1.088860897E0,1.880666867E0,3.043805712E0
1.068833758E1,2.571522998E0,1.249653481E0,2.045741074E0,3.515596805E0
1.069837158E1,2.903020365E0,1.415352463E0,2.368529013E0,4.005081712E0
1.070840558E1,3.465908427E0,1.451932644E0,2.995406080E0,4.805526735E0
1.071843958E1,3.977533949E0,1.339925719E0,3.355443413E0,5.373562854E0
1.072847358E1,3.957115472E0,1.183340208E0,3.692564047E0,5.540224377E0
1.073850758E1,3.517903038E0,1.142224926E0,3.792639728E0,5.297587722E0
1.074854158E1,2.880110389E0,1.305183318E0,3.776047084E0,4.925146792E0
1.075857658E1,2.091267934E0,1.508976325E0,3.664197450E0,4.480709104E0
1.076861058E1,1.540100031E0,1.621079729E0,3.501078259E0,4.154197464E0
1.077864458E1,1.225034656E0,1.715850230E0,3.336756297E0,3.946998164E0
1.078867858E1,1.079858524E0,1.809109812E0,3.031853821E0,3.692033361E0
1.079871258E1,1.150794752E0,1.974501230E0,2.590013648E0,3.454150310E0
1.080874658E1,1.353957575E0,2.122317088E0,2.104021588E0,3.280905025E0
1.081878058E1,1.545699909E0,2.069540119E0,1.658717525E0,3.069776595E0
1.082881458E1,1.711281362E0,1.795571169E0,1.230722828E0,2.768977862E0
1.083884858E1,1.844436350E0,1.198465785E0,9.564458750E-1,2.398552563E0
1.084888358E1,1.940520283E0,2.027539569E-1,9.330548197E-1,2.162711130E0
1.085891758E1,2.002827189E0,-1.067241987E0,1.129751354E0,2.535085862E0
1.086895158E1,2.106164885E0,-2.356486380E0,1.318603848E0,3.424569271E0
1.087898558E1,2.208612489E0,-3.408513327E0,1.338830536E0,4.276493825E0
1.088901958E1,2.285223147E0,-3.864328930E0,1.113300212E0,4.625442711E0
1.089905358E1,1.926114936E0,-3.778852578E0,7.700221682E-1,4.310751639E0
1.090908758E1,1.433503828E0,-3.264918575E0,2.991324431E-1,3.578282653E0
1.091912158E1,1.399478734E0,-2.506424777E0,-2.394943517E-1,2.880635943E0
1.092915558E1,1.752740606E0,-1.718486155E0,-8.583893842E-1,2.600408936E0
1.093919058E1,2.112861117E0,-9.827117139E-1,-1.698744786E0,2.883684840E0
1.094922458E1,2.356446327E0,-3.081570357E-1,-2.554298270E0,3.488873701E0
1.095925858E1,2.436182760E0,1.475644273E-1,-3.249545660E0,4.064026168E0
1.096929258E1,2.567462107E0,3.866173142E-1,-3.715551206E0,4.532841866E0
1.097932658E1,2.908371152E0,4.715680021E-1,-4.098674224E0,5.047784616E0
1.098936058E1,3.292107543E0,4.853569061E-1,-4.376660212E0,5.498063114E0
1.099939458E1,3.783513978E0,4.311438614E-1,-4.804275863E0,6.130410233E0
1.100942858E1,4.492267559E0,4.025386977E-1,-5.554875920E0,7.155358252E0
1.101946258E1,5.079435307E0,2.989242822E-1,-6.189560189E0,8.012532315E0
1.102949758E1,5.167685578E0,1.682828665E-3,-5.983296733E0,7.905998790E0
1.103953158E1,4.678246146E0,-4.677801758E-1,-5.048171414E0,6.898466491E0
1.104956558E1,4.034249017E0,-1.064136531E0,-3.653828582E0,5.545990894E0
1.105959983E1,3.492498055E0,-1.616205490E0,-2.364513438E0,4.516700859E0
1.106963383E1,2.684283921E0,-1.887205224E0,-1.457799740E0,3.590557590E0
1.107966783E1,1.760045825E0,-1.677397186E0,-8.561867380E-1,2.577688569E0
1.108970183E1,9.720744592E-1,-1.152897264E0,-5.863292572E-1,1.617987285E0
1.109973583E1,4.437680000E-1,-3.863606215E-1,-6.513488334E-1,8.777584351E-1
1.110977083E1,2.078071207E-2,4.517927188E-1,-8.910314655E-1,9.992424987E-1
1.111980483E1,-3.495430434E-1,1.162328238E0,-1.065125880E0,1.614831388E0
1.112983883E1,-6.046931688E-1,1.602627670E0,-1.074268294E0,2.021910395E0
1.113987283E1,-8.149537812E-1,1.762259581E0,-9.608647621E-1,2.166326288E0
1.114990683E1,-8.804655468E-1,1.690523016E0,-8.108930361E-1,2.071384842E0
1.115994083E1,-7.973080538E-1,1.418829217E0,-5.937397259E-1,1.732427009E0
1.116997483E1,-6.612203953E-1,9.441247684E-1,-3.693042934E-1,1.210359306E0
1.118000883E1,-4.435596929E-1,3.573034680E-1,-1.350332594E-1,5.853588221E-1
1.119004283E1,-1.445841014E-1,-2.025317627E-1,1.487253919E-1,2.899015686E-1
1.120007783E1,1.950565360E-1,-6.436439574E-1,4.054383320E-1,7.853055693E-1
1.121011183E1,6.292719398E-1,-8.575754517E-1,5.025231618E-1,1.176413345E0
1.122014583E1,1.085017523E0,-8.322780579E-1,4.234024402E-1,1.431509489E0
1.123017983E1,1.463336468E0,-5.822651500E-1,1.843159318E-1,1.585672945E0
1.124021383E1,1.737458177E0,-9.748360991E-2,-2.302513656E-1,1.755357418E0
1.125024783E1,1.911628605E0,4.748652470E-1,-5.948755476E-1,2.057595160E0
1.126028183E1,2.036652309E0,8.493338013E-1,-7.184988427E-1,2.320681176E0
1.127031583E1,2.166207312E0,1.042365008E0,-5.617653966E-1,2.468716121E0
1.128034983E1,2.289061990E0,1.145551992E0,-2.041713220E-1,2.567835682E0
1.129038483E1,2.541021582E0,1.270595284E0,1.976317960E-1,2.847852065E0
1.130041883E1,2.970734046E0,1.322769404E0,6.523130393E-1,3.316698956E0
1.131045283E1,3.598871772E0,1.248836040E0,1.125541066E0,3.972192364E0
1.132048683E1,4.586850657E0,9.549321771E-1,1.611266785E0,4.954520670E0
1.133052083E1,5.626256390E0,1.965600014E-1,2.197913400E0,6.043527125E0
1.134055483E1,6.590399101E0,-1.037845695E0,2.971890040E0,7.303602837E0
1.135058883E1,7.300448717E0,-2.142943726E0,3.879259796E0,8.540340499E0
1.136062283E1,7.160580980E0,-2.272665959E0,4.429285153E0,8.721094971E0
1.137065683E1,6.031195954E0,-1.289509857E0,4.305453989E0,7.521641733E0
1.138069183E1,4.557407880E0,-1.357770252E-1,4.026618401E0,6.082931672E0
1.139072583E1,3.437825419E0,7.622383547E-1,3.811402858E0,5.189069538E0
1.140075983E1,2.617837039E0,1.342347636E0,3.584589947E0,4.637267841E0
1.141079383E1,2.007705814E0,1.570941609E0,3.322965054E0,4.188178234E0
1.142082783E1,1.781926106E0,1.656781073E0,2.953042125E0,3.826309183E0
1.143086183E1,1.710762568E0,1.803015844E0,2.497056953E0,3.523190049E0
1.144089583E1,1.514506037E0,1.951712292E0,2.030957851E0,3.198077423E0
1.145092983E1,1.361047032E0,2.020272650E0,1.657965719E0,2.946659282E0
1.146096483E1,1.304282555E0,1.823060099E0,1.426162795E0,2.656810385E0
1.147099883E1,1.061412898E0,1.194193225E0,1.315438750E0,2.069558867E0
1.148103283E1,5.132013470E-1,2.304586494E-1,1.242693978E0,1.364102319E0
1.149106683E1,-2.289988920E-1,-8.209783137E-1,1.229193488E0,1.495781574E0
1.150110083E1,-7.162637445E-1,-1.765450991E0,1.270689862E0,2.290088138E0
1.151113483E1,-9.115160161E-1,-2.423955647E0,1.368516704E0,2.929037452E0
1.152116883E1,-9.344765702E-1,-2.755414422E0,1.254053510E0,3.168312691E0
1.153120283E1,-9.053853567E-1,-2.765485082E0,9.555233306E-1,3.062785532E0
1.154123683E1,-7.637274943E-1,-2.751865162E0,4.812653169E-1,2.896145345E0
1.155127183E1,-6.707737224E-1,-2.665511143E0,-1.304437798E-1,2.751709036E0
1.156130583E1,-7.688416153E-1,-2.533987382E0,-8.087213802E-1,2.768797528E0
1.157133983E1,-1.566737314E0,-2.701438774E0,-3.024293079E0,4.347273386E0
1.158137383E1,-8.307402987E0,-6.101895223E0,-2.410136455E1,2.621300904E1
1.159140783E1,-1.024725245E1,-7.280050120E0,-2.781341327E1,3.052198012E1
1.160144183E1,-5.237065131E0,-3.242110341E0,-8.544377189E0,1.053302009E1
1.161147583E1,-1.168370166E0,-4.699231803E-1,-1.907821922E0,2.285979249E0
1.162150983E1,3.411693189E-1,9.421121567E-1,4.122301653E-1,1.083469210E0
1.163154383E1,-1.635553926E-1,1.524359180E0,9.380164745E-1,1.797302474E0
1.164157883E1,-4.495776838E-1,1.909424644E0,1.337856390E0,2.374422516E0
1.165161283E1,-4.093461724E-1,2.155491266E0,2.054515991E0,3.005784896E0
1.166164683E1,-2.872327928E-1,2.326957941E0,2.508380671E0,3.433541834E0
1.167168083E1,-3.273823884E-1,2.372462727E0,2.732814934E0,3.633735830E0
1.168171483E1,-4.541767017E-1,2.333623182E0,2.917125018E0,3.763202360E0
1.169174883E1,-4.729913240E-1,2.273336635E0,2.965204918E0,3.766194426E0
1.170178283E1,-4.338227267E-1,2.154896019E0,3.074523293E0,3.779480452E0
1.171181683E1,-2.229860174E-1,1.922614208E0,3.100632280E0,3.655145509E0
1.172185083E1,1.634862128E-1,1.490029593E0,2.979004932E0,3.334874258E0
1.173188583E1,7.191431328E-1,8.578198653E-1,2.910797746E0,3.118615925E0
1.174191983E1,1.227221807E0,1.257759476E-1,2.745949534E0,3.010337489E0
1.175195383E1,1.653154776E0,-6.426855987E-1,2.641077967E0,3.181392513E0
1.176198783E1,1.978707132E0,-1.289444368E0,2.567967891E0,3.488897789E0
1.177202183E1,2.129105997E0,-1.718094977E0,2.444204409E0,3.668661594E0
1.178205583E1,1.978986629E0,-1.883920258E0,2.199854091E0,3.507834323E0
1.179208983E1,1.664725977E0,-1.824811925E0,1.895815834E0,3.113738720E0
1.180212383E1,1.133213051E0,-1.556909460E0,1.638417015E0,2.528349106E0
1.181215783E1,6.628437285E-1,-1.081129124E0,1.395316101E0,1.885499672E0
1.182219283E1,3.309098674E-1,-3.930194306E-1,9.828081930E-1,1.108998448E0
1.183222683E1,2.423355138E-1,5.460714698E-1,4.494862846E-1,7.476352529E-1
1.184226083E1,4.422528403E-1,1.655657238E0,-1.012825459E-1,1.716696426E0
1.185229483E1,8.756591356E-1,2.624367210E0,-3.386900264E-1,2.787255479E0
1.186232883E1,1.491590799E0,3.171286526E0,-2.395130628E-1,3.512729401E0
1.187236283E1,2.108238016E0,3.381205076E0,2.136397183E-2,3.984679625E0
1.188239683E1,2.608155512E0,3.379828057E0,3.790606651E-1,4.285953786E0
1.189243083E1,2.977281758E0,3.266579184E0,7.715113078E-1,4.486644172E0
1.190246483E1,3.338768908E0,3.052871638E0,1.184929481E0,4.676693376E0
1.191249983E1,3.521597893E0,2.735863087E0,1.623804531E0,4.745876074E0
1.192253383E1,3.458675421E0,2.327968340E0,2.061610125E0,4.651033065E0
1.193256783E1,3.275824217E0,1.846883410E0,2.509680214E0,4.521116832E0
1.194260183E1,2.969705520E0,1.254483281E0,3.020774517E0,4.417913293E0
1.195263583E1,2.760179318E0,7.073891330E-1,3.398486229E0,4.434940575E0
1.196266983E1,2.345935810E0,2.599180913E-1,3.551829168E0,4.264558908E0
1.197270383E1,1.719994152E0,-1.081267118E-2,3.345152606E0,3.761454872E0
1.198273783E1,1.047709217E0,-1.662071049E-2,2.919125058E0,3.101493504E0
1.199277183E1,3.323131992E-1,1.356887323E-1,2.473484488E0,2.499393727E0
1.200280683E1,-4.825239301E-2,2.757453346E-1,2.141648275E0,2.159865995E0
1.201284083E1,1.998139769E-3,1.520001251E-1,2.210951814E0,2.216171463E0
1.202287483E1,3.733594836E-1,-3.760116345E-1,2.840910363E0,2.889905490E0
1.203290883E1,9.178102514E-1,-1.340411038E0,3.814180870E0,4.145727092E0
1.204294283E1,1.267623144E0,-2.778105712E0,4.888811983E0,5.764132406E0
1.205297683E1,1.325329315E0,-4.368965276E0,5.899469880E0,7.459765428E0
1.206301100E1,1.110453203E0,-5.668938725E0,6.608996170E0,8.777744754E0
1.207304500E1,7.276178679E-1,-6.002330589E0,6.664930050E0,8.998816191E0
1.208307900E1,5.748022024E-1,-4.788221163E0,5.526610479E0,7.334908511E0
1.209311400E1,4.639572662E-1,-2.892495376E0,3.788005809E0,4.788608760E0
1.210314800E1,1.625400236E-1,-1.256053258E0,2.485502855E0,2.789590201E0
1.211318200E1,-1.732880831E-1,4.339394152E-2,1.606257037E0,1.616160098E0
1.212321600E1,2.748489565E-1,1.208427102E0,-8.770531118E-3,1.239320351E0
1.213325000E1,2.488889562E0,2.420067249E0,-4.548477135E0,5.721882644E0
1.214328400E1,3.958707961E0,2.708858306E0,-7.082254018E0,8.553806405E0
1.215331800E1,3.275981507E0,1.904703602E0,-5.772724464E0,6.905381842E0
1.216335200E1,1.504939115E0,6.183950955E-1,-3.559010426E0,3.913286272E0
1.217338600E1,-1.718917680E-1,-4.705611116E-1,-1.622952884E0,1.698514234E0
1.218342100E1,-1.639118681E0,-1.435843445E0,-5.773757082E-1,2.254266878E0
1.219345500E1,-2.555886959E0,-2.125868102E0,-4.913947409E-1,3.360556818E0
1.220348900E1,-2.837735325E0,-2.562620612E0,-9.436678085E-1,3.938308661E0
1.221352300E1,-2.655052813E0,-3.028040267E0,-1.380762674E0,4.257327666E0
1.222355700E1,-1.709070676E0,-3.076054094E0,-1.880436487E0,3.989871269E0
1.223359100E1,-6.782622515E-1,-2.640907813E0,-2.575467530E0,3.750662176E0
1.224362500E1,4.253856696E-2,-2.069102163E0,-3.353672292E0,3.940826199E0
1.225365900E1,5.559643009E-1,-1.724673679E0,-3.858765305E0,4.263058207E0
1.226369300E1,1.194826551E0,-1.491244059E0,-4.059233000E0,4.486512218E0
1.227372800E1,2.465058065E0,-1.118026224E0,-5.190974454E0,5.854289853E0
1.228376200E1,3.355782552E0,-9.607834858E-1,-6.176156616E0,7.094314061E0
1.229379600E1,3.463781210E0,-9.937600279E-1,-6.187496706E0,7.160339011E0
1.230383000E1,3.268321654E0,-1.008589152E0,-5.652206917E0,6.606558979E0
1.231386400E1,2.951467470E0,-9.969771659E-1,-5.280379550E0,6.130867140E0
1.232389800E1,2.414024152E0,-9.033480406E-1,-4.941607078E0,5.573421822E0
1.233393200E1,1.618119868E0,-7.693684494E-1,-4.620925891E0,4.956127098E0
1.234396600E1,7.697799473E-1,-6.366594583E-1,-4.317613859E0,4.431668519E0
1.235400000E1,1.119800270E-1,-5.054216266E-1,-4.045482103E0,4.078469810E0
1.236403500E1,-2.643916498E-1,-4.794003475E-1,-3.703427589E0,3.743675139E0
1.237406900E1,-5.996395665E-1,-5.761436999E-1,-3.243057590E0,3.347974268E0
1.238410300E1,-9.044245130E-1,-6.604377455E-1,-2.841229913E0,3.053972681E0
1.239413700E1,-1.121771366E0,-7.327929461E-1,-2.487281578E0,2.825230282E0
1.240417100E1,-1.266104476E0,-7.028049159E-1,-2.218761063E0,2.649501075E0
1.241420500E1,-1.453602024E0,-6.142833334E-1,-2.094149296E0,2.622167830E0
1.242423900E1,-1.627062161E0,-4.847821248E-1,-1.990991548E0,2.616561165E0
1.243427300E1,-1.710275934E0,-2.759494025E-1,-1.923615836E0,2.588723571E0
1.244430700E1,-1.718880258E0,1.022970378E-2,-1.896036859E0,2.559220537E0
1.245434200E1,-1.682000407E0,3.418451840E-1,-1.837551838E0,2.514474151E0
1.246437600E1,-1.581212681E0,6.686513293E-1,-1.762914469E0,2.460730698E0
1.247441000E1,-1.453836205E0,9.493562722E-1,-1.639256383E0,2.387902538E0
1.248444400E1,-1.285702150E0,1.175716608E0,-1.475838400E0,2.283295545E0
1.249447800E1,-1.051849265E0,1.324915917E0,-1.340449045E0,2.158377332E0
1.250451200E1,-7.904929047E-1,1.399222918E0,-1.163517562E0,1.984055676E0
1.251454600E1,-4.841820543E-1,1.499143063E0,-9.983337200E-1,1.865082411E0
1.252458000E1,-4.681456268E-2,1.539699351E0,-8.305227238E-1,1.750038196E0
1.253461400E1,4.641088553E-1,1.458050585E0,-4.987452757E-1,1.609364902E0
1.254464800E1,1.037090235E0,1.199411280E0,2.956469178E-2,1.585880716E0
1.255468300E1,1.654027035E0,7.065640908E-1,6.557918403E-1,1.914445398E0
1.256471700E1,2.325595978E0,2.949101686E-2,1.400338275E0,2.714813743E0
1.257475100E1,3.133716411E0,-7.085954136E-1,2.247294306E0,3.920792994E0
1.258478500E1,3.940668716E0,-1.501108312E0,3.189422835E0,5.287212320E0
1.259481900E1,4.735083129E0,-2.142609850E0,4.023932190E0,6.572961241E0
1.260485300E1,5.742259886E0,-2.418109601E0,4.591204202E0,7.739506358E0
1.261488700E1,6.794411963E0,-2.157285191E0,4.696078400E0,8.536455099E0
1.262492100E1,7.602757952E0,-1.256352051E0,4.281388603E0,8.815363709E0
1.263495600E1,8.162757490E0,2.051220793E-1,3.499307722E0,8.883571322E0
1.264499000E1,8.399318293E0,1.528856859E0,2.504381760E0,8.897071377E0
1.265502400E1,7.985561128E0,1.897141398E0,1.538935120E0,8.350847460E0
1.266505800E1,7.030473415E0,1.584394298E0,1.270893638E0,7.317993739E0
1.267509200E1,5.820345358E0,1.195129949E0,1.432685802E0,6.112065468E0
1.268512600E1,4.773263401E0,6.084413803E-1,1.762330917E0,5.124456524E0
1.269516000E1,4.055176494E0,-1.414453161E-1,2.089279881E0,4.563940578E0
1.270519400E1,3.422567695E0,-9.941634858E-1,2.336657302E0,4.261724769E0
1.271522800E1,2.655327047E0,-1.656772887E0,2.607138973E0,4.073429974E0
1.272526200E1,1.820733199E0,-1.886999987E0,2.666398750E0,3.739721999E0
1.273529700E1,1.005925745E0,-1.663567936E0,2.198729671E0,2.934920280E0
1.274533100E1,4.337631217E-1,-1.279961354E0,1.399452421E0,1.945486724E0
1.275536500E1,-7.343459666E-2,-8.963962859E-1,6.174595410E-1,1.090951523E0
1.276539900E1,-5.031739569E-1,-5.598545265E-1,6.381651163E-2,7.554426973E-1
1.277543300E1,-6.505144358E-1,-2.245015061E-1,-2.835171613E-1,7.442794758E-1
1.278546700E1,-1.093615853E0,-2.115136707E-1,-6.958990619E-1,1.313396045E0
1.279550100E1,-1.541596772E0,-5.867903101E-1,-1.078742291E0,1.970920700E0
1.280553500E1,-1.770940357E0,-1.290921375E0,-1.390374327E0,2.595351328E0
1.281557000E1,-1.965761105E0,-2.213623114E0,-1.817637683E0,3.473924403E0
1.282560400E1,-4.665650074E0,-4.366003076E0,-8.558347356E0,1.068061716E1
1.283563800E1,-1.451801666E1,-1.097453147E1,-3.454150728E1,3.904265455E1
1.284567200E1,-1.219177208E1,-9.294598930E0,-2.239771746E1,2.714197161E1
1.285570600E1,-4.070933864E0,-4.280963511E0,-7.943699157E0,9.899571071E0
1.286574000E1,9.005554835E-1,-1.207275200E0,-1.867351296E0,2.399065328E0
1.287577400E1,1.889333318E0,3.127114320E-1,-5.075587839E-2,1.915710047E0
1.288580800E1,1.432369030E0,1.166065779E0,-4.468559146E-2,1.847535450E0
1.289584200E1,4.312370514E-1,1.802459773E0,6.356022817E-1,1.959289894E0
1.290587600E1,-8.373431354E-1,2.188520433E0,1.660486454E0,2.871929747E0
1.291591100E1,-1.967433993E0,2.088778628E0,2.920166740E0,4.094040359E0
1.292594500E1,-2.785885432E0,1.814511470E0,4.166424158E0,5.330356440E0
1.293597900E1,-3.039511335E0,1.684188142E0,5.650314758E0,6.633338204E0
1.294601300E1,-2.898144372E0,1.735053071E0,6.382180336E0,7.220933167E0
1.295604700E1,-2.339290888E0,1.975073673E0,6.425274900E0,7.117398079E0
1.296608100E1,-1.328669245E0,2.203507431E0,5.824681068E0,6.367708890E0
1.297611500E1,-5.684324650E-1,2.069430776E0,4.415658216E0,4.909551577E0
1.298614900E1,-2.437977563E-1,1.662944039E0,3.125492302E0,3.548735317E0
1.299618300E1,-2.717228888E-1,1.177730389E0,2.255951985E0,2.559336156E0
1.300621800E1,-5.381429377E-1,6.379645568E-1,1.611458720E0,1.814771557E0
1.301625200E1,-1.234895401E0,3.009035647E-2,9.704334381E-1,1.570863819E0
1.302628600E1,-2.199290127E0,-4.958374554E-1,3.224081621E-1,2.277428126E0
1.303632000E1,-2.925166402E0,-9.038982636E-1,5.116313696E-3,3.061642815E0
1.304635400E1,-3.252362849E0,-1.053951266E0,5.581488937E-2,3.419326348E0
1.305638771E1,-3.269116876E0,-9.817621261E-1,3.411455646E-1,3.430358919E0
1.306642171E1,-3.035773502E0,-7.814499664E-1,7.295012560E-1,3.218502274E0
1.307645571E1,-2.579710854E0,-4.727497244E-1,1.130510322E0,2.855950627E0
1.308648971E1,-1.856911092E0,-1.260308862E-1,1.503257456E0,2.392443430E0
1.309652471E1,-9.820676431E-1,2.204797912E-1,1.697433255E0,1.973410208E0
1.310655871E1,2.695225815E-1,5.308558452E-1,1.603522002E0,1.710477466E0
1.311659271E1,1.564996598E0,7.703396720E-1,1.206049332E0,2.120658519E0
1.312662671E1,2.649000360E0,9.383740318E-1,6.516300845E-1,2.884851902E0
1.313666071E1,3.896015284E0,1.023006046E0,-5.207451323E-1,4.061607066E0
1.314669471E1,5.664771414E0,8.818776494E-1,-3.375494393E0,6.652917087E0
1.315672871E1,6.983011565E0,3.969949526E-1,-5.929112340E0,9.169210907E0
1.316676271E1,5.374722621E0,1.595541430E-1,-3.723622702E0,6.540524964E0
1.317679671E1,2.782568892E0,8.804105830E-1,-1.939131130E-1,2.924964056E0
1.318683071E1,1.927155448E0,1.838893774E0,1.279296964E0,2.955005779E0
1.319686571E1,1.628071244E0,2.498595940E0,1.872513364E0,3.521349733E0
1.320689971E1,1.343848909E0,2.891706002E0,2.233043033E0,3.892862017E0
1.321693371E1,1.310294808E0,3.041752573E0,2.567980755E0,4.190901616E0
1.322696771E1,1.418432045E0,2.879775344E0,3.012731087E0,4.402454327E0
1.323700171E1,1.582033046E0,2.427831767E0,3.495384825E0,4.540364602E0
1.324703571E1,1.666048033E0,1.876369164E0,3.998937682E0,4.721014708E0
1.325706971E1,1.804385554E0,1.306068002E0,4.288011160E0,4.832045174E0
1.326710371E1,1.803367407E0,6.943510115E-1,4.485503792E0,4.884055856E0
1.327713771E1,1.685065079E0,9.432903707E-2,4.396347787E0,4.709162999E0
1.328717271E1,1.529195851E0,-2.684298831E-1,3.787674272E0,4.093527934E0
1.329720671E1,1.363416616E0,-4.156054705E-1,3.201848168E0,3.504777377E0
1.330724071E1,1.407106427E0,-5.872265124E-1,2.730943240E0,3.127752300E0
1.331727471E1,1.572711707E0,-9.401428145E-1,2.517850821E0,3.113978706E0
1.332730871E1,1.692757091E0,-1.463741680E0,2.705650524E0,3.511197948E0
1.333734271E1,1.792755296E0,-2.177921185E0,3.294576237E0,4.337227781E0
1.334737671E1,1.795963224E0,-3.054220006E0,4.220985112E0,5.510939943E0
1.335741071E1,1.503847733E0,-3.838264382E0,5.156587563E0,6.601835106E0
1.336744471E1,8.385630839E-1,-4.162618205E0,5.659608908E0,7.075432945E0
1.337747871E1,2.845084105E-1,-3.786183232E0,5.408393812E0,6.608089900E0
1.338751371E1,-5.203568771E-2,-2.748581951E0,4.394994156E0,5.183954483E0
1.339754771E1,-5.154535483E-1,-1.584511242E0,3.228946212E0,3.633519213E0
1.340758171E1,-1.044626419E0,-5.463316709E-1,2.160092147E0,2.460837405E0
1.341761571E1,-1.445341224E0,3.497605598E-1,1.163747942E0,1.888293668E0
1.342764971E1,-1.770287223E0,1.065401284E0,2.252610594E-1,2.078398252E0
1.343768371E1,-1.755776188E0,1.704520665E0,-1.066937347E0,2.669549779E0
1.344771771E1,-1.330627623E0,2.035747306E0,-2.743713559E0,3.666442562E0
1.345775171E1,-8.386097154E-1,1.950435260E0,-4.087508966E0,4.605995387E0
1.346778671E1,-8.589308363E-1,1.429675217E0,-4.275802758E0,4.589577610E0
1.347782071E1,-1.074608602E0,7.398365021E-1,-3.527247473E0,3.760799972E0
1.348785471E1,-1.302110460E0,-1.885843992E-2,-2.511805092E0,2.829313011E0
1.349788871E1,-1.494487364E0,-9.264813799E-1,-1.656967015E0,2.416071173E0
1.350792271E1,-1.567539845E0,-1.931679146E0,-1.082314355E0,2.712926437E0
1.351795671E1,-1.582991112E0,-2.988348198E0,-8.369148999E-1,3.483749756E0
1.352799071E1,-1.318430916E0,-3.761502720E0,-9.649964046E-1,4.101021928E0
1.353802471E1,-1.006016815E0,-3.969636115E0,-1.428074250E0,4.336989368E0
1.354805871E1,-6.755231233E-1,-3.639942030E0,-2.172168109E0,4.292298192E0
1.355809271E1,-2.063532105E-1,-3.062731798E0,-2.989217971E0,4.284662389E0
1.356812771E1,2.267532688E-1,-2.496252376E0,-3.495355005E0,4.301185834E0
1.357816171E1,6.681592861E-1,-2.031899838E0,-3.610540475E0,4.196552908E0
1.358819571E1,1.401136419E0,-1.506393610E0,-3.974016264E0,4.474953658E0
1.359822971E1,2.438223438E0,-9.675188935E-1,-5.248244423E0,5.867290334E0
1.360826371E1,2.661092694E0,-8.131149781E-1,-6.121015034E0,6.723793225E0
1.361829771E1,2.294770919E0,-7.971807307E-1,-6.138388281E0,6.601612029E0
1.362833171E1,1.517198826E0,-8.095668876E-1,-5.688609928E0,5.942859054E0
1.363836571E1,8.317066388E-1,-7.332238859E-1,-5.021018699E0,5.141982300E0
1.364839971E1,2.478457837E-1,-5.867131269E-1,-4.399859625E0,4.445719800E0
1.365843471E1,-2.302994590E-1,-4.079087806E-1,-3.981244007E0,4.008706931E0
1.366846871E1,-4.026660208E-1,-2.056360495E-1,-3.700956556E0,3.728472279E0
1.367850271E1,-4.746854451E-1,-7.048058331E-2,-3.542847260E0,3.575200762E0
1.368853671E1,-5.491472514E-1,-7.251307547E-2,-3.466236455E0,3.510215950E0
1.369857071E1,-8.269724406E-1,-1.547980177E-1,-3.399292853E0,3.501862039E0
1.370860471E1,-1.097220223E0,-2.359357363E-1,-3.209709165E0,3.400263344E0
1.371863871E1,-1.215192769E0,-2.993277401E-1,-3.025290322E0,3.273938315E0
1.372867271E1,-1.332408393E0,-2.557519501E-1,-2.726473628E0,3.045386614E0
1.373870671E1,-1.350951668E0,-1.586063093E-1,-2.426663493E0,2.781891816E0
1.374874071E1,-1.246208009E0,-3.892959237E-2,-2.153424275E0,2.488329967E0
1.375877571E1,-1.082809760E0,1.331603962E-1,-1.880893739E0,2.174389553E0
1.376880971E1,-8.512907182E-1,2.820503873E-1,-1.678624517E0,1.903162782E0
1.377884371E1,-6.540081471E-1,3.768922251E-1,-1.519023011E0,1.696232683E0
1.378887771E1,-4.346320179E-1,4.767088741E-1,-1.331629690E0,1.479660087E0
1.379891171E1,-1.716283509E-1,5.984350401E-1,-1.234396926E0,1.382503728E0
1.380894571E1,1.097706565E-1,7.852413011E-1,-1.145570118E0,1.393192160E0
1.381897971E1,2.934795012E-1,9.327139270E-1,-9.802634847E-1,1.384558409E0
1.382901371E1,4.981418431E-1,1.023445172E0,-7.024649003E-1,1.337550841E0
1.383904771E1,7.896958561E-1,1.032172142E0,-3.672337943E-1,1.350503438E0
1.384908271E1,1.170989719E0,8.679086512E-1,1.058328491E-1,1.461397599E0
1.385911671E1,1.624086367E0,5.453066540E-1,7.620184994E-1,1.875016818E0
1.386915071E1,2.224051477E0,9.741519749E-2,1.539033937E0,2.706385071E0
1.387918471E1,2.939309939E0,-3.961634785E-1,2.373861674E0,3.798908747E0
1.388921871E1,3.549169854E0,-7.985033709E-1,2.902744084E0,4.654045283E0
1.389925271E1,4.270326549E0,-1.008097985E0,3.291566091E0,5.485103254E0
1.390928671E1,5.101515563E0,-9.565179420E-1,3.641847053E0,6.340618074E0
1.391932071E1,5.975365570E0,-4.899136412E-1,3.712266825E0,7.051661793E0
1.392935471E1,6.886615537E0,4.939359409E-1,3.483110058E0,7.733143084E0
1.393938971E1,7.887981039E0,1.545750634E0,3.027878299E0,8.589390950E0
1.394942371E1,8.395418200E0,1.832820271E0,2.483192620E0,8.944748319E0
1.395945771E1,8.117143945E0,1.413937436E0,2.059355439E0,8.492831667E0
1.396949171E1,7.658621081E0,2.459853458E-1,2.483698404E0,8.055044594E0
1.397952571E1,6.961148826E0,-1.573049530E0,3.243739375E0,7.839255254E0
1.398955971E1,5.894324330E0,-3.404626098E0,3.751025679E0,7.772048110E0
1.399959371E1,4.636122805E0,-4.223776572E0,3.866734475E0,7.367873417E0
1.400962771E1,3.145514046E0,-3.773025827E0,3.563116048E0,6.068424711E0
1.401966171E1,1.469995570E0,-2.909914817E0,2.986667123E0,4.421387986E0
1.402969571E1,-6.449303448E-2,-1.863685384E0,2.311175575E0,2.969682660E0
1.403973071E1,-1.133098007E0,-6.984575111E-1,1.522489679E0,2.022307794E0
1.404976471E1,-1.776948372E0,2.727363575E-1,8.393577205E-1,1.984049399E0
1.405979846E1,-2.026356677E0,9.528932530E-1,2.555543143E-1,2.253760179E0
1.406983246E1,-2.011699754E0,1.162508917E0,-2.135742295E-1,2.333233129E0
1.407986646E1,-2.279297286E0,7.560900074E-1,-4.951878297E-1,2.451954161E0
1.408990046E1,-2.668837624E0,-1.609299928E-1,-6.979493880E-1,2.763281758E0
1.409993446E1,-2.660470258E0,-1.232129960E0,-1.190976379E0,3.164596494E0
1.410996846E1,-2.538754617E0,-2.419373184E0,-1.723225031E0,3.907447520E0
1.412000246E1,-2.763980885E0,-3.641860501E0,-2.380302089E0,5.154471484E0
1.413003746E1,-4.518898703E0,-5.198353055E0,-7.870953362E0,1.045921731E1
1.414007146E1,-1.042618543E1,-8.970528697E0,-3.224893799E1,3.505951696E1
1.415010546E1,-9.217496960E0,-6.730535810E0,-2.147088232E1,2.431586211E1
1.416013946E1,-5.170216253E0,-3.248780259E0,-8.747393686E0,1.066783041E1
1.417017346E1,-1.110737012E0,-9.042935354E-1,-2.727850940E0,3.081015134E0
1.418020746E1,5.646819878E-1,8.526433253E-1,-1.940933535E-1,1.040931610E0
1.419024146E1,-2.330156368E-1,1.946129955E0,4.885269740E-1,2.019994231E0
1.420027546E1,-1.593813431E0,2.582483019E0,1.455412322E0,3.365662613E0
1.421030946E1,-2.579251848E0,2.762007743E0,2.271636264E0,4.409258235E0
1.422034346E1,-2.738940477E0,2.864390734E0,3.903593861E0,5.562784756E0
1.423037846E1,-2.658138681E0,2.795766057E0,6.077234591E0,7.198249049E0
1.424041246E1,-2.301414818E0,3.099621881E0,6.695836678E0,7.729061702E0
1.425044646E1,-1.504672190E0,3.388838616E0,5.603235902E0,6.718967044E0
1.426048046E1,-6.933347654E-1,3.311443115E0,4.396217979E0,5.547350820E0
1.427051446E1,3.755059965E-2,2.810264813E0,3.135977237E0,4.211098621E0
1.428054846E1,6.154566503E-1,2.025540991E0,2.107928552E0,2.987468154E0
1.429058246E1,7.639072962E-1,1.010979493E0,1.377499927E0,1.871667690E0
1.430061646E1,4.173654824E-1,-2.320467532E-2,7.628721929E-1,8.698887202E-1
1.431065046E1,-1.932694808E-1,-8.775267363E-1,3.396463385E-1,9.606070478E-1
1.432068446E1,-9.840684141E-1,-1.386145036E0,1.521197006E-1,1.706730531E0
1.433071946E1,-1.786369990E0,-1.611390892E0,1.357980752E-1,2.409593216E0
1.434075346E1,-2.361305217E0,-1.702560679E0,4.605077013E-1,2.947294104E0
1.435078746E1,-2.611630805E0,-1.644110742E0,1.161127220E0,3.297261290E0
1.436082146E1,-2.508551409E0,-1.492159733E0,1.980108125E0,3.527066632E0
1.437085546E1,-2.122120036E0,-1.091034307E0,2.426229045E0,3.402989375E0
1.438088946E1,-1.497190678E0,-4.729134464E-1,2.295762461E0,2.781322047E0
1.439092346E1,-5.289110613E-1,3.441805619E-1,1.685300283E0,1.799567785E0
1.440095746E1,5.022802100E-1,1.054948801E0,1.071023966E0,1.585021993E0
1.441099146E1,1.418458796E0,1.599180152E0,5.413489661E-1,2.205098913E0
1.442102646E1,2.217032333E0,1.980537311E0,1.359770000E-1,2.975945253E0
1.443106046E1,2.809595892E0,2.215550357E0,-2.379691055E-1,3.585961761E0
1.444109446E1,3.258971372E0,2.410966642E0,-5.398973948E-1,4.089638584E0
1.445112846E1,3.348486981E0,2.535958478E0,-5.080793323E-1,4.231027662E0
1.446116246E1,2.700559938E0,2.717053179E0,2.155739772E-1,3.836909446E0
1.447119646E1,2.105297889E0,3.046463090E0,1.132828305E0,3.872533606E0
1.448123046E1,1.868843651E0,3.185250846E0,1.818486845E0,4.116466197E0
1.449126446E1,1.617652676E0,2.897578946E0,2.363302333E0,4.074059627E0
1.450129846E1,1.404527220E0,2.399430671E0,2.683418241E0,3.864026101E0
1.451133346E1,1.146468835E0,1.745660505E0,2.962044498E0,3.624283240E0
1.452136746E1,8.579309624E-1,9.871672922E-1,3.333385377E0,3.580782438E0
1.453140146E1,5.608450449E-1,2.331735116E-1,3.679155797E0,3.728954871E0
1.454143546E1,3.511557055E-1,-4.205820358E-1,3.848254350E0,3.887063303E0
1.455146946E1,2.787513882E-2,-8.745370549E-1,3.853799849E0,3.951881243E0
1.456150346E1,-4.511422160E-1,-1.083834631E0,3.829837959E0,4.005731594E0
1.457153746E1,-9.588702768E-1,-1.070667286E0,3.882372853E0,4.139876763E0
1.458157146E1,-1.404342302E0,-1.142492144E0,4.017499668E0,4.406559790E0
1.459160546E1,-1.525826393E0,-1.528580870E0,4.204539233E0,4.726823015E0
1.460163946E1,-1.532868633E0,-2.431841787E0,4.536073437E0,5.370242355E0
1.461167446E1,-1.464752225E0,-3.590403249E0,4.705452949E0,6.097358610E0
1.462170846E1,-1.149450038E0,-4.760425839E0,4.013828786E0,6.331959498E0
1.463174246E1,-1.821004218E-1,-5.510729442E0,9.018558311E-1,5.587006666E0
1.464177646E1,1.995212799E0,-5.535145075E0,-6.006986142E0,8.408483076E0
1.465181046E1,2.082102131E0,-4.965690005E0,-8.056795417E0,9.690468457E0
1.466184446E1,-9.744013587E-1,-4.250173827E0,-2.921344369E0,5.248589191E0
1.467187846E1,-2.550981145E0,-3.184510004E0,-6.179366738E-2,4.080738564E0
1.468191246E1,-3.058304578E0,-1.856230769E0,4.911666995E-1,3.611102918E0
1.469194646E1,-3.035574112E0,-5.863710648E-1,2.690517345E-1,3.103373979E0
1.470198046E1,-2.773262171E0,3.702983201E-1,-3.203242144E-1,2.816151899E0
1.471201546E1,-2.572646248E0,8.892808092E-1,-8.466563612E-1,2.850641344E0
1.472204946E1,-2.126630286E0,1.066087162E0,-1.196128069E0,2.662671697E0
1.473208346E1,-1.439184398E0,1.081740158E0,-1.017532760E0,2.068039269E0
1.474211746E1,-5.955490007E-1,7.428606820E-1,-7.273070884E-1,1.198121949E0
1.475215146E1,9.228620996E-1,3.086189657E-1,-1.881039920E0,2.117836467E0
1.476218546E1,3.859630108E0,2.551976341E-1,-4.085938404E0,5.626434310E0
1.477221946E1,7.014326913E0,9.671528578E-2,-7.051518713E0,9.946559810E0
1.478225346E1,7.891329154E0,-4.336143100E-1,-7.591043640E0,1.095833202E1
1.479228746E1,6.066465189E0,-1.251282515E0,-6.100016513E0,8.693555618E0
1.480232246E1,4.845223330E0,-1.719936849E0,-5.352747030E0,7.422012709E0
1.481235646E1,4.632516535E0,-1.653241169E0,-4.308908524E0,6.539121384E0
1.482239046E1,4.180984309E0,-1.233764842E0,-3.256659383E0,5.441381793E0
1.483242446E1,3.810368485E0,-6.203983516E-1,-2.988857490E0,4.882322317E0
1.484245846E1,3.639160549E0,4.664382398E-2,-3.133253896E0,4.802389523E0
1.485249246E1,3.496798975E0,5.914669132E-1,-3.387741094E0,4.904510770E0
1.486252646E1,3.142189319E0,1.117299415E0,-3.765641963E0,5.030086589E0
1.487256046E1,2.436788824E0,1.335048557E0,-3.931373690E0,4.814145148E0
1.488259446E1,1.618780896E0,1.302361452E0,-3.792852566E0,4.324618773E0
1.489262846E1,9.573559941E-1,1.126104738E0,-3.562655287E0,3.857091531E0
1.490266346E1,5.979133223E-1,1.015154405E0,-3.385416241E0,3.584561609E0
1.491269746E1,3.674473639E-1,9.350914049E-1,-3.172051926E0,3.327360354E0
1.492273146E1,1.147719263E-1,6.910660458E-1,-2.819574165E0,2.905295742E0
1.493276546E1,-1.327888057E-1,3.546511710E-1,-2.429683580E0,2.459018629E0
1.494279946E1,-4.179203832E-1,-5.501586735E-2,-2.035625684E0,2.078811227E0
1.495283346E1,-8.383413282E-1,-5.791000521E-1,-1.657637690E0,1.945748125E0
1.496286746E1,-1.283182438E0,-1.086242514E0,-1.353227550E0,2.158171627E0
1.497290146E1,-1.625476250E0,-1.438647770E0,-1.165451821E0,2.463769143E0
1.498293546E1,-1.967957026E0,-1.773085701E0,-8.745013869E-1,2.789523335E0
1.499297046E1,-2.293981837E0,-2.057791893E0,-7.053554714E-1,3.161389961E0
1.500300446E1,-2.484740962E0,-2.195332439E0,-5.690533662E-1,3.364111161E0
1.501303846E1,-2.540695893E0,-2.040649611E0,-6.733969295E-1,3.327589199E0
1.502307246E1,-2.447851171E0,-1.473976062E0,-8.839458096E-1,2.990976593E0
1.503310646E1,-2.202160086E0,-6.983329654E-1,-1.234011009E0,2.619152754E0
1.504314046E1,-1.978363024E0,-3.554990172E-2,-1.441750302E0,2.448229561E0
1.505317446E1,-1.740072175E0,3.631366503E-1,-1.514720045E0,2.335400655E0
1.506320837E1,-1.532027365E0,5.393939495E-1,-1.464653846E0,2.187067573E0
1.507324238E1,-1.293937222E0,5.423818767E-1,-1.302798824E0,1.914611295E0
1.508327637E1,-1.048602818E0,4.168117511E-1,-1.003717251E0,1.510214629E0
1.509331137E1,-8.756432019E-1,1.912279254E-1,-7.130182475E-1,1.145300903E0
1.510334537E1,-6.320902978E-1,-5.215891778E-2,-3.839577082E-1,7.414055698E-1
1.511337937E1,-3.656991926E-1,-2.913287491E-1,-9.500263631E-3,4.676522153E-1
1.512341337E1,-5.795599356E-2,-4.629854590E-1,3.309091365E-1,5.720273499E-1
1.513344738E1,2.833657184E-1,-4.416267496E-1,5.623729223E-1,7.691512336E-1
1.514348137E1,6.214331625E-1,-2.724855119E-1,7.580839080E-1,1.017407854E0
1.515351538E1,9.384814744E-1,2.953194737E-2,9.092040271E-1,1.307008637E0
1.516354937E1,1.331675883E0,3.879703599E-1,1.022108499E0,1.722958920E0
1.517358337E1,1.863255613E0,5.725014693E-1,1.268613370E0,2.325695443E0
1.518361737E1,2.560443986E0,4.004044640E-1,1.549195521E0,3.019305202E0
1.519365237E1,3.494661525E0,-1.016105747E-1,1.813338226E0,3.938423467E0
1.520368637E1,4.502206364E0,-1.065039341E0,2.252137554E0,5.145512074E0
1.521372038E1,5.444133164E0,-2.493512371E0,2.903175023E0,6.654668667E0
1.522375437E1,5.833369446E0,-3.819728708E0,3.510113669E0,7.806370762E0
1.523378838E1,4.745280381E0,-3.950146760E0,3.765224472E0,7.231753636E0
1.524382237E1,2.941090124E0,-2.479346906E0,3.248723541E0,5.035015079E0
1.525385637E1,1.847976693E0,-1.539624506E-1,2.071883976E0,2.780544102E0
1.526389037E1,1.112901578E0,1.609318639E0,1.243034725E0,2.318100889E0
1.527392437E1,7.836672306E-1,2.466618102E0,9.493691361E-1,2.756744629E0
1.528395937E1,6.806854838E-1,2.624801658E0,8.477591461E-1,2.841058261E0
1.529399338E1,5.014769487E-1,2.504559515E0,7.964635697E-1,2.675565681E0
1.530402737E1,3.275803167E-1,2.157095157E0,6.301702183E-1,2.271009221E0
1.531406138E1,7.961583450E-2,1.604928550E0,5.117252174E-1,1.686415438E0
1.532409537E1,-2.739619339E-1,9.875076002E-1,4.925612605E-1,1.137032540E0
1.533412937E1,-5.159599172E-1,3.357254881E-1,4.982774985E-1,7.919638281E-1
1.534416337E1,-7.317597431E-1,-2.744004750E-1,6.491447255E-1,1.015951188E0
1.535419737E1,-9.461882508E-1,-8.017555922E-1,7.351356331E-1,1.441703380E0
1.536423138E1,-1.040401294E0,-1.180839939E0,7.971380460E-1,1.764156137E0
1.537426537E1,-9.526771984E-1,-1.493371276E0,7.580540872E-1,1.926758317E0
1.538430037E1,-7.999735802E-1,-1.702633184E0,6.668772840E-1,1.995906511E0
1.539433437E1,-7.429197389E-1,-1.849486005E0,4.307386494E-1,2.039133151E0
1.540436837E1,-8.232289801E-1,-1.995044838E0,5.206068456E-2,2.158846954E0
1.541440237E1,-9.209357344E-1,-1.945075702E0,-2.959749466E-1,2.172335905E0
1.542443638E1,-1.280359695E0,-1.646052017E0,-6.710755849E-1,2.190696381E0
1.543447037E1,-1.935811812E0,-1.110243580E0,-1.079114174E0,2.478809307E0
1.544450438E1,-2.639960272E0,-3.720986778E-1,-1.439265236E0,3.029741257E0
1.545453837E1,-3.116647219E0,3.902244616E-1,-1.930858782E0,3.687001580E0
1.546457237E1,-3.357098175E0,1.043737350E0,-2.530243410E0,4.331469442E0
1.547460637E1,-3.208737650E0,1.490487429E0,-2.827682207E0,4.529165127E0
1.548464137E1,-2.746401524E0,1.696922209E0,-2.716289240E0,4.219063113E0
1.549467537E1,-2.335747476E0,1.672621180E0,-2.156155509E0,3.591988929E0
1.550470938E1,-2.270825840E0,1.321849637E0,-1.333278605E0,2.946450118E0
1.551474337E1,-2.134147467E0,8.325616479E-1,-6.538233751E-1,2.382273979E0
1.552477738E1,-1.878273456E0,3.695896375E-1,-1.563165396E-1,1.920662005E0
1.553481137E1,-1.570385977E0,-2.438639760E-2,2.245512074E-1,1.586546582E0
1.554484537E1,-1.232842882E0,-2.954206306E-1,5.296887410E-1,1.373952358E0
1.555487937E1,-9.463936342E-1,-4.262129045E-1,8.126018849E-1,1.318195803E0
1.556491337E1,-6.383192635E-1,-4.181455010E-1,1.036649062E0,1.287221201E0
1.557494738E1,-2.893387954E-1,-3.353401566E-1,1.287997474E0,1.362023294E0
1.558498238E1,6.850115463E-2,-1.834306633E-1,1.547220039E0,1.559560536E0
1.559501637E1,4.987543389E-1,-5.461884141E-3,1.810815445E0,1.878254056E0
1.560505038E1,1.036518012E0,1.714198977E-1,2.077313408E0,2.327871423E0
1.561508437E1,1.599350891E0,3.743808460E-1,2.323270687E0,2.845289260E0
1.562511837E1,2.222481646E0,5.802004981E-1,2.576924656E0,3.452042579E0
1.563515237E1,2.976738259E0,7.820925754E-1,3.116189382E0,4.379871656E0
1.564518637E1,4.108607766E0,1.129451099E0,3.745738041E0,5.673347428E0
1.565522038E1,5.093810686E0,1.497919825E0,4.025060118E0,6.662715667E0
1.566525437E1,5.943532743E0,1.935052990E0,4.347315375E0,7.613748256E0
1.567528838E1,6.327779011E0,2.288024840E0,4.510611151E0,8.100707243E0
1.568532338E1,6.145207304E0,2.523551272E0,4.475926053E0,8.010355664E0
1.569535737E1,5.977669957E0,2.862192181E0,4.340223872E0,7.922261386E0
1.570539137E1,5.699757060E0,3.224391523E0,4.240352259E0,7.801571542E0
1.571542537E1,5.254099240E0,3.544218432E0,4.104478755E0,7.550747576E0
1.572545937E1,4.694903694E0,3.816008710E0,3.949221146E0,7.224983795E0
1.573549338E1,4.239732162E0,3.964835551E0,3.856574353E0,6.969104354E0
1.574552737E1,3.838484237E0,3.925727034E0,3.827095031E0,6.692678862E0
1.575556138E1,3.418830739E0,3.623342954E0,3.842013617E0,6.291111699E0
1.576559537E1,2.995634413E0,3.073365544E0,3.895184687E0,5.795848950E0
1.577563037E1,2.652515121E0,2.341408165E0,3.841984965E0,5.222918450E0
1.578566437E1,2.410599437E0,1.391120431E0,3.717365012E0,4.643813986E0
1.579569837E1,2.252287097E0,2.918871582E-1,3.530635350E0,4.198021111E0
1.580573237E1,2.272356641E0,-1.035406821E0,3.371154882E0,4.195277968E0
1.581576638E1,2.367290427E0,-2.663784460E0,3.204785224E0,4.792750770E0
1.582580037E1,2.515894635E0,-4.593859715E0,2.932079857E0,6.002529898E0
1.583583438E1,2.782618885E0,-6.520403252E0,2.500205678E0,7.517290393E0
1.584586837E1,3.013838550E0,-8.066779538E0,1.981357529E0,8.836398167E0
1.585590237E1,3.297522649E0,-8.536947716E0,1.191274002E0,9.228882147E0
1.586593637E1,3.341501020E0,-7.999041883E0,1.848331180E-1,8.670897497E0
1.587597137E1,3.440498182E0,-6.768914010E0,-8.741406137E-1,7.643254963E0
1.588600537E1,3.674373359E0,-5.290746079E0,-2.077701078E0,6.768297823E0
1.589603938E1,3.823089103E0,-4.146590987E0,-3.375430951E0,6.572956808E0
1.590607337E1,3.809691963E0,-3.532505289E0,-4.297186026E0,6.742266252E0
1.591610738E1,3.770528482E0,-3.276431742E0,-5.041733630E0,7.097250734E0
1.592614137E1,5.034808187E0,-2.732255355E0,-9.332298269E0,1.095017369E1
1.593617537E1,7.786877418E0,-1.900125816E0,-1.676297793E1,1.858072569E1
1.594620937E1,6.628475000E0,-1.693453056E0,-1.453650556E1,1.606594093E1
1.595624337E1,4.200371045E0,-2.130587389E0,-1.180470044E1,1.270958189E1
1.596627738E1,2.691888225E0,-2.556581608E0,-9.782601702E0,1.046334878E1
1.597631238E1,1.466396462E0,-2.606674705E0,-8.201603467E0,8.729912430E0
1.598634637E1,7.039049233E-1,-2.324604437E0,-6.740883043E0,7.165107963E0
1.599638037E1,2.419621508E-1,-2.109715753E0,-5.347903197E0,5.754086795E0
1.600641437E1,-6.405405477E-3,-1.882302918E0,-4.170353487E0,4.575473037E0
1.601644837E1,-2.652402270E-1,-1.699271035E0,-3.334609784E0,3.751999046E0
1.602648238E1,-3.671269365E-1,-1.503184658E0,-2.766811230E0,3.170108939E0
1.603651637E1,-3.527353308E-1,-1.327840109E0,-2.261159808E0,2.645831674E0
1.604655038E1,-1.189238879E-1,-1.074175031E0,-1.815697285E0,2.112995863E0
1.605658437E1,3.230405384E-1,-7.175235271E-1,-1.534718692E0,1.724690310E0
1.606661858E1,1.023317849E0,-2.319134367E-1,-1.360938858E0,1.718463802E0
1.607665358E1,1.828406208E0,2.395668572E-1,-1.085744331E0,2.139930441E0
1.608668758E1,2.472641319E0,5.061612993E-1,-6.572539365E-1,2.608090698E0
1.609672158E1,2.737345941E0,5.213424253E-1,-1.346555293E-2,2.786582503E0
1.610675558E1,2.428220314E0,3.916014808E-1,7.246185386E-1,2.564113422E0
1.611678958E1,1.541533037E0,1.576461965E-1,1.349901362E0,2.055093700E0
1.612682358E1,4.650692604E-1,-2.276087165E-2,1.759561091E0,1.820127113E0
1.613685758E1,-3.099483302E-1,-7.482447982E-2,1.975100570E0,2.000672120E0
1.614689158E1,-7.585138245E-1,-4.345709145E-2,2.016196263E0,2.154594884E0
1.615692558E1,-9.534583864E-1,4.897218525E-2,1.969485196E0,2.188687531E0
1.616695958E1,-1.025843993E0,1.616948086E-1,1.862340524E0,2.132325804E0
1.617699458E1,-1.006856183E0,2.351972330E-1,1.673245078E0,1.966933198E0
1.618702858E1,-8.623688529E-1,3.490518773E-1,1.418398862E0,1.696281988E0
1.619706258E1,-6.496277055E-1,4.976495075E-1,1.096995836E0,1.368601861E0
1.620709658E1,-3.900942148E-1,6.707709450E-1,8.640386716E-1,1.161322515E0
1.621713058E1,-9.006860957E-2,7.562969989E-1,7.681990063E-1,1.081770409E0
1.622716458E1,2.471065494E-1,7.429513139E-1,8.329390857E-1,1.143164827E0
1.623719858E1,6.516582973E-1,6.790447551E-1,9.431889215E-1,1.332428481E0
1.624723258E1,1.129596549E0,5.502949136E-1,1.087817462E0,1.661974634E0
1.625726658E1,1.723420913E0,3.520690405E-1,1.285648940E0,2.178766956E0
1.626730058E1,2.380421811E0,1.096645296E-1,1.640705323E0,2.893155417E0
1.627733558E1,3.052238092E0,-3.868576348E-2,2.082403701E0,3.695139934E0
1.628736958E1,3.881975827E0,-1.224699318E-2,2.382301691E0,4.554695123E0
1.629740358E1,4.996287900E0,2.102658749E-1,2.457197653E0,5.571797271E0
1.630743758E1,6.320060686E0,3.391870397E-1,2.449099259E0,6.786479361E0
1.631747158E1,7.700079010E0,1.047511142E-1,2.510239500E0,8.099598255E0
1.632750558E1,8.731297470E0,-3.255267745E-1,2.830635343E0,9.184444438E0
1.633753958E1,8.872452765E0,-5.167383277E-1,3.105978389E0,9.414591776E0
1.634757358E1,7.475625451E0,-2.498222888E-1,3.166385974E0,8.122400334E0
1.635760758E1,5.671172361E0,3.346770823E-1,3.111956583E0,6.477536451E0
1.636764158E1,4.368132048E0,9.175977051E-1,3.031727521E0,5.395733027E0
1.637767658E1,3.420239041E0,1.336480540E0,3.066247728E0,4.783940893E0
1.638771058E1,2.718895344E0,1.520002420E0,3.094758167E0,4.390936957E0
1.639774458E1,2.026530340E0,1.499988570E0,3.084930167E0,3.984166797E0
1.640777858E1,1.461929044E0,1.426546957E0,3.114570873E0,3.724624071E0
1.641781258E1,8.926689783E-1,1.356458137E0,2.892993559E0,3.317566626E0
1.642784658E1,4.490436503E-1,1.487431675E0,2.303718767E0,2.778707135E0
1.643788058E1,1.487633988E-1,1.678512835E0,1.645892973E0,2.355525327E0
1.644791458E1,5.952524006E-2,1.703989154E0,1.187531492E0,2.077824183E0
1.645794858E1,6.146710038E-2,1.517807960E0,8.349718702E-1,1.733406251E0
1.646798258E1,8.728781998E-2,1.033754398E0,5.624044973E-1,1.180070395E0
1.647801758E1,1.215279454E-1,2.178865510E-1,3.675210388E-1,4.442018737E-1
1.648805158E1,2.990558445E-2,-8.539121711E-1,2.303438978E-1,8.849399139E-1
1.649808558E1,-6.295550913E-2,-2.020677277E0,1.418895583E-1,2.026630874E0
1.650811958E1,-1.943158400E-1,-3.171864231E0,5.560994446E-2,3.178297313E0
1.651815358E1,-5.417456996E-1,-4.147062857E0,-7.533728063E-2,4.182976745E0
1.652818758E1,-1.107307693E0,-4.748675859E0,-3.899297619E-1,4.891635510E0
1.653822158E1,-1.954767023E0,-4.856834731E0,-1.394297808E0,5.417935409E0
1.654825558E1,-5.696518287E0,-5.994461406E0,-1.487456818E1,1.701871519E1
1.655828958E1,-9.226406947E0,-7.317160059E0,-3.078198853E1,3.295752166E1
1.656832358E1,-5.775911781E0,-3.351937423E0,-1.177699633E1,1.353862194E1
1.657835858E1,-2.766654525E0,-1.124976810E0,-1.829097934E0,3.502220629E0
1.658839258E1,-1.118539025E0,-1.928973055E-1,6.752487427E-1,1.320719420E0
